#time,accel_x,accel_y,accel_z
1126.133486,-76.589155,-689.302399,10416.125148
1126.133785,-229.767466,-689.302399,10416.125148
1126.134083,153.178311,-689.302399,10262.946837
1126.134382,306.356622,-229.767466,10033.179370
1126.134689,1991.318043,-382.945777,10262.946837
1126.134987,4901.705952,-229.767466,9880.001059
1126.135285,8807.752882,-76.589155,9420.466126
1126.135583,12484.032346,-76.589155,9650.233593
1126.135882,17538.916609,153.178311,8807.752882
1126.136180,18917.521408,153.178311,9267.287815
1126.136478,21368.374384,153.178311,9267.287815
1126.136776,20066.358741,919.069866,9803.411904
1126.137092,18994.110564,2297.674665,9650.233593
1126.137391,18611.164786,1838.139732,8960.931193
1126.137689,15624.187722,1378.604799,9650.233593
1126.137988,14858.296167,1378.604799,10416.125148
1126.138286,15777.366033,153.178311,10416.125148
1126.138585,20525.893674,919.069866,10569.303459
1126.138883,26729.615269,765.891555,9573.644437
1126.139182,29563.414023,-229.767466,8424.807105
1126.139496,24814.886382,-2374.263820,10109.768526
1126.139795,18151.629853,-4901.705952,14628.528700
1126.140094,11335.195014,-4825.116796,15700.776877
1126.140392,7888.683016,-1761.550576,14322.172078
1126.140691,4748.527641,-76.589155,14322.172078
1126.140990,765.891555,-76.589155,15547.598566
1126.141289,1838.139732,1991.318043,16543.257588
1126.141587,7046.202306,4595.349330,14475.350389
1126.141864,15164.652789,7122.791461,10416.125148
1126.142166,19606.823808,6816.434839,9726.822748
1126.142467,22440.622561,3829.457775,8195.039638
1126.142769,23053.335805,-76.589155,6816.434839
1126.143070,21981.087628,-3599.690308,6510.078217
1126.143372,19606.823808,-8884.342038,7735.504705
1126.143674,15471.009411,-11258.605858,9114.109504
1126.143975,12024.497413,-9726.822748,8731.163727
1126.144275,5361.240885,-5973.954129,10416.125148
1126.144574,-536.124088,-2527.442131,12254.264880
1126.144873,-3829.457775,1531.783110,12713.799813
1126.145172,-4978.295107,5591.008351,11105.427547
1126.145471,-8577.985416,7888.683016,11335.195014
1126.145771,-10799.070925,3676.279464,11641.551636
1126.146070,-8424.807105,-3293.333686,12254.264880
1126.146369,459.534933,-5667.597507,8807.752882
1126.146676,8807.752882,-6280.310751,4135.814397
1126.146975,6586.667373,-7046.202306,6356.899906
1126.147275,2833.798753,-6893.023995,9880.001059
1126.147574,-1302.015643,-2680.620442,13632.869679
1126.147873,-3982.636086,2757.209598,14551.939545
1126.148172,-8424.807105,6356.899906,12943.567279
1126.148472,-12866.978124,4442.171019,14934.885322
1126.148771,-9880.001059,1072.248177,15777.366033
1126.149091,-995.659021,-2680.620442,10569.303459
1126.149388,13403.102212,-5208.062574,5667.597507
1126.149685,22746.979183,-11258.605858,2986.977064
1126.149982,25121.243004,-16236.900966,4595.349330
1126.150280,25733.956248,-15317.831100,7735.504705
1126.150577,22440.622561,-5361.240885,7965.272172
1126.150874,12177.675724,4135.814397,9573.644437
1126.151171,-4442.171019,9420.466126,14934.885322
1126.151489,-20296.126207,11947.908258,17462.327454
1126.151788,-29333.646556,13632.869679,17002.792521
1126.152086,-32780.158554,12254.264880,14322.172078
1126.152384,-30252.716422,3829.457775,14015.815456
1126.152682,-18534.575631,-6280.310751,13632.869679
1126.152980,459.534933,-8577.985416,11028.838392
1126.153279,16926.203365,-7812.093861,7429.148083
1126.153577,24814.886382,-6127.132440,5361.240885
1126.153855,26882.793580,-4059.225241,5514.419196
1126.154155,22440.622561,1225.426488,5437.830040
1126.154455,12484.032346,4595.349330,4748.527641
1126.154756,-3216.744531,3829.457775,7888.683016
1126.155056,-12866.978124,1531.783110,10569.303459
1126.155356,-12407.443191,765.891555,13326.513057
1126.155656,-8118.450483,3676.279464,13403.102212
1126.155957,-3676.279464,4978.295107,12713.799813
1126.156257,-3369.922842,4595.349330,13096.745590
1126.156557,-1608.372265,3369.922842,12024.497413
1126.156858,1072.248177,1531.783110,10262.946837
1126.157159,5054.884263,-995.659021,7888.683016
1126.157460,7122.791461,-4518.760174,6969.613150
1126.157760,9956.590215,-8271.628794,9114.109504
1126.158061,11028.838392,-6739.845684,9803.411904
1126.158362,11641.551636,-1148.837332,10033.179370
1126.158669,3599.690308,2910.387909,11335.195014
1126.158966,-7658.915550,3063.566220,14934.885322
1126.159262,-18228.219009,1838.139732,16849.614210
1126.159558,-20142.947896,2757.209598,13403.102212
1126.159855,-16466.668432,-229.767466,10416.125148
1126.160151,-10033.179370,-5667.597507,10569.303459
1126.160448,3140.155375,-8271.628794,11335.195014
1126.160744,17079.381676,-6280.310751,10186.357681
1126.161052,24202.173138,-995.659021,8654.574571
1126.161351,20679.071985,-76.589155,8195.039638
1126.161650,9267.287815,-1148.837332,9803.411904
1126.161949,-2757.209598,-842.480710,11182.016703
1126.162248,-13786.047990,-2374.263820,10109.768526
1126.162547,-19530.234652,-4671.938485,10109.768526
1126.162846,-18228.219009,-6586.667373,11947.908258
1126.163144,-7965.272172,-3906.046930,11947.908258
1126.163461,3293.333686,4442.171019,10109.768526
1126.163760,9803.411904,8807.752882,8424.807105
1126.164059,8348.217949,9114.109504,9650.233593
1126.164359,4671.938485,4825.116796,10875.660081
1126.164658,153.178311,612.713244,10569.303459
1126.164957,-2910.387909,-6127.132440,8424.807105
1126.165256,-1914.728887,-9497.055282,6893.023995
1126.165556,2297.674665,-12024.497413,7582.326394
1126.165873,5820.775818,-8884.342038,9726.822748
1126.166171,3599.690308,-2680.620442,11028.838392
1126.166468,-536.124088,3523.101153,10799.070925
1126.166766,-7122.791461,5744.186662,12560.621502
1126.167064,-13479.691368,5897.364973,13173.334746
1126.167362,-12254.264880,5591.008351,11794.729947
1126.167660,-7352.558928,4978.295107,9420.466126
1126.167957,2527.442131,3369.922842,9573.644437
1126.168257,12024.497413,459.534933,9956.590215
1126.168556,19760.002119,2144.496354,10262.946837
1126.168856,20066.358741,5744.186662,9114.109504
1126.169155,11488.373325,4748.527641,9650.233593
1126.169454,-842.480710,1531.783110,11488.373325
1126.169753,-12254.264880,-2221.085509,11794.729947
1126.170052,-18687.753942,-6893.023995,11488.373325
1126.170351,-21368.374384,-11411.784169,11871.319102
1126.170637,-15241.241944,-13709.458834,12484.032346
1126.170940,-3676.279464,-10033.179370,12790.388968
1126.171243,7275.969772,-2986.977064,11028.838392
1126.171545,10722.481770,4288.992708,11028.838392
1126.171848,9956.590215,7122.791461,11182.016703
1126.172151,7429.148083,8195.039638,9420.466126
1126.172454,4518.760174,5897.364973,5897.364973
1126.172756,-1455.193954,-382.945777,5361.240885
1126.173063,-6663.256528,-8884.342038,9573.644437
1126.173360,-3676.279464,-11871.319102,12101.086569
1126.173658,2986.977064,-9497.055282,11182.016703
1126.173955,5820.775818,-3906.046930,10722.481770
1126.174252,2680.620442,-229.767466,12254.264880
1126.174549,-1148.837332,2450.852976,11794.729947
1126.174847,-4595.349330,4595.349330,10645.892614
1126.175144,-7122.791461,1838.139732,8960.931193
1126.175473,-7505.737239,-2374.263820,8501.396260
1126.175770,-4288.992708,-4825.116796,10262.946837
1126.176066,2297.674665,-5667.597507,11488.373325
1126.176362,8654.574571,-1148.837332,11794.729947
1126.176659,9497.055282,2910.387909,11488.373325
1126.176955,5054.884263,4978.295107,11488.373325
1126.177251,-1148.837332,4748.527641,11641.551636
1126.177548,-8731.163727,3369.922842,10722.481770
1126.177843,-12101.086569,-0.000000,9650.233593
1126.178144,-11105.427547,-3752.868619,10569.303459
1126.178444,-4288.992708,-5361.240885,11488.373325
1126.178745,6280.310751,-2221.085509,11641.551636
1126.179046,13556.280523,3676.279464,10416.125148
1126.179347,14858.296167,8654.574571,10416.125148
1126.179648,10722.481770,9573.644437,10262.946837
1126.179949,5208.062574,9420.466126,9726.822748
1126.180237,-2374.263820,5897.364973,8118.450483
1126.180538,-9343.876971,-229.767466,8424.807105
1126.180839,-11564.962480,-6739.845684,11641.551636
1126.181139,-6050.543284,-9497.055282,12101.086569
1126.181440,459.534933,-6127.132440,11641.551636
1126.181741,4671.938485,-2527.442131,10799.070925
1126.182042,1684.961421,-382.945777,10109.768526
1126.182343,-1914.728887,-995.659021,11105.427547
1126.182652,-6510.078217,-2221.085509,10952.249236
1126.182951,-8731.163727,-4671.938485,9420.466126
1126.183250,-6969.613150,-6280.310751,7505.737239
1126.183550,1378.604799,-5973.954129,6816.434839
1126.183849,8807.752882,-4212.403552,6969.613150
1126.184148,12637.210657,459.534933,10262.946837
1126.184448,11641.551636,3523.101153,10109.768526
1126.184747,5973.954129,3829.457775,9803.411904
1126.185054,-2910.387909,1378.604799,11335.195014
1126.185354,-10033.179370,-2833.798753,10339.535992
1126.185654,-13786.047990,-5667.597507,9573.644437
1126.185953,-10799.070925,-8731.163727,11182.016703
1126.186253,-4288.992708,-11105.427547,12790.388968
1126.186553,3599.690308,-8731.163727,13403.102212
1126.186852,8960.931193,-1148.837332,11794.729947
1126.187152,8195.039638,1991.318043,11335.195014
1126.187414,2833.798753,3829.457775,12101.086569
1126.187716,-536.124088,6356.899906,11028.838392
1126.188018,-5744.186662,4978.295107,9420.466126
1126.188321,-9497.055282,1072.248177,9497.055282
1126.188623,-6203.721595,-2374.263820,11335.195014
1126.188926,919.069866,-2680.620442,12637.210657
1126.189228,8960.931193,1378.604799,10875.660081
1126.189530,10416.125148,5131.473418,10569.303459
1126.189845,5054.884263,5591.008351,11794.729947
1126.190143,306.356622,4442.171019,11871.319102
1126.190442,-3369.922842,3676.279464,9956.590215
1126.190741,-6816.434839,-0.000000,7888.683016
1126.191040,-8577.985416,-4901.705952,8577.985416
1126.191338,-5744.186662,-8577.985416,11182.016703
1126.191637,1991.318043,-5514.419196,12407.443191
1126.191936,9420.466126,919.069866,10262.946837
1126.192224,8501.396260,4442.171019,10875.660081
1126.192524,3752.868619,6510.078217,10569.303459
1126.192824,-842.480710,6050.543284,9880.001059
1126.193124,-6356.899906,5284.651729,8501.396260
1126.193424,-7505.737239,306.356622,7275.969772
1126.193724,-5897.364973,-5054.884263,8654.574571
1126.194024,-842.480710,-7199.380617,10645.892614
1126.194324,6893.023995,-5054.884263,11182.016703
1126.194624,9497.055282,-536.124088,10569.303459
1126.194924,8195.039638,1838.139732,10569.303459
1126.195224,4365.581863,2297.674665,10109.768526
1126.195524,-2067.907198,1838.139732,9573.644437
1126.195824,-7199.380617,-689.302399,8501.396260
1126.196124,-9880.001059,-6127.132440,8501.396260
1126.196424,-8424.807105,-10033.179370,11488.373325
1126.196724,-1914.728887,-11258.605858,12254.264880
1126.197031,3293.333686,-7199.380617,12790.388968
1126.197333,4901.705952,-1761.550576,12560.621502
1126.197635,3752.868619,1072.248177,11105.427547
1126.197938,-76.589155,2144.496354,11488.373325
1126.198240,-2910.387909,2757.209598,10109.768526
1126.198542,-4748.527641,-536.124088,7429.148083
1126.198844,-3982.636086,-3906.046930,9726.822748
1126.199147,-229.767466,-6433.489062,11335.195014
1126.199463,7888.683016,-3752.868619,11182.016703
1126.199756,11182.016703,1991.318043,11182.016703
1126.200050,8501.396260,4595.349330,10416.125148
1126.200344,1531.783110,4288.992708,11335.195014
1126.200638,-3523.101153,4595.349330,10186.357681
1126.200931,-8271.628794,2604.031287,8195.039638
1126.201225,-12866.978124,-4059.225241,9650.233593
1126.201519,-13326.513057,-10186.357681,13709.458834
1126.201837,-3369.922842,-9497.055282,12560.621502
1126.202136,7582.326394,-3293.333686,10262.946837
1126.202434,11488.373325,2757.209598,9420.466126
1126.202732,8348.217949,5437.830040,9190.698660
1126.203030,2374.263820,7429.148083,10262.946837
1126.203329,-1455.193954,6356.899906,8960.931193
1126.203627,-5897.364973,2604.031287,8195.039638
1126.203925,-8424.807105,-2680.620442,9573.644437
1126.204238,-3829.457775,-4825.116796,11028.838392
1126.204537,5054.884263,-2221.085509,11335.195014
1126.204835,10875.660081,1991.318043,10416.125148
1126.205134,10109.768526,5131.473418,11335.195014
1126.205432,4671.938485,6510.078217,12101.086569
1126.205731,-536.124088,6510.078217,11488.373325
1126.206029,-4978.295107,5131.473418,9267.287815
1126.206328,-9190.698660,306.356622,8807.752882
1126.206627,-9190.698660,-6280.310751,11335.195014
1126.206928,-3063.566220,-8424.807105,13403.102212
1126.207229,4059.225241,-6586.667373,12790.388968
1126.207529,6280.310751,-1608.372265,10875.660081
1126.207830,3752.868619,-76.589155,11641.551636
1126.208131,-382.945777,919.069866,11641.551636
1126.208432,-1608.372265,1531.783110,9803.411904
1126.208732,-3523.101153,1378.604799,7582.326394
1126.209039,-4135.814397,-3446.511997,6356.899906
1126.209336,-1455.193954,-7812.093861,9803.411904
1126.209633,2680.620442,-9190.698660,11794.729947
1126.209930,8654.574571,-4671.938485,11335.195014
1126.210227,7888.683016,-382.945777,10416.125148
1126.210524,4059.225241,1991.318043,9650.233593
1126.210821,-1914.728887,1531.783110,10109.768526
1126.211117,-8424.807105,765.891555,10416.125148
1126.211431,-10799.070925,-2221.085509,9650.233593
1126.211734,-9880.001059,-6586.667373,10416.125148
1126.212037,-3523.101153,-8424.807105,10875.660081
1126.212340,2527.442131,-6433.489062,12101.086569
1126.212642,7429.148083,-1148.837332,9956.590215
1126.212945,7429.148083,3523.101153,10569.303459
1126.213248,3599.690308,4442.171019,10569.303459
1126.213551,-1455.193954,4442.171019,9803.411904
1126.213869,-3523.101153,3216.744531,8654.574571
1126.214165,-4748.527641,-76.589155,7582.326394
1126.214461,-2067.907198,-4518.760174,9573.644437
1126.214758,2680.620442,-5054.884263,11641.551636
1126.215054,7429.148083,-1608.372265,12943.567279
1126.215350,7046.202306,3216.744531,12713.799813
1126.215646,3140.155375,5591.008351,12254.264880
1126.215942,-1914.728887,6203.721595,12790.388968
1126.216259,-5744.186662,5591.008351,10262.946837
1126.216554,-7965.272172,4442.171019,9803.411904
1126.216850,-8577.985416,-76.589155,9803.411904
1126.217145,-5284.651729,-5054.884263,12407.443191
1126.217440,1531.783110,-5054.884263,12943.567279
1126.217735,8041.861327,306.356622,10875.660081
1126.218031,7275.969772,2144.496354,11028.838392
1126.218326,3140.155375,3063.566220,10875.660081
1126.218626,1378.604799,4135.814397,9573.644437
1126.218923,-536.124088,3369.922842,7582.326394
1126.219221,-3523.101153,-2833.798753,7199.380617
1126.219518,-4825.116796,-9497.055282,10339.535992
1126.219816,1225.426488,-9650.233593,11182.016703
1126.220113,8195.039638,-5973.954129,9497.055282
1126.220410,8960.931193,-995.659021,9420.466126
1126.220708,3906.046930,1531.783110,10875.660081
1126.221038,-2450.852976,1991.318043,11182.016703
1126.221335,-5437.830040,3216.744531,10109.768526
1126.221632,-9497.055282,459.534933,7735.504705
1126.221929,-11871.319102,-5514.419196,9190.698660
1126.222226,-10186.357681,-9880.001059,12713.799813
1126.222523,-229.767466,-8118.450483,11641.551636
1126.222820,8960.931193,-2680.620442,9956.590215
1126.223117,8348.217949,765.891555,10262.946837
1126.223425,4671.938485,1531.783110,10875.660081
1126.223725,-229.767466,1378.604799,10416.125148
1126.224024,-2221.085509,1991.318043,8960.931193
1126.224324,-3369.922842,-1455.193954,6816.434839
1126.224624,-4135.814397,-5973.954129,9420.466126
1126.224924,-0.000000,-8271.628794,12713.799813
1126.225224,5820.775818,-4212.403552,13709.458834
1126.225523,9420.466126,2604.031287,11641.551636
1126.225840,6893.023995,6510.078217,11335.195014
1126.226139,-1148.837332,6356.899906,12943.567279
1126.226438,-4825.116796,6969.613150,11794.729947
1126.226738,-8884.342038,5284.651729,9956.590215
1126.227037,-11105.427547,-689.302399,9726.822748
1126.227336,-9726.822748,-6127.132440,12943.567279
1126.227635,-1302.015643,-7812.093861,13249.923901
1126.227934,8348.217949,-3140.155375,11335.195014
1126.228252,11794.729947,1838.139732,9803.411904
1126.228549,7888.683016,3676.279464,10033.179370
1126.228846,2144.496354,3523.101153,10569.303459
1126.229144,-2374.263820,3369.922842,9650.233593
1126.229441,-7122.791461,1072.248177,8807.752882
1126.229739,-8731.163727,-4059.225241,8960.931193
1126.230036,-4442.171019,-5361.240885,11182.016703
1126.230334,2680.620442,-3752.868619,11488.373325
1126.230623,9114.109504,2604.031287,10416.125148
1126.230923,7582.326394,5897.364973,10262.946837
1126.231222,2680.620442,7275.969772,11258.605858
1126.231521,-842.480710,5437.830040,10109.768526
1126.231820,-3676.279464,4595.349330,8041.861327
1126.232119,-7122.791461,-689.302399,7582.326394
1126.232418,-7658.915550,-7199.380617,10569.303459
1126.232718,-3829.457775,-10033.179370,13709.458834
1126.233003,4518.760174,-6280.310751,12254.264880
1126.233305,6586.667373,-2374.263820,10416.125148
1126.233607,1684.961421,-995.659021,11718.140791
1126.233909,-1302.015643,-0.000000,11182.016703
1126.234211,-2757.209598,1991.318043,9420.466126
1126.234512,-3829.457775,612.713244,6969.613150
1126.234814,-6356.899906,-4059.225241,8501.396260
1126.235116,-2757.209598,-7046.202306,11028.838392
1126.235423,4901.705952,-5973.954129,11641.551636
1126.235719,10109.768526,-1302.015643,10262.946837
1126.236014,9114.109504,2757.209598,10262.946837
1126.236310,3752.868619,2757.209598,11182.016703
1126.236605,-842.480710,3369.922842,10416.125148
1126.236901,-4978.295107,2297.674665,9880.001059
1126.237196,-10492.714303,-2374.263820,9420.466126
1126.237492,-11258.605858,-7199.380617,10109.768526
1126.237822,-6969.613150,-9726.822748,13403.102212
1126.238121,-382.945777,-8577.985416,13249.923901
1126.238420,5208.062574,-3140.155375,11794.729947
1126.238718,5667.597507,1378.604799,10722.481770
1126.239017,3752.868619,3829.457775,10416.125148
1126.239316,-0.000000,3063.566220,9267.287815
1126.239615,-1148.837332,4595.349330,8041.861327
1126.239914,-3523.101153,612.713244,7429.148083
1126.240242,-689.302399,-2067.907198,8654.574571
1126.240538,3599.690308,-3293.333686,10722.481770
1126.240834,7275.969772,-689.302399,10875.660081
1126.241130,6280.310751,2144.496354,11641.551636
1126.241427,1531.783110,3216.744531,12713.799813
1126.241723,-1914.728887,4595.349330,11488.373325
1126.242019,-6663.256528,4135.814397,10722.481770
1126.242315,-10645.892614,1072.248177,9573.644437
1126.242603,-10339.535992,-2221.085509,9803.411904
1126.242904,-4978.295107,-5054.884263,12024.497413
1126.243205,2680.620442,-5054.884263,12407.443191
1126.243506,9650.233593,-689.302399,10645.892614
1126.243807,10109.768526,3676.279464,10262.946837
1126.244107,6739.845684,4748.527641,9650.233593
1126.244408,2680.620442,4595.349330,10033.179370
1126.244709,-2604.031287,3676.279464,10262.946837
1126.245018,-6203.721595,153.178311,9114.109504
1126.245314,-5897.364973,-4212.403552,9956.590215
1126.245609,-1914.728887,-5514.419196,11488.373325
1126.245904,4059.225241,-3906.046930,12101.086569
1126.246200,6739.845684,153.178311,11182.016703
1126.246495,5361.240885,2450.852976,10569.303459
1126.246790,1378.604799,2144.496354,10722.481770
1126.247086,-5437.830040,-229.767466,10645.892614
1126.247393,-9573.644437,-2833.798753,10262.946837
1126.247692,-9726.822748,-4825.116796,9880.001059
1126.247991,-6356.899906,-7812.093861,10339.535992
1126.248289,459.534933,-8424.807105,10952.249236
1126.248588,6127.132440,-4059.225241,11335.195014
1126.248887,8348.217949,-76.589155,9956.590215
1126.249186,7046.202306,1531.783110,9650.233593
1126.249485,2374.263820,1991.318043,9803.411904
1126.249801,-1455.193954,1531.783110,7812.093861
1126.250099,-3829.457775,-689.302399,7429.148083
1126.250397,-5437.830040,-4671.938485,9420.466126
1126.250695,-2067.907198,-6433.489062,11641.551636
1126.250992,3446.511997,-4365.581863,12560.621502
1126.251290,7888.683016,612.713244,10645.892614
1126.251588,5208.062574,3216.744531,10875.660081
1126.251885,306.356622,3523.101153,12407.443191
1126.252200,-3063.566220,4135.814397,11335.195014
1126.252499,-6969.613150,2757.209598,9803.411904
1126.252797,-10339.535992,-995.659021,10109.768526
1126.253096,-11258.605858,-5667.597507,12484.032346
1126.253395,-2757.209598,-5667.597507,12790.388968
1126.253693,5361.240885,-2833.798753,12254.264880
1126.253992,9114.109504,1072.248177,11182.016703
1126.254291,7429.148083,4595.349330,10569.303459
1126.254602,4212.403552,5591.008351,10722.481770
1126.254901,3140.155375,5897.364973,8654.574571
1126.255201,-689.302399,3063.566220,7735.504705
1126.255500,-3063.566220,-1761.550576,8807.752882
1126.255799,-1302.015643,-4671.938485,10262.946837
1126.256098,2986.977064,-4059.225241,10569.303459
1126.256397,5514.419196,-1148.837332,11488.373325
1126.256696,919.069866,-229.767466,13403.102212
1126.256996,-2757.209598,1225.426488,14015.815456
1126.257295,-3982.636086,3829.457775,10875.660081
1126.257594,-4442.171019,4748.527641,8654.574571
1126.257893,-6969.613150,919.069866,8041.861327
1126.258193,-6050.543284,-3140.155375,10722.481770
1126.258492,1991.318043,-4825.116796,10875.660081
1126.258791,8041.861327,-2986.977064,9956.590215
1126.259090,8807.752882,-1455.193954,9267.287815
1126.259397,5667.597507,-1914.728887,10416.125148
1126.259696,1225.426488,-2067.907198,11258.605858
1126.259995,-229.767466,-689.302399,8807.752882
1126.260293,-4442.171019,-2680.620442,7352.558928
1126.260592,-7658.915550,-5208.062574,8960.931193
1126.260891,-4978.295107,-6127.132440,10262.946837
1126.261189,306.356622,-5054.884263,12101.086569
1126.261488,3446.511997,-1914.728887,11488.373325
1126.261792,2374.263820,2297.674665,13249.923901
1126.262092,919.069866,4825.116796,11794.729947
1126.262392,-689.302399,5437.830040,10416.125148
1126.262693,-3676.279464,3523.101153,9573.644437
1126.262993,-6663.256528,-842.480710,9956.590215
1126.263293,-6203.721595,-5667.597507,10875.660081
1126.263594,-0.000000,-7199.380617,10416.125148
1126.263894,5514.419196,-5820.775818,11794.729947
1126.264213,10262.946837,-2986.977064,10569.303459
1126.264511,8807.752882,919.069866,10339.535992
1126.264809,4518.760174,1531.783110,10722.481770
1126.265107,-1455.193954,1991.318043,10262.946837
1126.265406,-7352.558928,1072.248177,10492.714303
1126.265704,-8884.342038,-382.945777,9956.590215
1126.266002,-6969.613150,-3293.333686,11335.195014
1126.266300,-2067.907198,-2680.620442,12560.621502
1126.266613,3446.511997,1072.248177,12177.675724
1126.266909,5667.597507,5744.186662,11182.016703
1126.267205,3906.046930,6663.256528,11182.016703
1126.267501,-689.302399,6050.543284,11105.427547
1126.267797,-2604.031287,4288.992708,9267.287815
1126.268093,-5591.008351,-0.000000,7735.504705
1126.268389,-5131.473418,-5667.597507,8118.450483
1126.268686,-2067.907198,-9037.520349,10569.303459
1126.268985,4518.760174,-8424.807105,10722.481770
1126.269286,10416.125148,-4212.403552,9956.590215
1126.269586,8195.039638,-689.302399,10416.125148
1126.269887,4518.760174,2910.387909,9650.233593
1126.270187,612.713244,4595.349330,8654.574571
1126.270488,-3523.101153,4595.349330,8654.574571
1126.270789,-7352.558928,1838.139732,9956.590215
1126.271089,-8731.163727,-1455.193954,11488.373325
1126.271396,-3982.636086,-2680.620442,12330.854035
1126.271692,2986.977064,-536.124088,12254.264880
1126.271989,4671.938485,1838.139732,12254.264880
1126.272285,2833.798753,3063.566220,11564.962480
1126.272581,306.356622,2757.209598,10416.125148
1126.272877,-689.302399,2297.674665,9267.287815
1126.273174,-4135.814397,-1608.372265,8424.807105
1126.273470,-6663.256528,-6586.667373,9114.109504
1126.273778,-3216.744531,-9497.055282,10722.481770
1126.274077,2680.620442,-9037.520349,10722.481770
1126.274375,7275.969772,-6127.132440,9880.001059
1126.274674,5054.884263,-2067.907198,10722.481770
1126.274973,1225.426488,-382.945777,11641.551636
1126.275272,-3982.636086,765.891555,12177.675724
1126.275571,-5591.008351,1531.783110,10569.303459
1126.275870,-6969.613150,1072.248177,8501.396260
1126.276187,-5897.364973,-1302.015643,9573.644437
1126.276485,-76.589155,-3752.868619,10875.660081
1126.276784,6280.310751,-1302.015643,11028.838392
1126.277082,9650.233593,2910.387909,9803.411904
1126.277380,6280.310751,4442.171019,10416.125148
1126.277679,153.178311,2757.209598,11335.195014
1126.277977,-3676.279464,1378.604799,10952.249236
1126.278276,-7122.791461,153.178311,9343.876971
1126.278593,-10492.714303,-4901.705952,9650.233593
1126.278891,-8884.342038,-9343.876971,11411.784169
1126.279189,-689.302399,-8271.628794,11718.140791
1126.279486,7275.969772,-3752.868619,10722.481770
1126.279784,8348.217949,765.891555,10875.660081
1126.280082,4365.581863,4135.814397,11641.551636
1126.280380,2297.674665,6356.899906,10416.125148
1126.280678,459.534933,8348.217949,8348.217949
1126.280978,-2910.387909,4825.116796,8041.861327
1126.281278,-6203.721595,-76.589155,9956.590215
1126.281578,-3369.922842,-3599.690308,11182.016703
1126.281878,3906.046930,-2374.263820,11564.962480
1126.282178,7582.326394,1684.961421,10875.660081
1126.282478,5361.240885,3523.101153,11182.016703
1126.282778,1531.783110,4135.814397,12254.264880
1126.283078,-2067.907198,4135.814397,11028.838392
1126.283368,-5437.830040,2910.387909,9420.466126
1126.283672,-8731.163727,-2833.798753,9803.411904
1126.283975,-8731.163727,-7965.272172,12254.264880
1126.284279,-1914.728887,-8884.342038,12560.621502
1126.284582,5667.597507,-4518.760174,10875.660081
1126.284885,9650.233593,-0.000000,9343.876971
1126.285189,4059.225241,612.713244,10875.660081
1126.285492,153.178311,1531.783110,11488.373325
1126.285800,-2450.852976,2757.209598,9573.644437
1126.286099,-5437.830040,919.069866,8041.861327
1126.286398,-6050.543284,-3446.511997,8348.217949
1126.286697,-2450.852976,-5667.597507,9420.466126
1126.286996,5667.597507,-4518.760174,10262.946837
1126.287295,8195.039638,-2680.620442,11182.016703
1126.287594,5514.419196,306.356622,11641.551636
1126.287893,1838.139732,1684.961421,10645.892614
1126.288177,-2067.907198,2144.496354,10262.946837
1126.288479,-5284.651729,765.891555,9420.466126
1126.288782,-9190.698660,-2986.977064,9573.644437
1126.289085,-8884.342038,-7352.558928,10186.357681
1126.289388,-4442.171019,-9726.822748,11641.551636
1126.289691,2374.263820,-7658.915550,11641.551636
1126.289994,5973.954129,-3293.333686,11488.373325
1126.290297,5514.419196,612.713244,11028.838392
1126.290544,3599.690308,4288.992708,10339.535992
1126.290848,1531.783110,5437.830040,9114.109504
1126.291153,-1914.728887,4825.116796,8731.163727
1126.291457,-3829.457775,459.534933,8577.985416
1126.291762,-2067.907198,-2833.798753,10722.481770
1126.292066,3140.155375,-3293.333686,11182.016703
1126.292371,8041.861327,-536.124088,10416.125148
1126.292675,6893.023995,1991.318043,11335.195014
1126.292963,1225.426488,2604.031287,13249.923901
1126.293263,-4595.349330,1991.318043,13096.745590
1126.293564,-6203.721595,2450.852976,11641.551636
1126.293864,-9190.698660,459.534933,9573.644437
1126.294164,-7812.093861,-2680.620442,9267.287815
1126.294464,-3676.279464,-3906.046930,11488.373325
1126.294764,4748.527641,-2833.798753,11105.427547
1126.295064,8654.574571,459.534933,10416.125148
1126.295378,5820.775818,3063.566220,11947.908258
1126.295677,2297.674665,3523.101153,10722.481770
1126.295975,-76.589155,3829.457775,10262.946837
1126.296274,-2374.263820,2910.387909,9267.287815
1126.296573,-3216.744531,-76.589155,7122.791461
1126.296871,-2374.263820,-2374.263820,9420.466126
1126.297170,3140.155375,-4518.760174,10262.946837
1126.297469,8041.861327,-1914.728887,10262.946837
1126.297776,8960.931193,1378.604799,10569.303459
1126.298076,3140.155375,1991.318043,11335.195014
1126.298375,-1914.728887,765.891555,10722.481770
1126.298675,-4442.171019,2297.674665,9573.644437
1126.298975,-10186.357681,-2374.263820,9803.411904
1126.299274,-11564.962480,-6586.667373,10416.125148
1126.299574,-9880.001059,-9650.233593,11641.551636
1126.299874,-536.124088,-7965.272172,10875.660081
1126.300170,6127.132440,-5208.062574,10569.303459
1126.300469,7275.969772,-689.302399,10569.303459
1126.300768,5820.775818,919.069866,10262.946837
1126.301067,2527.442131,1378.604799,10569.303459
1126.301365,612.713244,2450.852976,8501.396260
1126.301664,-1914.728887,-536.124088,7199.380617
1126.301963,-4595.349330,-6586.667373,9803.411904
1126.302262,-1914.728887,-7965.272172,12713.799813
1126.302557,4671.938485,-4901.705952,12713.799813
1126.302856,8195.039638,765.891555,11182.016703
1126.303155,4901.705952,3063.566220,11335.195014
1126.303455,-76.589155,3982.636086,12560.621502
1126.303754,-3216.744531,4748.527641,11564.962480
1126.304053,-6203.721595,3829.457775,8884.342038
1126.304352,-9497.055282,-995.659021,8960.931193
1126.304652,-10339.535992,-6433.489062,12713.799813
1126.304963,-3982.636086,-7199.380617,13556.280523
1126.305264,4748.527641,-4365.581863,11794.729947
1126.305565,8195.039638,153.178311,11105.427547
1126.305866,6127.132440,2297.674665,9956.590215
1126.306167,2833.798753,3982.636086,9650.233593
1126.306467,612.713244,4442.171019,8807.752882
1126.306768,-2374.263820,1225.426488,8041.861327
1126.307069,-4288.992708,-2374.263820,8501.396260
1126.307378,-995.659021,-4901.705952,9956.590215
1126.307673,5973.954129,-3752.868619,11182.016703
1126.307969,9497.055282,459.534933,10569.303459
1126.308264,9497.055282,5591.008351,9880.001059
1126.308559,4671.938485,6663.256528,9880.001059
1126.308855,-1608.372265,6050.543284,10722.481770
1126.309150,-7199.380617,4288.992708,10875.660081
1126.309445,-11947.908258,765.891555,10262.946837
1126.309752,-12101.086569,-3446.511997,10875.660081
1126.310055,-6816.434839,-7812.093861,13249.923901
1126.310357,-1455.193954,-7199.380617,13403.102212
1126.310659,4365.581863,-2986.977064,10875.660081
1126.310961,4518.760174,-842.480710,10262.946837
1126.311264,3906.046930,-229.767466,9956.590215
1126.311566,2144.496354,612.713244,9267.287815
1126.311868,-0.000000,-0.000000,6969.613150
1126.312184,306.356622,-2833.798753,7275.969772
1126.312483,2374.263820,-6586.667373,9420.466126
1126.312781,6893.023995,-5973.954129,9956.590215
1126.313080,10262.946837,-2221.085509,10416.125148
1126.313378,7582.326394,2450.852976,10262.946837
1126.313676,-382.945777,1991.318043,12254.264880
1126.313975,-7658.915550,765.891555,13096.745590
1126.314273,-11105.427547,459.534933,12407.443191
1126.314588,-13939.226301,-1148.837332,11182.016703
1126.314883,-12713.799813,-5208.062574,9956.590215
1126.315177,-9343.876971,-7965.272172,12254.264880
1126.315472,2297.674665,-6893.023995,12101.086569
1126.315767,9497.055282,-3293.333686,10262.946837
1126.316062,10262.946837,-842.480710,9803.411904
1126.316357,7046.202306,-382.945777,10262.946837
1126.316652,3446.511997,919.069866,9420.466126
1126.316965,1838.139732,919.069866,7429.148083
1126.317263,-229.767466,-536.124088,6816.434839
1126.317562,-2374.263820,-2986.977064,9803.411904
1126.317860,153.178311,-4518.760174,11488.373325
1126.318159,4671.938485,612.713244,11335.195014
1126.318457,6280.310751,5591.008351,10262.946837
1126.318756,1225.426488,6969.613150,11794.729947
1126.319054,-4825.116796,4595.349330,13096.745590
1126.319354,-7199.380617,4978.295107,12790.388968
1126.319654,-8731.163727,3982.636086,9956.590215
1126.319954,-9726.822748,-76.589155,9650.233593
1126.320254,-7352.558928,-5208.062574,11641.551636
1126.320554,612.713244,-6127.132440,12713.799813
1126.320854,8195.039638,-3140.155375,12101.086569
1126.321154,9650.233593,612.713244,9650.233593
1126.321454,5973.954129,1531.783110,9573.644437
1126.321761,1684.961421,765.891555,10875.660081
1126.322058,459.534933,1531.783110,9420.466126
1126.322355,-1455.193954,1684.961421,7735.504705
1126.322652,-3063.566220,-1302.015643,8577.985416
1126.322949,-689.302399,-4059.225241,11564.962480
1126.323246,4518.760174,-842.480710,11411.784169
1126.323543,7735.504705,3676.279464,10875.660081
1126.323839,3293.333686,4595.349330,11028.838392
1126.324154,-1302.015643,2604.031287,11947.908258
1126.324454,-5897.364973,1991.318043,11641.551636
1126.324754,-7812.093861,306.356622,9114.109504
1126.325054,-10033.179370,-2986.977064,8960.931193
1126.325355,-8577.985416,-9497.055282,10416.125148
1126.325655,-2757.209598,-11105.427547,11335.195014
1126.325955,4671.938485,-7965.272172,11028.838392
1126.326256,7582.326394,-4059.225241,9956.590215
1126.326574,6586.667373,-2680.620442,9803.411904
1126.326871,4059.225241,-1148.837332,9956.590215
1126.327168,1531.783110,459.534933,8960.931193
1126.327465,-1608.372265,-689.302399,7429.148083
1126.327762,-4288.992708,-3446.511997,8501.396260
1126.328059,-1608.372265,-5208.062574,9803.411904
1126.328355,3140.155375,-4825.116796,11411.784169
1126.328652,6280.310751,-0.000000,11488.373325
1126.328998,5054.884263,3369.922842,10722.481770
1126.329290,1225.426488,4135.814397,11028.838392
1126.329582,-3523.101153,2757.209598,11641.551636
1126.329874,-7199.380617,2144.496354,11182.016703
1126.330166,-10952.249236,-1302.015643,11105.427547
1126.330458,-8731.163727,-4365.581863,10645.892614
1126.330750,-1761.550576,-6586.667373,11641.551636
1126.331042,5054.884263,-4518.760174,12254.264880
1126.331341,8348.217949,-689.302399,10875.660081
1126.331642,5820.775818,919.069866,10109.768526
1126.331943,1991.318043,2757.209598,10569.303459
1126.332244,-2450.852976,2450.852976,10722.481770
1126.332545,-5744.186662,1378.604799,9573.644437
1126.332845,-6203.721595,-229.767466,9956.590215
1126.333146,-3216.744531,-3140.155375,11028.838392
1126.333447,3752.868619,-1302.015643,11105.427547
1126.333759,9497.055282,1378.604799,10262.946837
1126.334055,10262.946837,5897.364973,10722.481770
1126.334351,4901.705952,7122.791461,11028.838392
1126.334648,153.178311,5437.830040,10492.714303
1126.334944,-3829.457775,3829.457775,8807.752882
1126.335240,-8118.450483,153.178311,9343.876971
1126.335536,-8424.807105,-5054.884263,10416.125148
1126.335833,-4825.116796,-7658.915550,11028.838392
1126.336140,1531.783110,-5820.775818,12024.497413
1126.336440,5361.240885,-3140.155375,10722.481770
1126.336740,3140.155375,153.178311,10722.481770
1126.337040,306.356622,1991.318043,10875.660081
1126.337340,-3829.457775,1531.783110,10569.303459
1126.337640,-6663.256528,459.534933,9420.466126
1126.337939,-6816.434839,-1608.372265,8501.396260
1126.338239,-3369.922842,-4365.581863,9420.466126
1126.338556,2833.798753,-5054.884263,9956.590215
1126.338855,8807.752882,-2221.085509,10722.481770
1126.339154,9420.466126,1378.604799,10262.946837
1126.339454,6280.310751,2604.031287,11028.838392
1126.339753,1072.248177,2144.496354,10875.660081
1126.340052,-2374.263820,1378.604799,10262.946837
1126.340351,-5897.364973,-1608.372265,10262.946837
1126.340650,-6203.721595,-4365.581863,9573.644437
1126.340996,-1608.372265,-6586.667373,9573.644437
1126.341289,2527.442131,-7658.915550,10722.481770
1126.341583,3446.511997,-6127.132440,12866.978124
1126.341876,2680.620442,-1608.372265,12790.388968
1126.342170,1225.426488,1838.139732,11182.016703
1126.342463,-2450.852976,3063.566220,10262.946837
1126.342756,-6969.613150,3216.744531,10109.768526
1126.343050,-9037.520349,1225.426488,9803.411904
1126.343363,-6816.434839,-842.480710,10875.660081
1126.343659,-1148.837332,-3599.690308,11182.016703
1126.343954,4748.527641,-2221.085509,11641.551636
1126.344250,9267.287815,1838.139732,10569.303459
1126.344546,8501.396260,4825.116796,9650.233593
1126.344842,3599.690308,3829.457775,10416.125148
1126.345138,-536.124088,2910.387909,10722.481770
1126.345434,-4442.171019,459.534933,9573.644437
1126.345747,-5284.651729,-2680.620442,8807.752882
1126.346046,-2604.031287,-5973.954129,9420.466126
1126.346345,2144.496354,-5820.775818,11105.427547
1126.346643,4748.527641,-2374.263820,11488.373325
1126.346942,4212.403552,1378.604799,11488.373325
1126.347241,153.178311,3676.279464,11335.195014
1126.347540,-4135.814397,3676.279464,11335.195014
1126.347838,-6663.256528,3369.922842,10722.481770
1126.348145,-6203.721595,1378.604799,9267.287815
1126.348445,-4595.349330,-1761.550576,9267.287815
1126.348745,1684.961421,-2986.977064,9803.411904
1126.349045,7122.791461,-2527.442131,10722.481770
1126.349345,9267.287815,153.178311,11028.838392
1126.349644,7046.202306,2450.852976,11028.838392
1126.349944,1225.426488,2144.496354,11488.373325
1126.350244,-2910.387909,765.891555,9650.233593
1126.350542,-5897.364973,-842.480710,8960.931193
1126.350841,-7199.380617,-3906.046930,9803.411904
1126.351141,-6050.543284,-8118.450483,9803.411904
1126.351440,-1608.372265,-9726.822748,11641.551636
1126.351740,3752.868619,-6433.489062,12101.086569
1126.352040,5667.597507,-1608.372265,10492.714303
1126.352339,2680.620442,459.534933,11335.195014
1126.352639,-842.480710,2297.674665,11105.427547
1126.352931,-2450.852976,2450.852976,9037.520349
1126.353233,-3216.744531,1072.248177,7735.504705
1126.353534,-4442.171019,-4518.760174,9267.287815
1126.353835,-1302.015643,-7812.093861,10262.946837
1126.354136,5208.062574,-5973.954129,11335.195014
1126.354437,9650.233593,-1148.837332,9803.411904
1126.354738,8501.396260,1072.248177,9956.590215
1126.355040,2297.674665,2450.852976,11182.016703
1126.355328,-2604.031287,2910.387909,10952.249236
1126.355629,-6050.543284,1684.961421,10416.125148
1126.355929,-6203.721595,306.356622,8884.342038
1126.356230,-4748.527641,-1914.728887,9497.055282
1126.356531,-995.659021,-4212.403552,11028.838392
1126.356832,3293.333686,-2680.620442,12407.443191
1126.357133,5361.240885,612.713244,11488.373325
1126.357433,1838.139732,2604.031287,11794.729947
1126.357719,-3216.744531,3216.744531,12560.621502
1126.358019,-5284.651729,2910.387909,11028.838392
1126.358318,-6816.434839,1531.783110,9956.590215
1126.358618,-6050.543284,-689.302399,9726.822748
1126.358917,-1914.728887,-2221.085509,11028.838392
1126.359216,3906.046930,-1302.015643,11182.016703
1126.359516,7888.683016,612.713244,10722.481770
1126.359815,7046.202306,3676.279464,11028.838392
1126.360122,5054.884263,5437.830040,11182.016703
1126.360421,2527.442131,4978.295107,10262.946837
1126.360719,-689.302399,3063.566220,9803.411904
1126.361018,-3982.636086,-0.000000,9573.644437
1126.361316,-3063.566220,-2527.442131,9420.466126
1126.361614,-1455.193954,-5054.884263,10262.946837
1126.361913,1838.139732,-5820.775818,12101.086569
1126.362211,2297.674665,-2986.977064,11947.908258
1126.362527,919.069866,-229.767466,11794.729947
1126.362825,-2221.085509,1072.248177,10569.303459
1126.363123,-3523.101153,153.178311,10722.481770
1126.363421,-4978.295107,-689.302399,9880.001059
1126.363718,-5131.473418,-2374.263820,8041.861327
1126.364016,-2604.031287,-3752.868619,9114.109504
1126.364314,1531.783110,-4365.581863,9573.644437
1126.364611,7582.326394,-2833.798753,10109.768526
1126.364926,7046.202306,153.178311,10645.892614
1126.365224,2986.977064,1378.604799,11182.016703
1126.365523,-382.945777,1378.604799,10722.481770
1126.365822,-2604.031287,-0.000000,9267.287815
1126.366120,-3216.744531,-2986.977064,8654.574571
1126.366419,-4442.171019,-5208.062574,9114.109504
1126.366718,-2450.852976,-7352.558928,9726.822748
1126.367017,3446.511997,-6893.023995,10492.714303
1126.367328,7582.326394,-2986.977064,10875.660081
1126.367627,5667.597507,-0.000000,11488.373325
1126.367926,459.534933,1684.961421,11335.195014
1126.368226,-3369.922842,1991.318043,11105.427547
1126.368525,-5437.830040,1991.318043,9803.411904
1126.368824,-5897.364973,612.713244,8195.039638
1126.369123,-6203.721595,-1761.550576,10109.768526
1126.369422,-2374.263820,-4518.760174,12407.443191
1126.369722,1684.961421,-4365.581863,13096.745590
1126.370021,5514.419196,-229.767466,11488.373325
1126.370320,5514.419196,3369.922842,9956.590215
1126.370619,2144.496354,4288.992708,10262.946837
1126.370919,-2221.085509,3063.566220,10109.768526
1126.371218,-4595.349330,2910.387909,9803.411904
1126.371517,-5897.364973,-536.124088,9803.411904
1126.371816,-3369.922842,-4518.760174,11488.373325
1126.372123,-76.589155,-6127.132440,11641.551636
1126.372423,4748.527641,-2833.798753,11947.908258
1126.372722,5054.884263,919.069866,11794.729947
1126.373021,3906.046930,4288.992708,10109.768526
1126.373320,1378.604799,4135.814397,11028.838392
1126.373620,-2374.263820,3982.636086,9956.590215
1126.373919,-4288.992708,3523.101153,8501.396260
1126.374218,-4288.992708,459.534933,9114.109504
1126.374539,-1302.015643,-2221.085509,9726.822748
1126.374836,2986.977064,-3752.868619,11182.016703
1126.375133,6280.310751,-0.000000,10569.303459
1126.375430,5054.884263,765.891555,10416.125148
1126.375727,1072.248177,-0.000000,11028.838392
1126.376024,-1455.193954,-536.124088,10262.946837
1126.376321,-2757.209598,-689.302399,8960.931193
1126.376618,-4825.116796,-3752.868619,7888.683016
1126.376936,-5284.651729,-5514.419196,9803.411904
1126.377235,-1761.550576,-7658.915550,11641.551636
1126.377533,2374.263820,-6280.310751,11641.551636
1126.377831,4365.581863,-1914.728887,11641.551636
1126.378129,3446.511997,919.069866,10569.303459
1126.378428,459.534933,2450.852976,9956.590215
1126.378726,-2374.263820,2144.496354,9114.109504
1126.379024,-4978.295107,612.713244,9573.644437
1126.379337,-5897.364973,-1608.372265,9880.001059
1126.379633,-1761.550576,-4212.403552,9956.590215
1126.379929,4365.581863,-4825.116796,10875.660081
1126.380225,8348.217949,-2680.620442,10722.481770
1126.380521,7582.326394,1072.248177,10492.714303
1126.380817,4059.225241,2910.387909,10186.357681
1126.381113,-2221.085509,459.534933,11335.195014
1126.381409,-6356.899906,-995.659021,11182.016703
1126.381709,-8731.163727,-2986.977064,10262.946837
1126.382009,-7199.380617,-4365.581863,9803.411904
1126.382310,-2450.852976,-5820.775818,10722.481770
1126.382611,2144.496354,-3906.046930,12943.567279
1126.382912,7122.791461,153.178311,11028.838392
1126.383212,4059.225241,3676.279464,11028.838392
1126.383513,-536.124088,4825.116796,11335.195014
1126.383814,-4442.171019,3369.922842,10416.125148
1126.384121,-5284.651729,2757.209598,9956.590215
1126.384417,-4978.295107,765.891555,9650.233593
1126.384713,-1608.372265,-1302.015643,9573.644437
1126.385010,4518.760174,-1608.372265,9267.287815
1126.385306,8654.574571,-842.480710,10722.481770
1126.385602,8501.396260,1225.426488,11335.195014
1126.385898,3446.511997,2910.387909,11335.195014
1126.386195,-536.124088,2757.209598,11028.838392
1126.386503,-3063.566220,1684.961421,9956.590215
1126.386804,-6816.434839,-76.589155,9497.055282
1126.387106,-5744.186662,-1761.550576,9956.590215
1126.387408,-3216.744531,-3599.690308,10569.303459
1126.387710,3293.333686,-3140.155375,10416.125148
1126.388012,5208.062574,-76.589155,10569.303459
1126.388314,3599.690308,1684.961421,10262.946837
1126.388615,-3063.566220,-229.767466,12407.443191
1126.388934,-5437.830040,-536.124088,13096.745590
1126.389229,-6510.078217,-995.659021,9573.644437
1126.389524,-5131.473418,-2833.798753,7582.326394
1126.389820,-2374.263820,-4365.581863,8654.574571
1126.390115,3599.690308,-4901.705952,10109.768526
1126.390410,9956.590215,-2374.263820,10569.303459
1126.390705,9803.411904,-0.000000,10262.946837
1126.391000,5820.775818,-0.000000,10109.768526
1126.391318,-689.302399,-1302.015643,11258.605858
1126.391615,-3523.101153,-842.480710,10339.535992
1126.391913,-5131.473418,-1761.550576,9267.287815
1126.392211,-6510.078217,-4059.225241,9343.876971
1126.392509,-4288.992708,-4901.705952,9956.590215
1126.392806,-0.000000,-4365.581863,11182.016703
1126.393104,4059.225241,-1148.837332,13096.745590
1126.393402,2986.977064,919.069866,11947.908258
1126.393702,765.891555,4595.349330,11335.195014
1126.394002,-2067.907198,4135.814397,11105.427547
1126.394302,-3676.279464,3063.566220,9497.055282
1126.394602,-3369.922842,306.356622,9267.287815
1126.394902,-3523.101153,-2986.977064,9650.233593
1126.395202,765.891555,-4901.705952,11335.195014
1126.395502,5973.954129,-2680.620442,11411.784169
1126.395802,8041.861327,1991.318043,11335.195014
1126.396092,5667.597507,4442.171019,11488.373325
1126.396396,2297.674665,6510.078217,10569.303459
1126.396699,-1148.837332,4825.116796,9956.590215
1126.397003,-5284.651729,1838.139732,9114.109504
1126.397306,-9190.698660,-1302.015643,10339.535992
1126.397609,-5897.364973,-4059.225241,11028.838392
1126.397913,1378.604799,-4518.760174,11335.195014
1126.398216,6280.310751,-1761.550576,12713.799813
1126.398524,6280.310751,2757.209598,11335.195014
1126.398824,1838.139732,3829.457775,10339.535992
1126.399124,-1608.372265,2450.852976,10875.660081
1126.399424,-4595.349330,1838.139732,10722.481770
1126.399724,-7199.380617,-995.659021,10109.768526
1126.400023,-6663.256528,-2680.620442,9420.466126
1126.400323,-76.589155,-3599.690308,9037.520349
1126.400623,5973.954129,-4671.938485,9956.590215
1126.400906,8041.861327,-2374.263820,11182.016703
1126.401209,6893.023995,306.356622,10492.714303
1126.401512,3446.511997,1991.318043,9803.411904
1126.401815,-76.589155,612.713244,9573.644437
1126.402118,-3676.279464,-382.945777,9114.109504
1126.402421,-6203.721595,-3752.868619,9343.876971
1126.402723,-6203.721595,-5973.954129,9880.001059
1126.403026,-1761.550576,-7812.093861,10416.125148
1126.403308,1991.318043,-6433.489062,12254.264880
1126.403604,3140.155375,-2986.977064,11488.373325
1126.403900,459.534933,-842.480710,12254.264880
1126.404197,-1761.550576,459.534933,11641.551636
1126.404493,-3829.457775,1072.248177,10569.303459
1126.404789,-3523.101153,1072.248177,8807.752882
1126.405085,-2450.852976,-76.589155,7735.504705
1126.405381,2297.674665,-2833.798753,9114.109504
1126.405693,6893.023995,-2833.798753,10109.768526
1126.405992,9267.287815,-229.767466,9803.411904
1126.406292,7046.202306,1838.139732,9956.590215
1126.406591,-689.302399,765.891555,13096.745590
1126.406890,-6050.543284,-842.480710,13709.458834
1126.407189,-8271.628794,-229.767466,10875.660081
1126.407488,-7199.380617,-1608.372265,9190.698660
1126.407787,-5437.830040,-3906.046930,7965.272172
1126.408101,-1302.015643,-4901.705952,10569.303459
1126.408399,4365.581863,-3293.333686,11641.551636
1126.408697,7275.969772,-689.302399,12407.443191
1126.408994,3293.333686,1225.426488,12560.621502
1126.409292,-0.000000,2604.031287,10875.660081
1126.409590,-3063.566220,2450.852976,11335.195014
1126.409888,-3523.101153,2604.031287,9803.411904
1126.410186,-2221.085509,1225.426488,8960.931193
1126.410493,459.534933,612.713244,9267.287815
1126.410792,4059.225241,153.178311,9956.590215
1126.411091,7046.202306,1991.318043,11488.373325
1126.411390,6127.132440,4748.527641,10722.481770
1126.411689,2297.674665,5591.008351,11028.838392
1126.411988,-2604.031287,3523.101153,11335.195014
1126.412287,-6203.721595,765.891555,10569.303459
1126.412585,-6203.721595,-2986.977064,9956.590215
1126.412882,-3523.101153,-4901.705952,9650.233593
1126.413185,-0.000000,-6893.023995,10262.946837
1126.413488,4212.403552,-6739.845684,10569.303459
1126.413791,6280.310751,-2833.798753,10722.481770
1126.414093,4365.581863,-0.000000,10952.249236
1126.414396,-1302.015643,153.178311,11182.016703
1126.414699,-6510.078217,612.713244,12330.854035
1126.415002,-6050.543284,612.713244,9650.233593
1126.415297,-2757.209598,765.891555,6969.613150
1126.415594,-689.302399,-1302.015643,7888.683016
1126.415891,2986.977064,-2680.620442,10569.303459
1126.416187,6739.845684,-1302.015643,11718.140791
1126.416484,8348.217949,2144.496354,9956.590215
1126.416781,3906.046930,2450.852976,10645.892614
1126.417078,-2221.085509,306.356622,11335.195014
1126.417375,-4978.295107,-842.480710,10569.303459
1126.417686,-6050.543284,-3140.155375,9573.644437
1126.417987,-7199.380617,-7046.202306,9803.411904
1126.418288,-4978.295107,-10033.179370,10722.481770
1126.418589,765.891555,-8577.985416,11488.373325
1126.418889,5973.954129,-3906.046930,10875.660081
1126.419190,4748.527641,153.178311,11105.427547
1126.419491,459.534933,2757.209598,11488.373325
1126.419792,-2757.209598,3982.636086,10722.481770
1126.420101,-5131.473418,4135.814397,10262.946837
1126.420396,-5131.473418,1531.783110,9650.233593
1126.420691,-3523.101153,-1608.372265,9037.520349
1126.420987,2986.977064,-842.480710,9573.644437
1126.421282,7582.326394,-995.659021,10569.303459
1126.421577,8807.752882,1378.604799,10416.125148
1126.421873,7046.202306,3216.744531,10952.249236
1126.422168,-229.767466,1072.248177,10875.660081
1126.422475,-4825.116796,-0.000000,10875.660081
1126.422777,-8424.807105,-1761.550576,10569.303459
1126.423080,-9497.055282,-4671.938485,9037.520349
1126.423382,-5897.364973,-6127.132440,11182.016703
1126.423684,306.356622,-5208.062574,12407.443191
1126.423986,6586.667373,-76.589155,11335.195014
1126.424289,7888.683016,4288.992708,10109.768526
1126.424591,2986.977064,5744.186662,10262.946837
1126.424907,-1148.837332,5897.364973,10262.946837
1126.425206,-4978.295107,4748.527641,10722.481770
1126.425504,-8731.163727,153.178311,10875.660081
1126.425802,-6356.899906,-3293.333686,10569.303459
1126.426101,-0.000000,-4212.403552,9803.411904
1126.426399,8501.396260,-4671.938485,9114.109504
1126.426698,11871.319102,-1761.550576,9497.055282
1126.426996,9420.466126,1225.426488,10722.481770
1126.427265,4059.225241,1991.318043,10109.768526
1126.427566,-1302.015643,612.713244,10262.946837
1126.427868,-6816.434839,-689.302399,10186.357681
1126.428169,-10799.070925,-3906.046930,9803.411904
1126.428471,-9573.644437,-5208.062574,9726.822748
1126.428772,-3982.636086,-6433.489062,10722.481770
1126.429073,2374.263820,-4518.760174,11564.962480
1126.429375,5054.884263,-689.302399,12177.675724
1126.429688,2833.798753,2604.031287,11947.908258
1126.429986,919.069866,4135.814397,10645.892614
1126.430285,-2374.263820,2910.387909,9650.233593
1126.430583,-5437.830040,612.713244,9420.466126
1126.430882,-4288.992708,-2374.263820,8807.752882
1126.431180,-1148.837332,-5667.597507,9650.233593
1126.431479,5361.240885,-5667.597507,10416.125148
1126.431777,9803.411904,-3140.155375,10492.714303
1126.432077,8960.931193,1072.248177,10416.125148
1126.432376,4212.403552,3063.566220,10875.660081
1126.432675,-2067.907198,3216.744531,12101.086569
1126.432975,-5131.473418,3063.566220,10339.535992
1126.433274,-6816.434839,1531.783110,8960.931193
1126.433573,-7199.380617,-2221.085509,8884.342038
1126.433872,-4135.814397,-4901.705952,11411.784169
1126.434172,765.891555,-5054.884263,13249.923901
1126.434479,5208.062574,-1608.372265,12560.621502
1126.434781,3293.333686,1378.604799,11718.140791
1126.435084,-1761.550576,1838.139732,11488.373325
1126.435386,-4748.527641,2910.387909,11028.838392
1126.435689,-6050.543284,2910.387909,10109.768526
1126.435991,-5591.008351,-229.767466,9573.644437
1126.436294,-2067.907198,-3599.690308,9650.233593
1126.436597,5667.597507,-2527.442131,9573.644437
1126.436865,12177.675724,-229.767466,9803.411904
1126.437167,13249.923901,2910.387909,9650.233593
1126.437469,8348.217949,4288.992708,10875.660081
1126.437771,2297.674665,4748.527641,10109.768526
1126.438072,-3216.744531,3063.566220,9803.411904
1126.438374,-9573.644437,-689.302399,10339.535992
1126.438676,-10799.070925,-3599.690308,10875.660081
1126.438978,-7505.737239,-5667.597507,11488.373325
1126.439296,-1761.550576,-5361.240885,10875.660081
1126.439593,2144.496354,-2986.977064,11794.729947
1126.439890,459.534933,-689.302399,12254.264880
1126.440187,-536.124088,765.891555,11335.195014
1126.440484,-1302.015643,612.713244,10722.481770
1126.440780,-3676.279464,-382.945777,9420.466126
1126.441077,-3216.744531,-1455.193954,7812.093861
1126.441374,459.534933,-3906.046930,8041.861327
1126.441691,6739.845684,-4901.705952,9267.287815
1126.441987,11871.319102,-1914.728887,9880.001059
1126.442282,11028.838392,1991.318043,9573.644437
1126.442577,6893.023995,4288.992708,9650.233593
1126.442873,459.534933,3676.279464,10262.946837
1126.443168,-5897.364973,1531.783110,11182.016703
1126.443463,-12254.264880,-3140.155375,10875.660081
1126.443758,-14628.528700,-7199.380617,12407.443191
1126.444058,-9880.001059,-9190.698660,12790.388968
1126.444358,153.178311,-7505.737239,10262.946837
1126.444658,5667.597507,-4059.225241,11182.016703
1126.444958,7429.148083,612.713244,11794.729947
1126.445258,5054.884263,3369.922842,10109.768526
1126.445558,1072.248177,3216.744531,9880.001059
1126.445859,-3523.101153,2297.674665,10569.303459
1126.446159,-5744.186662,-995.659021,9956.590215
1126.446466,-3216.744531,-2527.442131,8807.752882
1126.446766,2297.674665,-3140.155375,9267.287815
1126.447066,5973.954129,-2680.620442,10722.481770
1126.447366,7735.504705,1378.604799,12101.086569
1126.447667,6433.489062,4978.295107,11335.195014
1126.447967,1684.961421,6510.078217,10722.481770
1126.448267,-4442.171019,5744.186662,12101.086569
1126.448567,-8577.985416,3216.744531,10109.768526
1126.448875,-8577.985416,-0.000000,9573.644437
1126.449172,-7658.915550,-4059.225241,11641.551636
1126.449468,-1302.015643,-6433.489062,11488.373325
1126.449765,5208.062574,-3906.046930,11411.784169
1126.450061,8501.396260,-229.767466,9803.411904
1126.450358,5514.419196,765.891555,9956.590215
1126.450654,-382.945777,765.891555,11794.729947
1126.450951,-2067.907198,1838.139732,9956.590215
1126.451268,-2604.031287,1225.426488,8501.396260
1126.451570,-1761.550576,-229.767466,8195.039638
1126.451873,612.713244,-2374.263820,9420.466126
1126.452175,4901.705952,-2067.907198,10262.946837
1126.452478,7429.148083,612.713244,10492.714303
1126.452780,4365.581863,3063.566220,11182.016703
1126.453083,-1761.550576,3063.566220,11488.373325
1126.453385,-6356.899906,2757.209598,11641.551636
1126.453657,-7658.915550,1684.961421,10569.303459
1126.453961,-8731.163727,-995.659021,9497.055282
1126.454264,-8271.628794,-5973.954129,10569.303459
1126.454567,-2067.907198,-7658.915550,10875.660081
1126.454870,4748.527641,-6127.132440,11182.016703
1126.455173,9497.055282,-2986.977064,9650.233593
1126.455476,7275.969772,-229.767466,10416.125148
1126.455779,2680.620442,-229.767466,10262.946837
1126.456069,-2067.907198,-1148.837332,10262.946837
1126.456368,-3982.636086,-2221.085509,10262.946837
1126.456667,-5284.651729,-4671.938485,9880.001059
1126.456967,-1914.728887,-5973.954129,10416.125148
1126.457266,4059.225241,-3446.511997,9420.466126
1126.457565,7582.326394,153.178311,10262.946837
1126.457864,5208.062574,3063.566220,11335.195014
1126.458163,306.356622,4978.295107,12101.086569
1126.458449,-3676.279464,4135.814397,11947.908258
1126.458748,-5437.830040,1991.318043,9956.590215
1126.459048,-7965.272172,-1455.193954,9573.644437
1126.459347,-6203.721595,-3906.046930,9956.590215
1126.459646,-536.124088,-6433.489062,10262.946837
1126.459946,4748.527641,-6280.310751,11028.838392
1126.460245,8195.039638,-2374.263820,11182.016703
1126.460545,5361.240885,1072.248177,10262.946837
1126.460852,1991.318043,2604.031287,9114.109504
1126.461152,-2910.387909,1225.426488,10722.481770
1126.461452,-7122.791461,459.534933,10952.249236
1126.461752,-8884.342038,-1455.193954,11182.016703
1126.462052,-5284.651729,-1914.728887,11028.838392
1126.462352,2527.442131,-1608.372265,10109.768526
1126.462652,8041.861327,1072.248177,10569.303459
1126.462952,10722.481770,6663.256528,9956.590215
1126.463249,7582.326394,8654.574571,9803.411904
1126.463549,2297.674665,7122.791461,9956.590215
1126.463849,-4288.992708,3369.922842,11028.838392
1126.464150,-8577.985416,-1148.837332,11718.140791
1126.464450,-8731.163727,-4901.705952,10186.357681
1126.464750,-3982.636086,-8424.807105,10875.660081
1126.465051,2680.620442,-7658.915550,10262.946837
1126.465351,4901.705952,-4518.760174,11182.016703
1126.465678,3446.511997,-995.659021,11794.729947
1126.465974,-995.659021,765.891555,11028.838392
1126.466269,-3676.279464,2297.674665,11182.016703
1126.466565,-5437.830040,1991.318043,10262.946837
1126.466860,-6203.721595,1378.604799,8041.861327
1126.467156,-3369.922842,-1914.728887,9420.466126
1126.467451,4365.581863,-2680.620442,10109.768526
1126.467747,11335.195014,-2067.907198,9803.411904
1126.468058,12024.497413,612.713244,9803.411904
1126.468356,7046.202306,2757.209598,9497.055282
1126.468653,-536.124088,306.356622,11028.838392
1126.468951,-5131.473418,-1914.728887,11488.373325
1126.469248,-9573.644437,-3599.690308,10569.303459
1126.469545,-10952.249236,-5973.954129,9803.411904
1126.469843,-7658.915550,-7965.272172,10875.660081
1126.470140,-689.302399,-7505.737239,11258.605858
1126.470449,6127.132440,-3906.046930,11488.373325
1126.470749,5514.419196,765.891555,11335.195014
1126.471048,2680.620442,4288.992708,10416.125148
1126.471348,-382.945777,4595.349330,11028.838392
1126.471647,-3982.636086,3829.457775,10416.125148
1126.471946,-5744.186662,306.356622,9114.109504
1126.472246,-3982.636086,-2067.907198,9956.590215
1126.472545,2527.442131,-4059.225241,9650.233593
1126.472852,9420.466126,-4212.403552,9114.109504
1126.473150,10262.946837,-1148.837332,10262.946837
1126.473448,6127.132440,765.891555,11718.140791
1126.473747,306.356622,1531.783110,11641.551636
1126.474045,-3829.457775,1838.139732,11641.551636
1126.474343,-7965.272172,1531.783110,10262.946837
1126.474641,-9880.001059,-1302.015643,9650.233593
1126.474939,-8577.985416,-4365.581863,11182.016703
1126.475255,-536.124088,-4365.581863,11641.551636
1126.475554,5361.240885,-1302.015643,11641.551636
1126.475852,6127.132440,2450.852976,11258.605858
1126.476151,2986.977064,4595.349330,10569.303459
1126.476449,-689.302399,5437.830040,11182.016703
1126.476748,-4135.814397,3369.922842,10033.179370
1126.477046,-5591.008351,-76.589155,8195.039638
1126.477344,-3982.636086,-3293.333686,9343.876971
1126.477659,2297.674665,-6433.489062,9420.466126
1126.477957,9497.055282,-5208.062574,9573.644437
1126.478256,13249.923901,-2374.263820,9956.590215
1126.478555,9650.233593,1991.318043,10109.768526
1126.478854,2833.798753,3369.922842,9650.233593
1126.479152,-5131.473418,3369.922842,10492.714303
1126.479451,-11411.784169,1072.248177,11947.908258
1126.479750,-14781.707011,-2527.442131,11794.729947
1126.480038,-12407.443191,-5361.240885,11641.551636
1126.480338,-3982.636086,-5667.597507,10186.357681
1126.480638,4059.225241,-3752.868619,11028.838392
1126.480938,8195.039638,-0.000000,10492.714303
1126.481238,7046.202306,2757.209598,9650.233593
1126.481538,1684.961421,1991.318043,11182.016703
1126.481838,-1608.372265,612.713244,10109.768526
1126.482138,-3829.457775,-1914.728887,9114.109504
1126.482438,-2374.263820,-4901.705952,8654.574571
1126.482737,1072.248177,-7046.202306,9114.109504
1126.483036,7429.148083,-6127.132440,10186.357681
1126.483335,11028.838392,-1761.550576,10722.481770
1126.483635,7275.969772,1838.139732,11182.016703
1126.483934,153.178311,4135.814397,12254.264880
1126.484233,-7658.915550,4288.992708,13249.923901
1126.484532,-10799.070925,4978.295107,11182.016703
1126.484839,-11411.784169,3216.744531,9650.233593
1126.485139,-10033.179370,-1148.837332,10569.303459
1126.485438,-3523.101153,-4825.116796,11488.373325
1126.485737,3752.868619,-5054.884263,12407.443191
1126.486036,10109.768526,-1302.015643,10875.660081
1126.486336,8195.039638,765.891555,9420.466126
1126.486635,2986.977064,1225.426488,10109.768526
1126.486934,-2221.085509,919.069866,10722.481770
1126.487255,-4748.527641,-995.659021,9343.876971
1126.487552,-4595.349330,-2067.907198,8807.752882
1126.487849,-2450.852976,-4671.938485,9420.466126
1126.488146,4365.581863,-4212.403552,10109.768526
1126.488443,9956.590215,-536.124088,10645.892614
1126.488740,9114.109504,4288.992708,10875.660081
1126.489037,3906.046930,7429.148083,11105.427547
1126.489334,-3676.279464,8041.861327,11641.551636
1126.489653,-8118.450483,6969.613150,10416.125148
1126.489951,-11105.427547,3676.279464,10875.660081
1126.490249,-11258.605858,-1914.728887,10875.660081
1126.490547,-4825.116796,-6433.489062,10722.481770
1126.490845,3446.511997,-6739.845684,10875.660081
1126.491144,8960.931193,-4365.581863,10492.714303
1126.491442,7735.504705,-1761.550576,10109.768526
1126.491740,3293.333686,-995.659021,9956.590215
1126.492053,-1914.728887,-689.302399,10952.249236
1126.492349,-4978.295107,-1455.193954,10262.946837
1126.492645,-6050.543284,-2067.907198,8424.807105
1126.492941,-3369.922842,-3752.868619,8118.450483
1126.493237,2986.977064,-5208.062574,10262.946837
1126.493533,8348.217949,-2986.977064,10799.070925
1126.493829,9803.411904,2450.852976,10109.768526
1126.494125,3599.690308,3523.101153,10722.481770
1126.494425,-3829.457775,3982.636086,11794.729947
1126.494725,-7505.737239,2604.031287,12407.443191
1126.495025,-10186.357681,-229.767466,10109.768526
1126.495325,-9573.644437,-3599.690308,9956.590215
1126.495625,-4978.295107,-7046.202306,10109.768526
1126.495925,4748.527641,-7965.272172,10416.125148
1126.496225,11335.195014,-5820.775818,11028.838392
1126.496525,11335.195014,-1455.193954,10109.768526
1126.496832,5054.884263,153.178311,9650.233593
1126.497133,-995.659021,1225.426488,9956.590215
1126.497434,-7122.791461,153.178311,10722.481770
1126.497735,-10645.892614,-2833.798753,11794.729947
1126.498035,-9573.644437,-3752.868619,10645.892614
1126.498336,306.356622,-2680.620442,9497.055282
1126.498637,8960.931193,-689.302399,8654.574571
1126.498938,10875.660081,2604.031287,10645.892614
1126.499218,7275.969772,5131.473418,11411.784169
1126.499523,1684.961421,5897.364973,11182.016703
1126.499829,-3063.566220,4825.116796,11411.784169
1126.500134,-8271.628794,1378.604799,10416.125148
1126.500439,-11258.605858,-1914.728887,10262.946837
1126.500744,-7199.380617,-6433.489062,10645.892614
1126.501049,1684.961421,-7199.380617,10875.660081
1126.501355,8654.574571,-4825.116796,10262.946837
1126.501656,8501.396260,-1302.015643,11641.551636
1126.501951,4212.403552,1991.318043,11488.373325
1126.502247,459.534933,4748.527641,11182.016703
1126.502542,-3523.101153,4442.171019,10569.303459
1126.502837,-6816.434839,4288.992708,9726.822748
1126.503132,-6969.613150,1072.248177,8807.752882
1126.503427,-842.480710,-1148.837332,9114.109504
1126.503722,5208.062574,-3140.155375,10722.481770
1126.504039,8807.752882,-842.480710,10799.070925
1126.504337,7275.969772,1991.318043,10569.303459
1126.504635,2680.620442,1531.783110,9803.411904
1126.504933,-3523.101153,1531.783110,11335.195014
1126.505230,-8731.163727,-1148.837332,11258.605858
1126.505528,-10033.179370,-4059.225241,9956.590215
1126.505826,-5437.830040,-5667.597507,8654.574571
1126.506124,612.713244,-7199.380617,9267.287815
1126.506424,6739.845684,-7658.915550,9956.590215
1126.506724,8348.217949,-3906.046930,11335.195014
1126.507024,4901.705952,153.178311,11488.373325
1126.507324,-382.945777,765.891555,12101.086569
1126.507624,-4595.349330,3063.566220,10416.125148
1126.507924,-7199.380617,3982.636086,9573.644437
1126.508224,-6816.434839,1225.426488,8501.396260
1126.508524,-3063.566220,-2527.442131,9726.822748
1126.508814,4901.705952,-3599.690308,10262.946837
1126.509117,11182.016703,-1761.550576,9573.644437
1126.509420,9114.109504,-536.124088,10569.303459
1126.509722,4212.403552,-382.945777,11488.373325
1126.510025,-1914.728887,-76.589155,12790.388968
1126.510328,-6510.078217,-0.000000,11335.195014
1126.510630,-9190.698660,-2067.907198,9420.466126
1126.510933,-8577.985416,-4059.225241,9573.644437
1126.511241,-3216.744531,-6586.667373,10645.892614
1126.511541,4365.581863,-5208.062574,11182.016703
1126.511840,7735.504705,-229.767466,11182.016703
1126.512140,4671.938485,2450.852976,11718.140791
1126.512440,-229.767466,4595.349330,11794.729947
1126.512740,-4442.171019,6050.543284,11947.908258
1126.513040,-6203.721595,5284.651729,10109.768526
1126.513339,-5284.651729,3216.744531,8041.861327
1126.513623,-3216.744531,-689.302399,9267.287815
1126.513926,5361.240885,-3446.511997,9573.644437
1126.514229,11488.373325,-3752.868619,9880.001059
1126.514531,11488.373325,-382.945777,11335.195014
1126.514834,6127.132440,1225.426488,10416.125148
1126.515137,306.356622,2144.496354,10262.946837
1126.515440,-4135.814397,3216.744531,9803.411904
1126.515743,-9573.644437,-1455.193954,10033.179370
1126.516058,-12254.264880,-4671.938485,11794.729947
1126.516355,-7658.915550,-5361.240885,12177.675724
1126.516652,3140.155375,-3906.046930,9726.822748
1126.516949,8041.861327,-1148.837332,10262.946837
1126.517247,5361.240885,2144.496354,10875.660081
1126.517544,1838.139732,3216.744531,10722.481770
1126.517841,-3216.744531,3829.457775,11182.016703
1126.518138,-7199.380617,1378.604799,10262.946837
1126.518428,-9573.644437,-2374.263820,9420.466126
1126.518725,-6356.899906,-4825.116796,9956.590215
1126.519021,2680.620442,-7046.202306,9803.411904
1126.519318,11028.838392,-5514.419196,9956.590215
1126.519615,12484.032346,-995.659021,10109.768526
1126.519912,8807.752882,1531.783110,9573.644437
1126.520208,1684.961421,1838.139732,10722.481770
1126.520505,-5437.830040,612.713244,11718.140791
1126.520814,-10033.179370,-689.302399,11182.016703
1126.521113,-9880.001059,-1608.372265,9803.411904
1126.521411,-6203.721595,-4518.760174,9650.233593
1126.521710,1684.961421,-5667.597507,10952.249236
1126.522008,8654.574571,-2833.798753,11335.195014
1126.522307,9420.466126,765.891555,9956.590215
1126.522605,3446.511997,612.713244,11794.729947
1126.522904,-4595.349330,459.534933,12943.567279
1126.523211,-7658.915550,1991.318043,11182.016703
1126.523510,-8271.628794,612.713244,10569.303459
1126.523810,-7352.558928,-2680.620442,8960.931193
1126.524110,-229.767466,-4671.938485,9956.590215
1126.524409,8041.861327,-3293.333686,10109.768526
1126.524709,13249.923901,459.534933,9267.287815
1126.525009,9267.287815,3063.566220,9880.001059
1126.525309,1684.961421,2144.496354,12101.086569
1126.525605,-5897.364973,2910.387909,12407.443191
1126.525905,-8271.628794,3676.279464,9880.001059
1126.526204,-9497.055282,919.069866,9343.876971
1126.526504,-8271.628794,-3140.155375,10262.946837
1126.526803,-1761.550576,-4825.116796,11488.373325
1126.527103,7735.504705,-2374.263820,10722.481770
1126.527402,11028.838392,765.891555,9650.233593
1126.527702,4671.938485,1072.248177,11488.373325
1126.528029,-3063.566220,765.891555,12713.799813
1126.528325,-5284.651729,2604.031287,11488.373325
1126.528620,-7199.380617,1378.604799,9956.590215
1126.528916,-6510.078217,-995.659021,8348.217949
1126.529211,-1455.193954,-2527.442131,9267.287815
1126.529507,7888.683016,-2067.907198,9650.233593
1126.529802,14015.815456,459.534933,9803.411904
1126.530098,10416.125148,2604.031287,10875.660081
1126.530410,4212.403552,2910.387909,11105.427547
1126.530710,-4288.992708,1991.318043,11182.016703
1126.531011,-8424.807105,2144.496354,10569.303459
1126.531312,-11564.962480,-842.480710,9650.233593
1126.531613,-10492.714303,-4518.760174,10033.179370
1126.531913,-3829.457775,-7812.093861,11718.140791
1126.532214,2986.977064,-8271.628794,11488.373325
1126.532515,9114.109504,-3906.046930,10416.125148
1126.532824,7888.683016,-1302.015643,10262.946837
1126.533119,1838.139732,-536.124088,10262.946837
1126.533414,-2757.209598,1072.248177,10722.481770
1126.533710,-6969.613150,459.534933,9573.644437
1126.534005,-8424.807105,-2833.798753,9650.233593
1126.534300,-4978.295107,-5973.954129,10722.481770
1126.534596,4059.225241,-5667.597507,9803.411904
1126.534891,12330.854035,-1761.550576,8960.931193
1126.535198,12790.388968,1531.783110,9420.466126
1126.535500,6280.310751,3216.744531,10492.714303
1126.535803,-995.659021,2910.387909,11641.551636
1126.536105,-8271.628794,1838.139732,11488.373325
1126.536407,-11947.908258,459.534933,10416.125148
1126.536709,-11564.962480,-3293.333686,9803.411904
1126.537012,-4748.527641,-6433.489062,10109.768526
1126.537314,3906.046930,-7046.202306,11335.195014
1126.537630,9956.590215,-2986.977064,10952.249236
1126.537929,8501.396260,1072.248177,10416.125148
1126.538227,2144.496354,1684.961421,11947.908258
1126.538525,-4442.171019,3523.101153,12943.567279
1126.538824,-7658.915550,4135.814397,11488.373325
1126.539122,-7352.558928,3063.566220,9267.287815
1126.539421,-4748.527641,-76.589155,8654.574571
1126.539719,2833.798753,-1302.015643,9956.590215
1126.540034,9803.411904,-76.589155,10875.660081
1126.540330,13709.458834,3523.101153,9573.644437
1126.540626,7735.504705,4825.116796,11028.838392
1126.540922,153.178311,4978.295107,12101.086569
1126.541219,-5591.008351,4135.814397,9880.001059
1126.541515,-8424.807105,2450.852976,10109.768526
1126.541811,-10033.179370,-2680.620442,10109.768526
1126.542108,-6203.721595,-5667.597507,11335.195014
1126.542419,3446.511997,-5820.775818,10109.768526
1126.542716,9497.055282,-3446.511997,9650.233593
1126.543012,5820.775818,-3140.155375,11028.838392
1126.543309,-1914.728887,-1761.550576,13326.513057
1126.543605,-6356.899906,1072.248177,12943.567279
1126.543902,-7199.380617,3216.744531,10033.179370
1126.544199,-5897.364973,1531.783110,7735.504705
1126.544495,-3676.279464,-229.767466,8501.396260
1126.544795,4518.760174,-2986.977064,8577.985416
1126.545094,13096.745590,-3599.690308,9650.233593
1126.545393,15011.474478,-536.124088,8654.574571
1126.545692,7888.683016,459.534933,10109.768526
1126.545992,-2374.263820,-842.480710,12101.086569
1126.546291,-9190.698660,-1302.015643,12330.854035
1126.546590,-11718.140791,-2680.620442,11794.729947
1126.546889,-13939.226301,-5208.062574,11028.838392
1126.547196,-7658.915550,-6893.023995,10262.946837
1126.547499,3752.868619,-7505.737239,9650.233593
1126.547801,10416.125148,-5820.775818,10569.303459
1126.548104,8807.752882,-3446.511997,11641.551636
1126.548406,3293.333686,-995.659021,12407.443191
1126.548709,-1148.837332,2910.387909,12101.086569
1126.549012,-4135.814397,3982.636086,9956.590215
1126.549314,-7122.791461,3676.279464,9573.644437
1126.549635,-4825.116796,1378.604799,9267.287815
1126.549932,2144.496354,-1148.837332,9267.287815
1126.550229,10109.768526,-2067.907198,10186.357681
1126.550526,12484.032346,919.069866,9573.644437
1126.550823,7275.969772,2604.031287,10569.303459
1126.551120,306.356622,1378.604799,11794.729947
1126.551417,-6510.078217,1225.426488,11794.729947
1126.551714,-11411.784169,-229.767466,11488.373325
1126.551981,-15394.420255,-3446.511997,11488.373325
1126.552282,-9880.001059,-4901.705952,11335.195014
1126.552584,-229.767466,-5054.884263,10722.481770
1126.552885,8041.861327,-3446.511997,10262.946837
1126.553187,10109.768526,1225.426488,9956.590215
1126.553488,5514.419196,4825.116796,10262.946837
1126.553790,765.891555,5437.830040,11182.016703
1126.554091,-5284.651729,3982.636086,10722.481770
1126.554409,-6663.256528,2144.496354,10109.768526
1126.554707,-4288.992708,612.713244,8654.574571
1126.555006,4212.403552,-0.000000,7582.326394
1126.555305,11335.195014,-1302.015643,8960.931193
1126.555603,13096.745590,-536.124088,9956.590215
1126.555902,10262.946837,1072.248177,10722.481770
1126.556200,3293.333686,1378.604799,10799.070925
1126.556499,-6050.543284,919.069866,11641.551636
1126.556799,-13173.334746,-1148.837332,12101.086569
1126.557096,-16007.133499,-3752.868619,11564.962480
1126.557394,-11105.427547,-5208.062574,10339.535992
1126.557691,-4595.349330,-6739.845684,10569.303459
1126.557988,3906.046930,-5820.775818,10416.125148
1126.558286,7888.683016,-2067.907198,9956.590215
1126.558583,5054.884263,-76.589155,11641.551636
1126.558881,1378.604799,306.356622,12484.032346
1126.559188,-2374.263820,1072.248177,10262.946837
1126.559488,-2221.085509,765.891555,8118.450483
1126.559788,-995.659021,-76.589155,7888.683016
1126.560089,2297.674665,-4212.403552,8501.396260
1126.560389,8654.574571,-6127.132440,9803.411904
1126.560689,12330.854035,-4825.116796,10109.768526
1126.560989,9267.287815,-2527.442131,9880.001059
1126.561290,2144.496354,-76.589155,11105.427547
1126.561598,-8271.628794,612.713244,13249.923901
1126.561900,-12866.978124,2297.674665,13020.156435
1126.562202,-13632.869679,1225.426488,11794.729947
1126.562504,-12254.264880,153.178311,9880.001059
1126.562807,-4748.527641,-1455.193954,10262.946837
1126.563109,4212.403552,-2986.977064,10416.125148
1126.563411,9956.590215,-382.945777,10799.070925
1126.563713,9114.109504,765.891555,10262.946837
1126.563980,3752.868619,1531.783110,10416.125148
1126.564284,-689.302399,459.534933,10875.660081
1126.564588,-3982.636086,-229.767466,9956.590215
1126.564892,-4288.992708,-1608.372265,9267.287815
1126.565196,-2067.907198,-3446.511997,7965.272172
1126.565500,5361.240885,-4365.581863,8654.574571
1126.565804,10875.660081,-2680.620442,10416.125148
1126.566108,9497.055282,1838.139732,11028.838392
1126.566380,3906.046930,4135.814397,12101.086569
1126.566681,-3523.101153,5131.473418,12177.675724
1126.566982,-7965.272172,6356.899906,11794.729947
1126.567283,-11105.427547,5284.651729,10262.946837
1126.567584,-12254.264880,2450.852976,10416.125148
1126.567885,-6203.721595,153.178311,10569.303459
1126.568186,1378.604799,-2680.620442,10875.660081
1126.568487,7582.326394,-2374.263820,10569.303459
1126.568810,7735.504705,-2221.085509,10033.179370
1126.569105,2527.442131,-1914.728887,11488.373325
1126.569401,-1608.372265,-2833.798753,11182.016703
1126.569697,-4595.349330,-3752.868619,9650.233593
1126.569993,-2604.031287,-3446.511997,7429.148083
1126.570289,-536.124088,-3599.690308,8041.861327
1126.570584,5054.884263,-6280.310751,9267.287815
1126.570880,10569.303459,-3906.046930,10186.357681
1126.571194,11488.373325,153.178311,10262.946837
1126.571493,4365.581863,1991.318043,10875.660081
1126.571791,-5284.651729,1991.318043,12943.567279
1126.572090,-11258.605858,3829.457775,12713.799813
1126.572389,-14092.404612,2297.674665,11028.838392
1126.572688,-14322.172078,-536.124088,10722.481770
1126.572986,-9343.876971,-3599.690308,11028.838392
1126.573285,2833.798753,-5208.062574,9573.644437
1126.573592,11335.195014,-4901.705952,9267.287815
1126.573889,12177.675724,-4825.116796,10339.535992
1126.574186,7429.148083,-3293.333686,10569.303459
1126.574484,3752.868619,-1148.837332,9956.590215
1126.574781,-1302.015643,-1914.728887,8807.752882
1126.575078,-6663.256528,-3140.155375,9573.644437
1126.575375,-7505.737239,-3599.690308,10569.303459
1126.575673,-2221.085509,-3446.511997,9650.233593
1126.575967,4059.225241,-2221.085509,10722.481770
1126.576268,5820.775818,1684.961421,12254.264880
1126.576568,4365.581863,6510.078217,12101.086569
1126.576868,1072.248177,8041.861327,11028.838392
1126.577168,-4748.527641,8041.861327,11028.838392
1126.577469,-7812.093861,5897.364973,11488.373325
1126.577769,-8577.985416,3982.636086,10262.946837
1126.578069,-3829.457775,-229.767466,9573.644437
1126.578364,2680.620442,-5054.884263,10109.768526
1126.578664,7046.202306,-6433.489062,11335.195014
1126.578965,8654.574571,-4825.116796,10875.660081
1126.579265,5361.240885,-1302.015643,10569.303459
1126.579565,-76.589155,-1455.193954,11258.605858
1126.579865,-5744.186662,-0.000000,12101.086569
1126.580165,-7352.558928,612.713244,10645.892614
1126.580465,-5591.008351,1991.318043,8348.217949
1126.580777,-995.659021,306.356622,9803.411904
1126.581074,4671.938485,-229.767466,10109.768526
1126.581372,10416.125148,2910.387909,10262.946837
1126.581669,9650.233593,5744.186662,9956.590215
1126.581967,4059.225241,5131.473418,10109.768526
1126.582264,-4288.992708,2450.852976,12560.621502
1126.582562,-6969.613150,1991.318043,11182.016703
1126.582859,-7658.915550,-2067.907198,9420.466126
1126.583191,-7658.915550,-6433.489062,9573.644437
1126.583487,-3063.566220,-10492.714303,9650.233593
1126.583782,3140.155375,-10339.535992,10875.660081
1126.584077,5973.954129,-7965.272172,10492.714303
1126.584373,2833.798753,-4901.705952,12101.086569
1126.584668,-1302.015643,-2221.085509,11488.373325
1126.584963,-3063.566220,612.713244,10569.303459
1126.585259,-4978.295107,2604.031287,9420.466126
1126.585566,-4825.116796,1838.139732,9573.644437
1126.585865,-1148.837332,306.356622,9650.233593
1126.586164,6433.489062,-842.480710,9114.109504
1126.586463,11028.838392,-536.124088,9267.287815
1126.586762,9650.233593,1531.783110,10416.125148
1126.587061,4365.581863,2910.387909,11641.551636
1126.587359,-1761.550576,1991.318043,11182.016703
1126.587658,-7505.737239,-0.000000,11718.140791
1126.587975,-10186.357681,-3140.155375,10416.125148
1126.588272,-9573.644437,-4825.116796,9803.411904
1126.588570,-4978.295107,-6893.023995,10722.481770
1126.588868,1531.783110,-7505.737239,10416.125148
1126.589165,5361.240885,-4825.116796,11182.016703
1126.589463,5054.884263,-1608.372265,11488.373325
1126.589761,-0.000000,153.178311,12254.264880
1126.590058,-3369.922842,2757.209598,11641.551636
1126.590373,-3982.636086,4978.295107,9267.287815
1126.590672,-3216.744531,3369.922842,7429.148083
1126.590970,-995.659021,1684.961421,8501.396260
1126.591269,4365.581863,-0.000000,9420.466126
1126.591568,9956.590215,-0.000000,9880.001059
1126.591866,9114.109504,1531.783110,11335.195014
1126.592165,4901.705952,3063.566220,12101.086569
1126.592464,765.891555,4595.349330,10875.660081
1126.592752,-4978.295107,3982.636086,10645.892614
1126.593052,-9037.520349,153.178311,10569.303459
1126.593352,-11105.427547,-1302.015643,11335.195014
1126.593652,-7352.558928,-3446.511997,10799.070925
1126.593952,-76.589155,-5054.884263,10645.892614
1126.594252,4748.527641,-4059.225241,11794.729947
1126.594552,5667.597507,-382.945777,12101.086569
1126.594852,3752.868619,1991.318043,10722.481770
1126.595152,-76.589155,2604.031287,10339.535992
1126.595454,-3523.101153,1072.248177,9726.822748
1126.595757,-4288.992708,459.534933,8731.163727
1126.596059,-2067.907198,-1148.837332,7505.737239
1126.596362,3752.868619,-4518.760174,8041.861327
1126.596664,6739.845684,-5054.884263,10569.303459
1126.596967,8195.039638,-2986.977064,11258.605858
1126.597269,6739.845684,1531.783110,10262.946837
1126.597577,-229.767466,-76.589155,11028.838392
1126.597872,-7965.272172,-1148.837332,12101.086569
1126.598168,-11564.962480,-1608.372265,12330.854035
1126.598464,-10492.714303,-3140.155375,10569.303459
1126.598760,-3982.636086,-4825.116796,8884.342038
1126.599056,612.713244,-5973.954129,9956.590215
1126.599352,6739.845684,-5667.597507,10569.303459
1126.599648,8348.217949,-689.302399,10722.481770
1126.599968,5514.419196,306.356622,10722.481770
1126.600269,-3216.744531,306.356622,11641.551636
1126.600569,-7122.791461,919.069866,10875.660081
1126.600869,-6816.434839,612.713244,9573.644437
1126.601170,-4595.349330,-3446.511997,8118.450483
1126.601470,459.534933,-5208.062574,9420.466126
1126.601770,6433.489062,-4365.581863,9573.644437
1126.602071,12177.675724,-995.659021,9956.590215
1126.602390,9650.233593,919.069866,10799.070925
1126.602684,1838.139732,1838.139732,11947.908258
1126.602979,-5897.364973,2757.209598,12790.388968
1126.603274,-7199.380617,4978.295107,10109.768526
1126.603569,-8731.163727,2757.209598,9267.287815
1126.603864,-9726.822748,-1148.837332,10875.660081
1126.604159,-4442.171019,-3906.046930,12101.086569
1126.604454,4671.938485,-1761.550576,11028.838392
1126.604767,8960.931193,612.713244,10109.768526
1126.605066,4212.403552,1838.139732,11028.838392
1126.605365,-1761.550576,2604.031287,13096.745590
1126.605665,-2374.263820,3829.457775,10875.660081
1126.605964,-1455.193954,1378.604799,8501.396260
1126.606264,-1608.372265,-842.480710,8424.807105
1126.606563,2374.263820,-3140.155375,8501.396260
1126.606862,8348.217949,-2833.798753,8960.931193
1126.607162,13096.745590,-1608.372265,9420.466126
1126.607459,8195.039638,-689.302399,11335.195014
1126.607757,-2221.085509,-76.589155,13556.280523
1126.608054,-7965.272172,1531.783110,11794.729947
1126.608351,-11411.784169,1225.426488,10875.660081
1126.608649,-14322.172078,-2221.085509,12254.264880
1126.608946,-10645.892614,-3906.046930,10416.125148
1126.609244,-1761.550576,-3906.046930,8424.807105
1126.609584,8348.217949,-2221.085509,9267.287815
1126.609880,10569.303459,-2527.442131,11028.838392
1126.610177,5820.775818,-1761.550576,12101.086569
1126.610473,2144.496354,306.356622,10262.946837
1126.610769,-2221.085509,-229.767466,9267.287815
1126.611065,-6816.434839,-3293.333686,10722.481770
1126.611361,-6356.899906,-5208.062574,9650.233593
1126.611657,-1455.193954,-5973.954129,8654.574571
1126.611971,6893.023995,-5667.597507,8195.039638
1126.612271,11488.373325,-4059.225241,9267.287815
1126.612570,9420.466126,-536.124088,11182.016703
1126.612870,3752.868619,2297.674665,11641.551636
1126.613169,-3676.279464,4288.992708,12254.264880
1126.613469,-10033.179370,2757.209598,12024.497413
1126.613768,-11871.319102,919.069866,11488.373325
1126.614068,-8884.342038,-1608.372265,9650.233593
1126.614306,-1914.728887,-2527.442131,9803.411904
1126.614612,4748.527641,-5361.240885,10569.303459
1126.614919,8960.931193,-3752.868619,10875.660081
1126.615226,6280.310751,-536.124088,11182.016703
1126.615532,-0.000000,-536.124088,11564.962480
1126.615839,-5744.186662,-76.589155,12254.264880
1126.616146,-7965.272172,1531.783110,10569.303459
1126.616452,-6816.434839,765.891555,9267.287815
1126.616770,-3982.636086,-536.124088,8807.752882
1126.617068,4212.403552,-2221.085509,9956.590215
1126.617366,12637.210657,306.356622,10033.179370
1126.617664,13403.102212,4135.814397,10033.179370
1126.617961,9650.233593,6816.434839,9956.590215
1126.618259,1684.961421,7582.326394,11641.551636
1126.618557,-5437.830040,6356.899906,11182.016703
1126.618855,-10492.714303,3523.101153,10952.249236
1126.619155,-12560.621502,-0.000000,10799.070925
1126.619455,-8424.807105,-4212.403552,10722.481770
1126.619755,-76.589155,-6280.310751,10722.481770
1126.620055,7046.202306,-4518.760174,10262.946837
1126.620355,7582.326394,-2221.085509,10109.768526
1126.620655,4212.403552,-842.480710,10875.660081
1126.620955,-3063.566220,-76.589155,11028.838392
1126.621255,-6356.899906,-76.589155,10875.660081
1126.621545,-8424.807105,-1455.193954,10262.946837
1126.621844,-5437.830040,-2986.977064,8041.861327
1126.622143,1531.783110,-5208.062574,8501.396260
1126.622441,8195.039638,-4212.403552,9420.466126
1126.622740,12330.854035,-1148.837332,9420.466126
1126.623039,9420.466126,2757.209598,9803.411904
1126.623337,2297.674665,1531.783110,11028.838392
1126.623636,-4978.295107,1378.604799,11641.551636
1126.623943,-7965.272172,153.178311,10569.303459
1126.624244,-9497.055282,-2067.907198,9880.001059
1126.624546,-4748.527641,-5820.775818,9114.109504
1126.624847,1684.961421,-7812.093861,9956.590215
1126.625148,6893.023995,-6739.845684,10492.714303
1126.625450,7275.969772,-4212.403552,11488.373325
1126.625751,1991.318043,-2374.263820,11488.373325
1126.626052,-5131.473418,-382.945777,12560.621502
1126.626335,-10952.249236,-536.124088,13096.745590
1126.626638,-12866.978124,-382.945777,12254.264880
1126.626941,-7352.558928,-76.589155,9803.411904
1126.627244,1378.604799,-536.124088,8195.039638
1126.627547,10875.660081,-382.945777,8041.861327
1126.627850,16083.722655,2910.387909,8501.396260
1126.628153,14551.939545,4442.171019,9650.233593
1126.628456,4748.527641,3369.922842,11794.729947
1126.628737,-4442.171019,1684.961421,11794.729947
1126.629037,-10492.714303,1531.783110,11182.016703
1126.629336,-11718.140791,-76.589155,9956.590215
1126.629636,-8731.163727,-1761.550576,9956.590215
1126.629935,-1302.015643,-4059.225241,11182.016703
1126.630235,6433.489062,-3293.333686,11028.838392
1126.630534,10722.481770,153.178311,10339.535992
1126.630834,6893.023995,3216.744531,11641.551636
1126.631146,-382.945777,3829.457775,12713.799813
1126.631446,-6510.078217,4288.992708,12407.443191
1126.631746,-9497.055282,3523.101153,9956.590215
1126.632046,-8118.450483,3063.566220,9880.001059
1126.632346,-4288.992708,-0.000000,9573.644437
1126.632646,4671.938485,-689.302399,10262.946837
1126.632946,11871.319102,153.178311,8884.342038
1126.633246,10569.303459,1531.783110,10033.179370
1126.633555,4518.760174,-229.767466,11335.195014
1126.633853,-4978.295107,-1761.550576,11718.140791
1126.634151,-7199.380617,-1455.193954,11488.373325
1126.634448,-6510.078217,-2067.907198,8195.039638
1126.634746,-5437.830040,-5667.597507,8118.450483
1126.635044,-689.302399,-8118.450483,9573.644437
1126.635342,4365.581863,-7965.272172,10952.249236
1126.635639,10416.125148,-4059.225241,11182.016703
1126.635980,8654.574571,-229.767466,10109.768526
1126.636275,765.891555,765.891555,11488.373325
1126.636570,-5897.364973,2297.674665,10569.303459
1126.636865,-10492.714303,1225.426488,9956.590215
1126.637160,-12254.264880,-689.302399,10569.303459
1126.637455,-8731.163727,-2527.442131,10952.249236
1126.637750,1072.248177,-4059.225241,9420.466126
1126.638045,10722.481770,-3906.046930,8654.574571
1126.638341,14705.117856,-1608.372265,9956.590215
1126.638640,8960.931193,-0.000000,11182.016703
1126.638939,919.069866,-76.589155,11182.016703
1126.639238,-4825.116796,459.534933,10722.481770
1126.639537,-9343.876971,-1302.015643,11028.838392
1126.639835,-10645.892614,-3446.511997,10569.303459
1126.640134,-5284.651729,-4059.225241,9803.411904
1126.640433,2986.977064,-4212.403552,9956.590215
1126.640728,9267.287815,-1455.193954,10416.125148
1126.641028,8348.217949,612.713244,11258.605858
1126.641328,2833.798753,3216.744531,11641.551636
1126.641628,-3829.457775,4442.171019,12101.086569
1126.641929,-9497.055282,4442.171019,11641.551636
1126.642229,-11105.427547,2757.209598,10109.768526
1126.642529,-8577.985416,459.534933,10416.125148
1126.642829,-229.767466,-1608.372265,10416.125148
1126.643141,8654.574571,-1761.550576,9726.822748
1126.643437,15164.652789,1838.139732,9956.590215
1126.643734,12790.388968,3523.101153,9114.109504
1126.644031,4059.225241,2450.852976,10799.070925
1126.644327,-4288.992708,1378.604799,11947.908258
1126.644624,-9573.644437,1378.604799,10875.660081
1126.644921,-10799.070925,-1148.837332,10799.070925
1126.645217,-7122.791461,-4059.225241,10416.125148
1126.645517,1072.248177,-4365.581863,10569.303459
1126.645817,9114.109504,-2986.977064,9650.233593
1126.646117,12024.497413,765.891555,9114.109504
1126.646417,7046.202306,2450.852976,10722.481770
1126.646717,-1761.550576,2450.852976,11411.784169
1126.647017,-9190.698660,1072.248177,11794.729947
1126.647317,-11947.908258,-382.945777,11182.016703
1126.647617,-9343.876971,-2221.085509,9420.466126
1126.647924,-3982.636086,-5054.884263,9803.411904
1126.648223,5514.419196,-6433.489062,9420.466126
1126.648522,12943.567279,-4212.403552,9573.644437
1126.648821,12484.032346,-1761.550576,9803.411904
1126.649120,6280.310751,-1608.372265,11182.016703
1126.649419,-2604.031287,-229.767466,11182.016703
1126.649718,-6356.899906,612.713244,9956.590215
1126.650016,-10799.070925,-1148.837332,9956.590215
1126.650333,-9037.520349,-3752.868619,9573.644437
1126.650630,-2221.085509,-4901.705952,10262.946837
1126.650927,5361.240885,-4518.760174,9956.590215
1126.651224,8654.574571,-1761.550576,10722.481770
1126.651521,4748.527641,612.713244,11488.373325
1126.651818,-229.767466,1225.426488,12790.388968
1126.652115,-5591.008351,765.891555,11488.373325
1126.652412,-8424.807105,1378.604799,10722.481770
1126.652730,-7505.737239,306.356622,9650.233593
1126.653030,-3676.279464,-2067.907198,9420.466126
1126.653330,5514.419196,-3752.868619,10722.481770
1126.653629,13709.458834,-689.302399,9650.233593
1126.653929,12943.567279,2297.674665,9573.644437
1126.654228,6280.310751,2604.031287,10262.946837
1126.654528,-3523.101153,2910.387909,12790.388968
1126.654828,-10186.357681,2450.852976,13096.745590
1126.655116,-11947.908258,1378.604799,11028.838392
1126.655416,-9880.001059,-229.767466,9267.287815
1126.655716,-1761.550576,-2374.263820,9114.109504
1126.656016,5973.954129,-3599.690308,10722.481770
1126.656315,11641.551636,-536.124088,10722.481770
1126.656615,9497.055282,1991.318043,10416.125148
1126.656915,1684.961421,2297.674665,11258.605858
1126.657215,-5131.473418,2604.031287,12790.388968
1126.657515,-10186.357681,3063.566220,11488.373325
1126.657814,-9573.644437,919.069866,9114.109504
1126.658113,-6663.256528,-1455.193954,10033.179370
1126.658413,3293.333686,-3446.511997,9420.466126
1126.658712,12024.497413,-2527.442131,8960.931193
1126.659011,14398.761234,1225.426488,9956.590215
1126.659310,10109.768526,2604.031287,10109.768526
1126.659610,306.356622,1838.139732,11182.016703
1126.659917,-4595.349330,1991.318043,9803.411904
1126.660220,-8884.342038,306.356622,9420.466126
1126.660523,-11871.319102,-4825.116796,10262.946837
1126.660827,-7658.915550,-7352.558928,11488.373325
1126.661130,1684.961421,-7965.272172,11182.016703
1126.661433,9114.109504,-6433.489062,9650.233593
1126.661737,9420.466126,-2833.798753,10109.768526
1126.662040,1531.783110,-2680.620442,11335.195014
1126.662314,-5284.651729,-995.659021,12407.443191
1126.662617,-10033.179370,459.534933,11564.962480
1126.662921,-10952.249236,-842.480710,10416.125148
1126.663224,-6510.078217,-2527.442131,9267.287815
1126.663527,2297.674665,-4059.225241,9497.055282
1126.663830,12330.854035,-2986.977064,9267.287815
1126.664133,16236.900966,153.178311,8960.931193
1126.664436,11641.551636,2297.674665,9880.001059
1126.664675,2144.496354,919.069866,10875.660081
1126.664980,-6969.613150,1531.783110,11641.551636
1126.665285,-11718.140791,612.713244,11182.016703
1126.665590,-14628.528700,-3293.333686,10416.125148
1126.665895,-10186.357681,-6433.489062,11641.551636
1126.666200,306.356622,-8424.807105,11028.838392
1126.666505,11028.838392,-6280.310751,9267.287815
1126.666810,13096.745590,-2680.620442,9650.233593
1126.667127,7429.148083,-76.589155,10952.249236
1126.667426,-2067.907198,919.069866,11641.551636
1126.667724,-7965.272172,1838.139732,12177.675724
1126.668023,-11105.427547,2297.674665,11028.838392
1126.668322,-8884.342038,1531.783110,9956.590215
1126.668620,306.356622,919.069866,9267.287815
1126.668919,10569.303459,919.069866,8654.574571
1126.669217,15317.831100,2144.496354,9803.411904
1126.669517,11871.319102,4595.349330,10416.125148
1126.669815,2680.620442,3216.744531,11182.016703
1126.670112,-6356.899906,4135.814397,12713.799813
1126.670410,-11105.427547,3829.457775,11028.838392
1126.670707,-12866.978124,1684.961421,10416.125148
1126.671005,-7812.093861,-1608.372265,10033.179370
1126.671302,1531.783110,-4825.116796,11028.838392
1126.671599,10875.660081,-4518.760174,10109.768526
1126.671907,13403.102212,-842.480710,9267.287815
1126.672208,6893.023995,-0.000000,11488.373325
1126.672510,-2757.209598,-382.945777,13096.745590
1126.672812,-10033.179370,459.534933,12943.567279
1126.673113,-12866.978124,1225.426488,10722.481770
1126.673415,-10186.357681,1838.139732,9114.109504
1126.673717,-2757.209598,-229.767466,9190.698660
1126.674018,8501.396260,-2374.263820,9573.644437
1126.674332,15624.187722,-229.767466,9267.287815
1126.674633,16390.079277,2450.852976,7735.504705
1126.674933,6586.667373,765.891555,10109.768526
1126.675233,-5437.830040,-689.302399,12790.388968
1126.675534,-13020.156435,-1148.837332,12407.443191
1126.675834,-14934.885322,-4059.225241,11182.016703
1126.676134,-12407.443191,-7199.380617,9420.466126
1126.676435,-3523.101153,-9037.520349,10416.125148
1126.676753,7582.326394,-8731.163727,9573.644437
1126.677049,13709.458834,-4212.403552,9880.001059
1126.677345,11335.195014,-229.767466,10645.892614
1126.677641,2374.263820,612.713244,10569.303459
1126.677937,-6969.613150,1991.318043,12407.443191
1126.678233,-11718.140791,2910.387909,11335.195014
1126.678529,-12101.086569,1378.604799,9956.590215
1126.678825,-6816.434839,-536.124088,10109.768526
1126.679097,4748.527641,-2833.798753,9573.644437
1126.679400,16236.900966,612.713244,8501.396260
1126.679704,19147.288875,4595.349330,8041.861327
1126.680007,10569.303459,3676.279464,10416.125148
1126.680310,-1761.550576,2604.031287,12790.388968
1126.680613,-10492.714303,2450.852976,12254.264880
1126.680916,-15700.776877,-76.589155,10262.946837
1126.681220,-16160.311810,-4059.225241,10722.481770
1126.681509,-9037.520349,-6280.310751,11335.195014
1126.681808,2680.620442,-6586.667373,11182.016703
1126.682108,12024.497413,-2374.263820,10339.535992
1126.682407,13249.923901,1531.783110,9803.411904
1126.682706,6127.132440,3216.744531,11182.016703
1126.683005,-3676.279464,4442.171019,12407.443191
1126.683304,-9497.055282,5744.186662,10875.660081
1126.683603,-9880.001059,4825.116796,8654.574571
1126.683917,-7199.380617,765.891555,8960.931193
1126.684216,1838.139732,-3752.868619,10492.714303
1126.684515,12637.210657,-3446.511997,9803.411904
1126.684813,19913.180430,1072.248177,6969.613150
1126.685112,14398.761234,459.534933,8807.752882
1126.685411,765.891555,-2374.263820,12101.086569
1126.685710,-7965.272172,-382.945777,12407.443191
1126.686008,-13479.691368,-382.945777,11182.016703
1126.686315,-17155.970832,-3446.511997,10875.660081
1126.686613,-12254.264880,-5667.597507,11335.195014
1126.686910,-842.480710,-5514.419196,10875.660081
1126.687207,11028.838392,-2986.977064,9267.287815
1126.687504,12330.854035,-1148.837332,9650.233593
1126.687801,5208.062574,-382.945777,12101.086569
1126.688099,-3216.744531,1225.426488,11641.551636
1126.688396,-8577.985416,3063.566220,10645.892614
1126.688692,-10492.714303,2757.209598,10109.768526
1126.688993,-9343.876971,-76.589155,9650.233593
1126.689295,306.356622,-2680.620442,9803.411904
1126.689596,12637.210657,-2833.798753,8807.752882
1126.689897,19300.467186,-1608.372265,7812.093861
1126.690198,15471.009411,-76.589155,10033.179370
1126.690499,3293.333686,-1608.372265,11105.427547
1126.690800,-7352.558928,-229.767466,12790.388968
1126.691095,-15088.063633,306.356622,12560.621502
1126.691395,-17768.684076,-1148.837332,11641.551636
1126.691696,-11718.140791,-1914.728887,10645.892614
1126.691997,-0.000000,-1914.728887,9573.644437
1126.692298,10262.946837,-4059.225241,9267.287815
1126.692599,11641.551636,-1455.193954,11028.838392
1126.692900,9267.287815,1378.604799,10875.660081
1126.693200,-0.000000,1684.961421,11335.195014
1126.693489,-7505.737239,2604.031287,11335.195014
1126.693789,-13479.691368,1378.604799,12101.086569
1126.694090,-12101.086569,1072.248177,10722.481770
1126.694391,-2067.907198,-229.767466,8654.574571
1126.694692,9956.590215,-2680.620442,8195.039638
1126.694993,18151.629853,-1914.728887,9114.109504
1126.695293,17385.738298,1531.783110,9497.055282
1126.695594,9420.466126,1684.961421,10109.768526
1126.695903,-2604.031287,1991.318043,12407.443191
1126.696203,-11564.962480,1531.783110,12407.443191
1126.696502,-16849.614210,1531.783110,10875.660081
1126.696802,-13632.869679,-1302.015643,9803.411904
1126.697101,-4748.527641,-2986.977064,9650.233593
1126.697400,6280.310751,-4059.225241,10109.768526
1126.697700,12943.567279,-2680.620442,10262.946837
1126.697999,10875.660081,-1608.372265,9880.001059
1126.698306,2680.620442,-1914.728887,11335.195014
1126.698606,-6356.899906,-2221.085509,12254.264880
1126.698905,-11105.427547,-1761.550576,11488.373325
1126.699205,-9880.001059,-0.000000,9573.644437
1126.699505,-3216.744531,-382.945777,8195.039638
1126.699804,5667.597507,-3140.155375,9573.644437
1126.700104,14551.939545,-1761.550576,9650.233593
1126.700404,16619.846743,2604.031287,8884.342038
1126.700733,8960.931193,3829.457775,9956.590215
1126.701026,-4825.116796,2450.852976,12254.264880
1126.701319,-13786.047990,1225.426488,12790.388968
1126.701611,-19223.878030,-382.945777,11794.729947
1126.701904,-17462.327454,-2221.085509,11794.729947
1126.702197,-8118.450483,-5361.240885,11028.838392
1126.702489,5820.775818,-6127.132440,9650.233593
1126.702782,15930.544344,-4059.225241,9114.109504
1126.703096,15777.366033,-2067.907198,9114.109504
1126.703395,7275.969772,-3752.868619,10722.481770
1126.703693,-1302.015643,-1761.550576,11488.373325
1126.703992,-7352.558928,-76.589155,10875.660081
1126.704291,-11258.605858,-995.659021,9573.644437
1126.704589,-8731.163727,-2833.798753,9650.233593
1126.704888,1378.604799,-2067.907198,10569.303459
1126.705187,12484.032346,-1148.837332,8195.039638
1126.705499,15624.187722,3063.566220,9267.287815
1126.705799,10416.125148,5284.651729,10875.660081
1126.706099,153.178311,4288.992708,11488.373325
1126.706399,-9573.644437,3676.279464,11947.908258
1126.706699,-16313.490121,3063.566220,12024.497413
1126.706999,-18228.219009,306.356622,10569.303459
1126.707299,-10645.892614,-2067.907198,11028.838392
1126.707598,-382.945777,-4212.403552,11182.016703
1126.707898,10416.125148,-4212.403552,10722.481770
1126.708197,14398.761234,-995.659021,10262.946837
1126.708497,10722.481770,306.356622,9343.876971
1126.708796,3140.155375,-0.000000,10722.481770
1126.709095,-5131.473418,1072.248177,11028.838392
1126.709394,-9190.698660,-0.000000,9956.590215
1126.709694,-5437.830040,459.534933,9343.876971
1126.709993,2680.620442,-842.480710,8654.574571
1126.710300,10722.481770,-2221.085509,9267.287815
1126.710601,13862.637145,612.713244,10416.125148
1126.710901,9956.590215,3216.744531,10875.660081
1126.711202,919.069866,3982.636086,11641.551636
1126.711503,-9880.001059,3676.279464,12943.567279
1126.711804,-17615.505765,3369.922842,12560.621502
1126.712104,-18381.397320,1838.139732,10109.768526
1126.712405,-11258.605858,-1302.015643,9267.287815
1126.712721,-2757.209598,-5820.775818,11182.016703
1126.713015,7122.791461,-7965.272172,11947.908258
1126.713309,13862.637145,-6127.132440,10262.946837
1126.713602,13096.745590,-3293.333686,8960.931193
1126.713896,3446.511997,-4518.760174,9956.590215
1126.714190,-5591.008351,-3446.511997,10722.481770
1126.714483,-7965.272172,-382.945777,8807.752882
1126.714777,-7199.380617,-995.659021,7658.915550
1126.715096,-3523.101153,-3446.511997,9573.644437
1126.715394,6280.310751,-3293.333686,11488.373325
1126.715692,17998.451542,306.356622,7122.791461
1126.715990,17232.559987,4135.814397,7582.326394
1126.716289,5361.240885,1531.783110,12254.264880
1126.716587,-8118.450483,459.534933,14015.815456
1126.716885,-14475.350389,1684.961421,12560.621502
1126.717183,-17462.327454,306.356622,10109.768526
1126.717496,-16849.614210,-3906.046930,11641.551636
1126.717795,-8271.628794,-5973.954129,12407.443191
1126.718093,6280.310751,-6127.132440,10416.125148
1126.718392,14398.761234,-3752.868619,9956.590215
1126.718690,13096.745590,-995.659021,10416.125148
1126.718989,6739.845684,-382.945777,9880.001059
1126.719287,-689.302399,2297.674665,10569.303459
1126.719586,-7658.915550,2604.031287,11028.838392
1126.719885,-11105.427547,1684.961421,9956.590215
1126.720183,-4748.527641,2604.031287,9956.590215
1126.720480,6739.845684,2757.209598,8654.574571
1126.720778,15164.652789,1531.783110,8807.752882
1126.721075,12943.567279,2297.674665,10722.481770
1126.721372,6127.132440,1838.139732,11794.729947
1126.721670,-4825.116796,-76.589155,13096.745590
1126.721967,-13479.691368,-995.659021,12943.567279
1126.722274,-17462.327454,-1761.550576,11641.551636
1126.722578,-15547.598566,-2986.977064,10569.303459
1126.722881,-4825.116796,-3446.511997,10109.768526
1126.723184,6893.023995,-4212.403552,10262.946837
1126.723488,14245.582923,-2680.620442,9573.644437
1126.723791,14015.815456,-0.000000,9267.287815
1126.724094,6893.023995,-76.589155,9650.233593
1126.724398,-3369.922842,-536.124088,12254.264880
1126.724672,-10339.535992,-0.000000,11028.838392
1126.724975,-10952.249236,765.891555,9573.644437
1126.725278,-5437.830040,919.069866,8960.931193
1126.725580,3752.868619,-689.302399,8960.931193
1126.725883,12177.675724,-382.945777,9803.411904
1126.726186,15164.652789,1684.961421,8807.752882
1126.726489,8348.217949,1838.139732,10569.303459
1126.726791,-4288.992708,-536.124088,13173.334746
1126.727110,-14092.404612,-995.659021,13556.280523
1126.727406,-17615.505765,-1148.837332,12713.799813
1126.727702,-12254.264880,-2067.907198,9267.287815
1126.727998,-3369.922842,-2833.798753,8960.931193
1126.728294,6433.489062,-4671.938485,9956.590215
1126.728590,14398.761234,-3446.511997,10109.768526
1126.728886,14245.582923,-842.480710,9956.590215
1126.729182,8041.861327,-229.767466,9573.644437
1126.729500,-3676.279464,-1914.728887,11182.016703
1126.729794,-13632.869679,-1455.193954,12101.086569
1126.730089,-13786.047990,765.891555,10109.768526
1126.730383,-8577.985416,-1455.193954,8654.574571
1126.730678,1225.426488,-2374.263820,9497.055282
1126.730972,12943.567279,-2221.085509,10875.660081
1126.731266,17692.094920,1225.426488,9267.287815
1126.731561,12943.567279,2604.031287,9573.644437
1126.731861,-1148.837332,-0.000000,13403.102212
1126.732161,-11871.319102,919.069866,13096.745590
1126.732461,-16007.133499,1072.248177,10875.660081
1126.732761,-15853.955188,-382.945777,10109.768526
1126.733061,-8424.807105,-2680.620442,10875.660081
1126.733361,3906.046930,-3599.690308,11182.016703
1126.733661,16083.722655,-689.302399,8654.574571
1126.733961,17692.094920,2604.031287,8807.752882
1126.734291,7429.148083,459.534933,11335.195014
1126.734588,-4825.116796,765.891555,12560.621502
1126.734885,-11718.140791,2604.031287,11794.729947
1126.735182,-13479.691368,2450.852976,9880.001059
1126.735479,-8424.807105,-536.124088,9267.287815
1126.735776,2527.442131,-2986.977064,9267.287815
1126.736073,14398.761234,-3752.868619,9420.466126
1126.736370,19147.288875,-1148.837332,9650.233593
1126.736678,14168.993767,2144.496354,9956.590215
1126.736978,612.713244,919.069866,12484.032346
1126.737278,-10799.070925,919.069866,12790.388968
1126.737577,-19836.591274,1531.783110,12713.799813
1126.737877,-18228.219009,1072.248177,10799.070925
1126.738177,-10339.535992,-382.945777,9267.287815
1126.738477,3906.046930,-1148.837332,8195.039638
1126.738777,13862.637145,-3599.690308,8807.752882
1126.739060,16083.722655,-2680.620442,9880.001059
1126.739365,11182.016703,-1148.837332,10339.535992
1126.739670,-1761.550576,-4059.225241,11411.784169
1126.739974,-11947.908258,-3446.511997,12254.264880
1126.740279,-16849.614210,-2986.977064,12177.675724
1126.740584,-12101.086569,-2833.798753,9573.644437
1126.740888,-842.480710,-2527.442131,8195.039638
1126.741193,10262.946837,-2833.798753,8195.039638
1126.741510,17538.916609,-1302.015643,8807.752882
1126.741808,14858.296167,1225.426488,9956.590215
1126.742105,5054.884263,459.534933,11641.551636
1126.742403,-7965.272172,-689.302399,13249.923901
1126.742700,-16007.133499,-536.124088,12713.799813
1126.742997,-15241.241944,919.069866,10186.357681
1126.743295,-7352.558928,765.891555,8041.861327
1126.743592,2297.674665,-1914.728887,9267.287815
1126.743882,11028.838392,-4212.403552,11182.016703
1126.744178,16773.025054,-229.767466,9650.233593
1126.744474,10875.660081,-76.589155,9803.411904
1126.744769,-2757.209598,-2221.085509,12790.388968
1126.745065,-13786.047990,-1914.728887,14168.993767
1126.745361,-15853.955188,-229.767466,11794.729947
1126.745657,-11411.784169,-382.945777,8654.574571
1126.745953,-3829.457775,-1608.372265,9956.590215
1126.746266,8501.396260,-2527.442131,9573.644437
1126.746564,18764.343097,2144.496354,9114.109504
1126.746862,17998.451542,4595.349330,9650.233593
1126.747160,8195.039638,4135.814397,10109.768526
1126.747458,-5744.186662,3676.279464,12713.799813
1126.747756,-12713.799813,5284.651729,11488.373325
1126.748054,-15700.776877,3523.101153,10339.535992
1126.748351,-13326.513057,153.178311,10722.481770
1126.748658,-2604.031287,-2527.442131,10186.357681
1126.748959,12330.854035,-3906.046930,9956.590215
1126.749260,18457.986475,-2680.620442,8731.163727
1126.749560,13249.923901,-689.302399,10416.125148
1126.749861,-76.589155,-2680.620442,12560.621502
1126.750161,-9880.001059,-1455.193954,12254.264880
1126.750462,-14628.528700,-1148.837332,11794.729947
1126.750762,-16007.133499,-1608.372265,10722.481770
1126.751024,-8884.342038,-1608.372265,9497.055282
1126.751328,4901.705952,-1148.837332,8807.752882
1126.751633,17232.559987,-382.945777,8960.931193
1126.751937,17845.273231,1531.783110,9420.466126
1126.752242,10875.660081,1991.318043,10109.768526
1126.752546,-1914.728887,765.891555,11028.838392
1126.752851,-11411.784169,-0.000000,11794.729947
1126.753156,-18075.040698,-1761.550576,11564.962480
1126.753450,-14628.528700,-3446.511997,9573.644437
1126.753751,-4442.171019,-4671.938485,9114.109504
1126.754051,7735.504705,-7658.915550,9573.644437
1126.754351,13862.637145,-7199.380617,11028.838392
1126.754651,12790.388968,-3906.046930,10875.660081
1126.754951,5361.240885,-2527.442131,9956.590215
1126.755251,-6050.543284,-3140.155375,11794.729947
1126.755551,-14934.885322,-1608.372265,13096.745590
1126.755863,-14092.404612,1225.426488,10262.946837
1126.756160,-6816.434839,2297.674665,7735.504705
1126.756458,5820.775818,1225.426488,8348.217949
1126.756755,15930.544344,-229.767466,9497.055282
1126.757053,20372.715363,2450.852976,8807.752882
1126.757350,15164.652789,3676.279464,9573.644437
1126.757648,-382.945777,306.356622,12101.086569
1126.757945,-11947.908258,-76.589155,13096.745590
1126.758254,-18840.932253,612.713244,13249.923901
1126.758554,-19530.234652,-1148.837332,12560.621502
1126.758853,-11105.427547,-2067.907198,10722.481770
1126.759153,1838.139732,-2221.085509,10569.303459
1126.759452,13096.745590,-1608.372265,10262.946837
1126.759751,16083.722655,1225.426488,9803.411904
1126.760051,9497.055282,2757.209598,9956.590215
1126.760350,-995.659021,1072.248177,10722.481770
1126.760657,-11718.140791,-229.767466,12943.567279
1126.760955,-13632.869679,765.891555,12254.264880
1126.761254,-6969.613150,1991.318043,7888.683016
1126.761552,3599.690308,1991.318043,8195.039638
1126.761850,14398.761234,919.069866,8195.039638
1126.762148,19300.467186,2604.031287,8654.574571
1126.762446,14398.761234,3676.279464,9573.644437
1126.762744,2527.442131,459.534933,10722.481770
1126.763104,-11411.784169,-1761.550576,12943.567279
1126.763396,-18381.397320,-3599.690308,12943.567279
1126.763687,-18994.110564,-5514.419196,11641.551636
1126.763978,-11564.962480,-5208.062574,10569.303459
1126.764270,2374.263820,-4671.938485,9650.233593
1126.764561,13096.745590,-4212.403552,9650.233593
1126.764853,17998.451542,-382.945777,9267.287815
1126.765144,11028.838392,-0.000000,9420.466126
1126.765458,-1608.372265,-1148.837332,11794.729947
1126.765757,-12254.264880,-842.480710,13096.745590
1126.766056,-15394.420255,153.178311,11488.373325
1126.766354,-11564.962480,306.356622,8807.752882
1126.766653,-3523.101153,-995.659021,8807.752882
1126.766952,7582.326394,-2986.977064,10339.535992
1126.767250,18457.986475,-995.659021,9420.466126
1126.767549,18917.521408,1838.139732,8807.752882
1126.767826,8654.574571,-689.302399,10492.714303
1126.768130,-5437.830040,-2833.798753,12484.032346
1126.768434,-13632.869679,-2680.620442,12713.799813
1126.768738,-15853.955188,-1761.550576,10569.303459
1126.769042,-13173.334746,-3140.155375,9956.590215
1126.769346,-2221.085509,-3446.511997,10262.946837
1126.769650,9497.055282,-2833.798753,10109.768526
1126.769954,15317.831100,-76.589155,9267.287815
1126.770254,11028.838392,1378.604799,10109.768526
1126.770553,-229.767466,1378.604799,11718.140791
1126.770852,-10186.357681,1072.248177,12407.443191
1126.771151,-15547.598566,1531.783110,12560.621502
1126.771451,-14092.404612,1838.139732,10416.125148
1126.771750,-5897.364973,765.891555,9497.055282
1126.772049,8195.039638,-1302.015643,9267.287815
1126.772348,19606.823808,153.178311,8195.039638
1126.772656,22440.622561,2604.031287,8348.217949
1126.772955,13096.745590,1838.139732,9956.590215
1126.773254,-2221.085509,-842.480710,12407.443191
1126.773553,-12713.799813,153.178311,12713.799813
1126.773852,-18687.753942,153.178311,11794.729947
1126.774152,-16313.490121,-1455.193954,11182.016703
1126.774451,-6510.078217,-2067.907198,10262.946837
1126.774750,6280.310751,-2067.907198,10569.303459
1126.775100,17232.559987,-76.589155,9420.466126
1126.775394,17998.451542,3676.279464,9037.520349
1126.775687,8501.396260,1838.139732,9650.233593
1126.775981,-4595.349330,612.713244,11028.838392
1126.776275,-14092.404612,-382.945777,12407.443191
1126.776569,-18840.932253,-2986.977064,12407.443191
1126.776862,-13786.047990,-4365.581863,11335.195014
1126.777156,-536.124088,-4059.225241,9420.466126
1126.777423,13862.637145,-3140.155375,7888.683016
1126.777725,19913.180430,-536.124088,8195.039638
1126.778026,16619.846743,1225.426488,8731.163727
1126.778328,3446.511997,-76.589155,11335.195014
1126.778630,-9880.001059,-1761.550576,12407.443191
1126.778931,-17615.505765,-2527.442131,12407.443191
1126.779233,-18381.397320,-2833.798753,11488.373325
1126.779535,-10033.179370,-2986.977064,9956.590215
1126.779835,1991.318043,-3599.690308,10262.946837
1126.780134,13709.458834,-2374.263820,9343.876971
1126.780433,17385.738298,-382.945777,9114.109504
1126.780732,9420.466126,-689.302399,10109.768526
1126.781032,-3523.101153,-2067.907198,12713.799813
1126.781331,-13020.156435,-1608.372265,12560.621502
1126.781630,-15853.955188,-382.945777,11258.605858
1126.781929,-12101.086569,-1302.015643,9956.590215
1126.782229,-1148.837332,-1302.015643,9803.411904
1126.782529,12330.854035,-995.659021,9267.287815
1126.782830,22900.157494,1531.783110,8041.861327
1126.783131,20219.537052,4442.171019,8807.752882
1126.783432,8195.039638,1838.139732,10569.303459
1126.783733,-6663.256528,459.534933,14168.993767
1126.784033,-16007.133499,1684.961421,12943.567279
1126.784334,-19070.699719,2450.852976,10109.768526
1126.784641,-16619.846743,-382.945777,10875.660081
1126.784942,-5897.364973,-2221.085509,11028.838392
1126.785243,6739.845684,-2374.263820,10033.179370
1126.785544,12790.388968,-76.589155,10416.125148
1126.785845,9956.590215,919.069866,11028.838392
1126.786146,612.713244,-689.302399,12560.621502
1126.786447,-6203.721595,-0.000000,11947.908258
1126.786747,-9880.001059,306.356622,9803.411904
1126.787027,-8577.985416,459.534933,9267.287815
1126.787331,-76.589155,-0.000000,8501.396260
1126.787636,11871.319102,-995.659021,8654.574571
1126.787940,20525.893674,306.356622,7812.093861
1126.788244,21291.785229,3523.101153,8195.039638
1126.788549,8960.931193,-0.000000,9650.233593
1126.788853,-5437.830040,-1148.837332,12254.264880
1126.789158,-15547.598566,-1761.550576,13020.156435
1126.789431,-19836.591274,-1761.550576,11641.551636
1126.789733,-17462.327454,-3140.155375,10645.892614
1126.790036,-7965.272172,-4825.116796,11335.195014
1126.790338,3599.690308,-5208.062574,11105.427547
1126.790641,10569.303459,-1608.372265,11182.016703
1126.790943,9497.055282,-76.589155,9956.590215
1126.791246,2680.620442,153.178311,10875.660081
1126.791548,-4978.295107,-536.124088,11335.195014
1126.791865,-10339.535992,-995.659021,10492.714303
1126.792160,-10645.892614,-2527.442131,9573.644437
1126.792454,-3676.279464,-3752.868619,9420.466126
1126.792749,7888.683016,-5054.884263,9956.590215
1126.793043,19453.645497,-1455.193954,7888.683016
1126.793338,21674.731006,2757.209598,7275.969772
1126.793632,11488.373325,2604.031287,9267.287815
1126.793927,-3063.566220,306.356622,11794.729947
1126.794226,-13939.226301,1072.248177,12866.978124
1126.794526,-18840.932253,-229.767466,11794.729947
1126.794825,-18994.110564,-4518.760174,11411.784169
1126.795124,-9880.001059,-5820.775818,11718.140791
1126.795423,4901.705952,-4059.225241,9650.233593
1126.795722,14705.117856,-2221.085509,8960.931193
1126.796021,12943.567279,-229.767466,10416.125148
1126.796320,4518.760174,306.356622,11488.373325
1126.796634,-3829.457775,1531.783110,12101.086569
1126.796933,-11564.962480,2757.209598,12254.264880
1126.797232,-13020.156435,459.534933,11488.373325
1126.797531,-7122.791461,612.713244,9956.590215
1126.797829,7429.148083,1991.318043,8041.861327
1126.798128,18304.808164,1378.604799,7582.326394
1126.798427,19760.002119,3829.457775,8960.931193
1126.798726,11871.319102,4135.814397,11335.195014
1126.799032,-995.659021,1838.139732,12101.086569
1126.799329,-11411.784169,1838.139732,12484.032346
1126.799626,-17921.862387,1378.604799,12560.621502
1126.799924,-16313.490121,-1302.015643,10722.481770
1126.800221,-6816.434839,-2221.085509,10416.125148
1126.800518,7046.202306,-3599.690308,9650.233593
1126.800816,14858.296167,-3906.046930,9114.109504
1126.801113,15624.187722,-2067.907198,9343.876971
1126.801443,5973.954129,-2680.620442,10416.125148
1126.801739,-6816.434839,-3599.690308,13862.637145
1126.802035,-15394.420255,-3140.155375,13709.458834
1126.802332,-14475.350389,-0.000000,10569.303459
1126.802628,-6816.434839,919.069866,7582.326394
1126.802924,2833.798753,-382.945777,7429.148083
1126.803221,13096.745590,-2221.085509,9803.411904
1126.803517,18994.110564,1684.961421,8654.574571
1126.803812,14398.761234,2757.209598,9267.287815
1126.804113,2297.674665,-0.000000,11794.729947
1126.804414,-10952.249236,-1761.550576,12943.567279
1126.804714,-18228.219009,-1914.728887,12790.388968
1126.805015,-18075.040698,-2680.620442,10722.481770
1126.805316,-11871.319102,-4671.938485,10262.946837
1126.805617,612.713244,-6586.667373,10492.714303
1126.805918,12790.388968,-5820.775818,8960.931193
1126.806230,16543.257588,-3599.690308,9650.233593
1126.806527,10875.660081,-2833.798753,10262.946837
1126.806824,-1302.015643,-4059.225241,11258.605858
1126.807122,-9190.698660,-1302.015643,11718.140791
1126.807419,-11258.605858,1684.961421,10569.303459
1126.807717,-9343.876971,1838.139732,8424.807105
1126.808014,-229.767466,612.713244,9267.287815
1126.808312,11335.195014,459.534933,9267.287815
1126.808621,19606.823808,3369.922842,8195.039638
1126.808919,14398.761234,4825.116796,9956.590215
1126.809218,919.069866,1684.961421,12330.854035
1126.809516,-12560.621502,-229.767466,14628.528700
1126.809815,-18075.040698,919.069866,13556.280523
1126.810113,-18840.932253,-76.589155,10722.481770
1126.810412,-13479.691368,-1302.015643,10722.481770
1126.810710,-536.124088,-2067.907198,10033.179370
1126.811017,12790.388968,-2374.263820,9497.055282
1126.811317,19606.823808,1072.248177,8348.217949
1126.811617,14551.939545,1991.318043,9880.001059
1126.811916,1684.961421,-229.767466,11488.373325
1126.812216,-7352.558928,1072.248177,11641.551636
1126.812516,-12713.799813,1225.426488,10569.303459
1126.812815,-12254.264880,-536.124088,10722.481770
1126.813115,-4135.814397,-229.767466,10569.303459
1126.813411,10416.125148,-536.124088,8501.396260
1126.813714,20985.428607,1072.248177,7122.791461
1126.814017,17998.451542,1378.604799,9267.287815
1126.814320,5054.884263,-1608.372265,11947.908258
1126.814623,-8118.450483,-2680.620442,13403.102212
1126.814926,-17002.792521,-2374.263820,12330.854035
1126.815229,-21215.196073,-3140.155375,11641.551636
1126.815532,-16160.311810,-4212.403552,10875.660081
1126.815826,-2604.031287,-2833.798753,8807.752882
1126.816126,12024.497413,-2067.907198,7888.683016
1126.816427,17232.559987,-1302.015643,8960.931193
1126.816727,11641.551636,-689.302399,11488.373325
1126.817027,2374.263820,-536.124088,12407.443191
1126.817327,-6816.434839,-229.767466,11564.962480
1126.817627,-14322.172078,-76.589155,11488.373325
1126.817927,-13020.156435,-76.589155,9803.411904
1126.818215,-5897.364973,-995.659021,8960.931193
1126.818516,7582.326394,-2221.085509,8884.342038
1126.818817,17692.094920,-2680.620442,8271.628794
1126.819118,18151.629853,-2221.085509,9420.466126
1126.819418,11871.319102,-689.302399,9956.590215
1126.819719,-2374.263820,-1455.193954,12254.264880
1126.820020,-14322.172078,-1608.372265,13862.637145
1126.820321,-19377.056341,-76.589155,12407.443191
1126.820620,-15853.955188,765.891555,9420.466126
1126.820920,-6203.721595,-1455.193954,9267.287815
1126.821220,2527.442131,-2527.442131,11258.605858
1126.821520,12484.032346,-1608.372265,10416.125148
1126.821820,15317.831100,3216.744531,9573.644437
1126.822121,6739.845684,1225.426488,11028.838392
1126.822421,-6050.543284,-229.767466,13403.102212
1126.822721,-12407.443191,1225.426488,12101.086569
1126.823028,-11411.784169,2450.852976,9267.287815
1126.823324,-7122.791461,-76.589155,9956.590215
1126.823620,2986.977064,-995.659021,9803.411904
1126.823916,16543.257588,-536.124088,8654.574571
1126.824211,21827.909317,3523.101153,7582.326394
1126.824507,15777.366033,3369.922842,9650.233593
1126.824803,-0.000000,612.713244,13249.923901
1126.825099,-10492.714303,459.534933,12943.567279
1126.825420,-14322.172078,1225.426488,11335.195014
1126.825717,-15700.776877,1225.426488,9956.590215
1126.826014,-10492.714303,-1302.015643,11641.551636
1126.826311,-0.000000,-3140.155375,11182.016703
1126.826608,10262.946837,-2067.907198,9420.466126
1126.826905,11182.016703,-1455.193954,10109.768526
1126.827202,3293.333686,-3293.333686,11718.140791
1126.827499,-4978.295107,-2374.263820,12101.086569
1126.827818,-8884.342038,-1914.728887,10262.946837
1126.828116,-10339.535992,-536.124088,8807.752882
1126.828414,-5897.364973,-2374.263820,9420.466126
1126.828712,4518.760174,-2680.620442,9573.644437
1126.829011,16619.846743,-2067.907198,8654.574571
1126.829309,22746.979183,1072.248177,6816.434839
1126.829607,15471.009411,1684.961421,9190.698660
1126.829905,2144.496354,765.891555,12254.264880
1126.830218,-11411.784169,1225.426488,12254.264880
1126.830517,-20296.126207,1072.248177,12101.086569
1126.830815,-22517.211717,-1608.372265,12407.443191
1126.831114,-17309.149143,-4518.760174,12024.497413
1126.831412,-3523.101153,-5667.597507,11488.373325
1126.831711,9114.109504,-5667.597507,9420.466126
1126.832009,16236.900966,-4901.705952,8654.574571
1126.832307,12637.210657,-4825.116796,10569.303459
1126.832630,3906.046930,-5054.884263,9956.590215
1126.832927,-2910.387909,-2833.798753,10262.946837
1126.833224,-8118.450483,-2221.085509,9650.233593
1126.833520,-9037.520349,-3599.690308,10416.125148
1126.833817,-1302.015643,-1302.015643,10722.481770
1126.834113,10722.481770,1838.139732,8501.396260
1126.834410,18304.808164,4595.349330,7888.683016
1126.834707,12790.388968,5897.364973,10875.660081
1126.835014,1684.961421,5284.651729,12943.567279
1126.835311,-10033.179370,5437.830040,12943.567279
1126.835608,-19070.699719,4442.171019,13862.637145
1126.835904,-21904.498473,1225.426488,12866.978124
1126.836201,-14781.707011,1072.248177,12101.086569
1126.836498,-1455.193954,-0.000000,9573.644437
1126.836795,11488.373325,-2833.798753,8960.931193
1126.837092,17232.559987,-2067.907198,9420.466126
1126.837406,15777.366033,-382.945777,10033.179370
1126.837710,6586.667373,-1302.015643,10109.768526
1126.838013,-3063.566220,-1455.193954,10416.125148
1126.838317,-8884.342038,-1302.015643,9803.411904
1126.838620,-9726.822748,-1148.837332,9803.411904
1126.838924,-3676.279464,-842.480710,9803.411904
1126.839228,5361.240885,-1455.193954,9803.411904
1126.839531,15624.187722,2144.496354,8271.628794
1126.839804,13862.637145,3216.744531,9650.233593
1126.840104,3906.046930,2144.496354,12484.032346
1126.840403,-9037.520349,919.069866,14092.404612
1126.840702,-17002.792521,2910.387909,13862.637145
1126.841002,-17462.327454,2450.852976,10569.303459
1126.841301,-14781.707011,-229.767466,10109.768526
1126.841600,-3829.457775,-3293.333686,10262.946837
1126.841899,8960.931193,-4671.938485,7888.683016
1126.842217,16083.722655,-5820.775818,8195.039638
1126.842515,13556.280523,-6280.310751,10875.660081
1126.842814,5667.597507,-5973.954129,11411.784169
1126.843112,-2450.852976,-4671.938485,10416.125148
1126.843411,-8118.450483,-2067.907198,9650.233593
1126.843709,-9497.055282,-2833.798753,9803.411904
1126.844008,-6050.543284,-3140.155375,10109.768526
1126.844307,2986.977064,-2221.085509,9650.233593
1126.844606,13096.745590,-76.589155,8195.039638
1126.844904,12637.210657,612.713244,9803.411904
1126.845201,4518.760174,153.178311,12713.799813
1126.845499,-7965.272172,-229.767466,13709.458834
1126.845796,-15088.063633,1838.139732,12560.621502
1126.846093,-17921.862387,-536.124088,11641.551636
1126.846391,-14092.404612,-1761.550576,10875.660081
1126.846688,-2374.263820,-2374.263820,9573.644437
1126.847019,12177.675724,-2221.085509,6969.613150
1126.847316,21368.374384,-1455.193954,6969.613150
1126.847612,19606.823808,153.178311,9267.287815
1126.847909,8195.039638,-2067.907198,11182.016703
1126.848206,-5131.473418,-842.480710,12790.388968
1126.848503,-14475.350389,612.713244,11028.838392
1126.848800,-17768.684076,459.534933,10875.660081
1126.849097,-14781.707011,-0.000000,12407.443191
1126.849405,-2910.387909,919.069866,11028.838392
1126.849705,11488.373325,1684.961421,9114.109504
1126.850005,17538.916609,4748.527641,9114.109504
1126.850305,14168.993767,5437.830040,10262.946837
1126.850604,2986.977064,2910.387909,11488.373325
1126.850904,-7505.737239,2450.852976,11641.551636
1126.851204,-11718.140791,459.534933,10799.070925
1126.851504,-13020.156435,-2680.620442,10569.303459
1126.851787,-7199.380617,-4901.705952,11028.838392
1126.852090,5361.240885,-5054.884263,9650.233593
1126.852393,14245.582923,-4365.581863,8807.752882
1126.852696,14858.296167,-2221.085509,10262.946837
1126.852999,6280.310751,-1761.550576,11718.140791
1126.853302,-4978.295107,612.713244,12713.799813
1126.853604,-10952.249236,1991.318043,11105.427547
1126.853907,-15241.241944,2757.209598,9956.590215
1126.854189,-12713.799813,765.891555,10952.249236
1126.854491,-3369.922842,-536.124088,10416.125148
1126.854793,9803.411904,612.713244,9114.109504
1126.855095,18611.164786,2604.031287,8118.450483
1126.855397,13096.745590,1225.426488,9803.411904
1126.855699,1991.318043,-1455.193954,12790.388968
1126.856001,-6663.256528,-1608.372265,11488.373325
1126.856303,-11258.605858,-2221.085509,9956.590215
1126.856593,-13479.691368,-6739.845684,10569.303459
1126.856892,-8884.342038,-8884.342038,11182.016703
1126.857191,5054.884263,-7046.202306,9114.109504
1126.857490,16926.203365,-4059.225241,5820.775818
1126.857789,13249.923901,-4212.403552,9650.233593
1126.858088,2527.442131,-4212.403552,14628.528700
