#time,accel_x,accel_y,accel_z
1168.839839,-536.124088,-1148.837332,10262.946837
1168.840136,-229.767466,-689.302399,10262.946837
1168.840433,1378.604799,-689.302399,10492.714303
1168.840730,4748.527641,-382.945777,9573.644437
1168.841044,8195.039638,-0.000000,9267.287815
1168.841347,12637.210657,153.178311,9420.466126
1168.841649,17692.094920,153.178311,8807.752882
1168.841952,19300.467186,153.178311,9190.698660
1168.842255,22440.622561,153.178311,8960.931193
1168.842558,21521.552695,1072.248177,9573.644437
1168.842861,21291.785229,1991.318043,9114.109504
1168.843164,19913.180430,1531.783110,8960.931193
1168.843482,15624.187722,1531.783110,10033.179370
1168.843774,14245.582923,1378.604799,10722.481770
1168.844066,14168.993767,612.713244,10875.660081
1168.844358,18764.343097,919.069866,10875.660081
1168.844650,25427.599626,1684.961421,9267.287815
1168.844942,27342.328513,306.356622,8960.931193
1168.845234,23666.049049,-2374.263820,10109.768526
1168.845526,17538.916609,-4825.116796,15241.241944
1168.845843,12024.497413,-4518.760174,16083.722655
1168.846152,9650.233593,-1608.372265,14168.993767
1168.846462,6893.023995,1072.248177,14015.815456
1168.846771,3599.690308,1072.248177,14092.404612
1168.847080,3140.155375,1225.426488,15624.187722
1168.847390,6433.489062,3063.566220,14705.117856
1168.847699,12637.210657,4748.527641,11794.729947
1168.848008,19300.467186,5437.830040,10109.768526
1168.848246,24508.529760,3829.457775,7505.737239
1168.848545,30176.127267,612.713244,6586.667373
1168.848844,31937.677843,-2680.620442,6127.132440
1168.849143,33699.228420,-7658.915550,5973.954129
1168.849442,33852.406731,-9650.233593,6663.256528
1168.849740,30176.127267,-10492.714303,8195.039638
1168.850039,24508.529760,-7658.915550,10416.125148
1168.850338,17232.559987,-3293.333686,12943.567279
1168.850629,10416.125148,1378.604799,12866.978124
1168.850927,306.356622,3063.566220,13709.458834
1168.851226,-11105.427547,4825.116796,16083.722655
1168.851525,-18381.397320,3982.636086,14781.707011
1168.851823,-17921.862387,459.534933,11794.729947
1168.852122,-13326.513057,-4212.403552,10262.946837
1168.852421,-6510.078217,-5820.775818,10109.768526
1168.852720,3599.690308,-4365.581863,9573.644437
1168.853027,17692.094920,1072.248177,5820.775818
1168.853328,26882.793580,5744.186662,4671.938485
1168.853629,25887.134559,5437.830040,8654.574571
1168.853931,22900.157494,5131.473418,10569.303459
1168.854232,20985.428607,3982.636086,9267.287815
1168.854534,13403.102212,-1302.015643,9420.466126
1168.854835,306.356622,-9190.698660,10799.070925
1168.855136,-16696.435899,-14705.117856,14781.707011
1168.855420,-24585.118915,-16083.722655,15624.187722
1168.855719,-27572.095980,-13249.923901,14628.528700
1168.856019,-25044.653848,-5820.775818,13786.047990
1168.856318,-18381.397320,1684.961421,13249.923901
1168.856618,-8731.163727,8348.217949,14934.885322
1168.856918,12484.032346,16466.668432,12637.210657
1168.857217,30788.840511,21291.785229,6969.613150
1168.857517,43043.105391,19760.002119,76.589155
1168.857812,43349.462013,11028.838392,229.767466
1168.858113,32090.856154,-536.124088,4442.171019
1168.858414,11871.319102,-11411.784169,9190.698660
1168.858715,-8884.342038,-20908.839451,12407.443191
1168.859015,-23436.281583,-24814.886382,13556.280523
1168.859316,-35307.600685,-24355.351449,15700.776877
1168.859617,-39596.593393,-19530.234652,17692.094920
1168.859918,-34541.709130,-8577.985416,16773.025054
1168.860230,-16466.668432,3829.457775,12713.799813
1168.860530,-3982.636086,9956.590215,10492.714303
1168.860830,9956.590215,12560.621502,8348.217949
1168.861130,22900.157494,16313.490121,5514.419196
1168.861430,26882.793580,15394.420255,3140.155375
1168.861730,28797.522468,9956.590215,2374.263820
1168.862030,21368.374384,2450.852976,4748.527641
1168.862330,10109.768526,-2986.977064,6663.256528
1168.862640,-3063.566220,-7812.093861,10722.481770
1168.862937,-16466.668432,-10339.535992,13786.047990
1168.863235,-19377.056341,-9726.822748,13862.637145
1168.863533,-19530.234652,-9343.876971,15164.652789
1168.863831,-15088.063633,-6586.667373,17155.970832
1168.864128,-4978.295107,-3599.690308,16236.900966
1168.864426,6893.023995,1991.318043,12713.799813
1168.864724,19913.180430,7275.969772,6280.310751
1168.865031,24661.708071,9267.287815,5131.473418
1168.865327,19606.823808,6663.256528,6969.613150
1168.865624,11871.319102,7888.683016,9573.644437
1168.865920,6893.023995,11182.016703,9420.466126
1168.866216,-2757.209598,8654.574571,9803.411904
1168.866513,-18994.110564,2604.031287,16313.490121
1168.866809,-23972.405671,306.356622,18228.219009
1168.867106,-23589.459894,153.178311,15624.187722
1168.867435,-21368.374384,-4365.581863,15241.241944
1168.867733,-12866.978124,-8884.342038,15317.831100
1168.868032,153.178311,-6280.310751,13020.156435
1168.868330,15317.831100,-3446.511997,7812.093861
1168.868628,23742.638205,-3906.046930,5514.419196
1168.868926,25580.777937,-4365.581863,5820.775818
1168.869224,24202.173138,-2374.263820,5514.419196
1168.869522,16773.025054,-536.124088,4901.705952
1168.869850,3293.333686,1991.318043,8501.396260
1168.870145,-6663.256528,3676.279464,8654.574571
1168.870440,-18228.219009,3676.279464,10262.946837
1168.870736,-24125.583982,2604.031287,14168.993767
1168.871031,-24278.762293,459.534933,14475.350389
1168.871327,-18381.397320,-76.589155,15088.063633
1168.871622,-8271.628794,-1148.837332,12790.388968
1168.871918,5973.954129,-1302.015643,7735.504705
1168.872206,15624.187722,-2986.977064,5820.775818
1168.872507,16236.900966,-8731.163727,6663.256528
1168.872808,12790.388968,-14322.172078,10416.125148
1168.873108,9420.466126,-15164.652789,9803.411904
1168.873409,4671.938485,-12177.675724,8654.574571
1168.873710,-382.945777,-9343.876971,7735.504705
1168.874011,-5591.008351,-2527.442131,9267.287815
1168.874312,-10186.357681,2604.031287,10722.481770
1168.874611,-12713.799813,8348.217949,13403.102212
1168.874911,-12713.799813,11794.729947,13556.280523
1168.875211,-8271.628794,12407.443191,11411.784169
1168.875511,-3829.457775,8960.931193,12101.086569
1168.875811,3752.868619,5744.186662,12560.621502
1168.876111,13556.280523,1531.783110,9650.233593
1168.876411,16926.203365,-3752.868619,9420.466126
1168.876711,14015.815456,-9343.876971,10722.481770
1168.877019,8654.574571,-13096.745590,11641.551636
1168.877317,1072.248177,-11411.784169,9880.001059
1168.877615,-4595.349330,-8577.985416,9573.644437
1168.877913,-9880.001059,-3599.690308,10262.946837
1168.878211,-13786.047990,765.891555,10722.481770
1168.878509,-16160.311810,5897.364973,14015.815456
1168.878807,-10492.714303,12254.264880,12330.854035
1168.879105,-4135.814397,17079.381676,9267.287815
1168.879422,2297.674665,17385.738298,8960.931193
1168.879720,5514.419196,13632.869679,10569.303459
1168.880019,10569.303459,9650.233593,9956.590215
1168.880317,13556.280523,1072.248177,7735.504705
1168.880616,7046.202306,-9190.698660,10722.481770
1168.880914,2374.263820,-16236.900966,11794.729947
1168.881213,612.713244,-18534.575631,8348.217949
1168.881511,-3829.457775,-18840.932253,9114.109504
1168.881825,-7352.558928,-18075.040698,11028.838392
1168.882125,-10339.535992,-10339.535992,11488.373325
1168.882425,-8577.985416,-229.767466,10109.768526
1168.882724,-4978.295107,6663.256528,11028.838392
1168.883024,-2450.852976,13020.156435,11258.605858
1168.883323,2527.442131,15853.955188,9803.411904
1168.883623,5361.240885,15853.955188,10109.768526
1168.883922,8501.396260,10109.768526,10262.946837
1168.884211,7429.148083,1072.248177,11028.838392
1168.884511,3293.333686,-8271.628794,12101.086569
1168.884810,1072.248177,-15164.652789,12713.799813
1168.885110,-1302.015643,-19530.234652,11641.551636
1168.885410,-1761.550576,-21368.374384,10569.303459
1168.885710,-3216.744531,-17309.149143,10262.946837
1168.886010,-1302.015643,-9497.055282,8195.039638
1168.886310,-229.767466,-842.480710,6663.256528
1168.886610,-2067.907198,5284.651729,9114.109504
1168.886909,-4595.349330,8960.931193,12330.854035
1168.887208,-2757.209598,11641.551636,12713.799813
1168.887507,-842.480710,13939.226301,11335.195014
1168.887807,5667.597507,13632.869679,10109.768526
1168.888106,9420.466126,10569.303459,8348.217949
1168.888405,7429.148083,4135.814397,9803.411904
1168.888704,3752.868619,-4059.225241,10875.660081
1168.889012,459.534933,-9880.001059,10492.714303
1168.889311,-2374.263820,-13249.923901,9190.698660
1168.889610,-4825.116796,-17462.327454,9803.411904
1168.889909,-7199.380617,-15777.366033,11641.551636
1168.890208,-3676.279464,-7658.915550,9267.287815
1168.890508,-842.480710,919.069866,7429.148083
1168.890807,-842.480710,8041.861327,10109.768526
1168.891106,-2604.031287,14245.582923,11488.373325
1168.891427,-1455.193954,18457.986475,10722.481770
1168.891727,306.356622,20219.537052,10799.070925
1168.892027,612.713244,15088.063633,12101.086569
1168.892328,-842.480710,6663.256528,12637.210657
1168.892628,-842.480710,-2067.907198,15011.474478
1168.892928,2297.674665,-7965.272172,12024.497413
1168.893229,4671.938485,-12790.388968,9803.411904
1168.893529,2144.496354,-16696.435899,10109.768526
1168.893848,2144.496354,-14858.296167,9880.001059
1168.894141,2297.674665,-9037.520349,8960.931193
1168.894435,-0.000000,-5361.240885,8501.396260
1168.894728,-5284.651729,-1148.837332,11947.908258
1168.895022,-7122.791461,3523.101153,13096.745590
1168.895315,-4135.814397,10569.303459,10722.481770
1168.895609,-1914.728887,13479.691368,10109.768526
1168.895903,765.891555,13173.334746,12101.086569
1168.896220,1378.604799,8807.752882,13403.102212
1168.896515,1378.604799,2604.031287,12560.621502
1168.896810,3140.155375,-3752.868619,11718.140791
1168.897106,3446.511997,-9343.876971,9114.109504
1168.897401,2986.977064,-15624.187722,7275.969772
1168.897696,3446.511997,-18381.397320,7735.504705
1168.897992,612.713244,-18994.110564,9573.644437
1168.898287,306.356622,-14168.993767,8348.217949
1168.898610,-0.000000,-5361.240885,7658.915550
1168.898907,-2757.209598,3369.922842,9114.109504
1168.899205,-3523.101153,8960.931193,9803.411904
1168.899502,-6816.434839,14475.350389,12560.621502
1168.899800,-1148.837332,17845.273231,11182.016703
1168.900097,1531.783110,16466.668432,9803.411904
1168.900394,-76.589155,9803.411904,11028.838392
1168.900692,-382.945777,-0.000000,11947.908258
1168.900999,-76.589155,-7812.093861,12330.854035
1168.901300,1225.426488,-13862.637145,11335.195014
1168.901601,1378.604799,-16236.900966,9803.411904
1168.901902,2297.674665,-15930.544344,8807.752882
1168.902202,3140.155375,-11258.605858,8960.931193
1168.902503,-536.124088,-5973.954129,9573.644437
1168.902804,-1148.837332,2450.852976,10569.303459
1168.903105,-2604.031287,8807.752882,10799.070925
1168.903385,-2221.085509,13020.156435,11335.195014
1168.903685,-2374.263820,15241.241944,12713.799813
1168.903985,-1761.550576,15241.241944,14475.350389
1168.904285,153.178311,11488.373325,12101.086569
1168.904585,1072.248177,6510.078217,11564.962480
1168.904884,-229.767466,-1302.015643,13249.923901
1168.905184,459.534933,-6280.310751,11182.016703
1168.905484,459.534933,-10339.535992,9573.644437
1168.905801,4059.225241,-11411.784169,8195.039638
1168.906101,3293.333686,-12943.567279,8807.752882
1168.906402,-842.480710,-11411.784169,9803.411904
1168.906703,-76.589155,-6739.845684,9573.644437
1168.907003,-536.124088,459.534933,8960.931193
1168.907304,-995.659021,5437.830040,8807.752882
1168.907604,-3982.636086,9803.411904,10875.660081
1168.907905,-689.302399,11182.016703,11411.784169
1168.908220,2527.442131,12560.621502,9573.644437
1168.908517,2833.798753,7888.683016,9267.287815
1168.908815,-229.767466,153.178311,12254.264880
1168.909112,-229.767466,-5667.597507,11335.195014
1168.909410,1838.139732,-7965.272172,8195.039638
1168.909708,2374.263820,-12484.032346,7505.737239
1168.910005,-2067.907198,-16849.614210,11335.195014
1168.910303,-3063.566220,-16083.722655,10952.249236
1168.910545,-2221.085509,-7658.915550,8501.396260
1168.910850,-842.480710,-536.124088,8960.931193
1168.911155,-2604.031287,4748.527641,10033.179370
1168.911460,-5437.830040,6510.078217,12407.443191
1168.911765,-2450.852976,11335.195014,13862.637145
1168.912070,-1608.372265,11641.551636,12713.799813
1168.912375,-1148.837332,9114.109504,11641.551636
1168.912680,2144.496354,3829.457775,10492.714303
1168.912993,5054.884263,-536.124088,11488.373325
1168.913292,7122.791461,-5514.419196,11182.016703
1168.913591,7888.683016,-8118.450483,9420.466126
1168.913889,8654.574571,-10339.535992,8807.752882
1168.914188,4059.225241,-11105.427547,9267.287815
1168.914487,-3982.636086,-9880.001059,9803.411904
1168.914786,-9037.520349,-4825.116796,11335.195014
1168.915084,-13173.334746,-382.945777,13403.102212
1168.915391,-13173.334746,4288.992708,12713.799813
1168.915691,-6050.543284,9803.411904,11641.551636
1168.915991,-382.945777,13326.513057,11182.016703
1168.916291,4212.403552,10262.946837,9650.233593
1168.916590,6893.023995,5897.364973,9573.644437
1168.916890,9420.466126,612.713244,10262.946837
1168.917190,11028.838392,-3446.511997,8041.861327
1168.917490,7888.683016,-7965.272172,6969.613150
1168.917786,4901.705952,-11564.962480,7888.683016
1168.918087,1531.783110,-14168.993767,8960.931193
1168.918387,-2450.852976,-12943.567279,9114.109504
1168.918687,-4288.992708,-6127.132440,9726.822748
1168.918988,-9343.876971,-229.767466,11564.962480
1168.919288,-9497.055282,5744.186662,12177.675724
1168.919588,-7352.558928,12254.264880,12024.497413
1168.919889,-5284.651729,14475.350389,12943.567279
1168.920183,-1761.550576,11488.373325,12407.443191
1168.920484,-536.124088,7735.504705,12407.443191
1168.920785,4212.403552,1991.318043,11411.784169
1168.921086,8960.931193,-3140.155375,8348.217949
1168.921387,9956.590215,-6739.845684,7582.326394
1168.921688,9420.466126,-11258.605858,8041.861327
1168.921989,1991.318043,-14015.815456,10875.660081
1168.922290,-3523.101153,-10952.249236,11641.551636
1168.922578,-6816.434839,-6127.132440,10875.660081
1168.922878,-9497.055282,-76.589155,12254.264880
1168.923179,-8884.342038,3523.101153,12407.443191
1168.923480,-8271.628794,8348.217949,12790.388968
1168.923781,-1608.372265,12866.978124,14398.761234
1168.924082,1991.318043,12101.086569,12637.210657
1168.924382,5514.419196,9573.644437,10722.481770
1168.924683,7888.683016,4748.527641,9803.411904
1168.924992,7046.202306,-995.659021,9420.466126
1168.925292,4518.760174,-7199.380617,8960.931193
1168.925591,919.069866,-10186.357681,8501.396260
1168.925890,612.713244,-13096.745590,9573.644437
1168.926190,-1761.550576,-12024.497413,9267.287815
1168.926489,-4748.527641,-8577.985416,9037.520349
1168.926789,-5284.651729,-2833.798753,9803.411904
1168.927088,-7199.380617,612.713244,10952.249236
1168.927395,-4748.527641,4978.295107,10569.303459
1168.927695,-1761.550576,7735.504705,11028.838392
1168.927994,919.069866,8348.217949,11947.908258
1168.928294,7275.969772,6510.078217,8960.931193
1168.928594,8195.039638,5284.651729,7199.380617
1168.928894,8654.574571,1072.248177,7735.504705
1168.929193,2374.263820,-5361.240885,10186.357681
1168.929493,-2757.209598,-10645.892614,11182.016703
1168.929789,-2910.387909,-9726.822748,10262.946837
1168.930087,-4288.992708,-10186.357681,9880.001059
1168.930384,-7122.791461,-8271.628794,9267.287815
1168.930681,-7965.272172,-4212.403552,12407.443191
1168.930979,-6050.543284,306.356622,13096.745590
1168.931276,-76.589155,4825.116796,11028.838392
1168.931574,1838.139732,7582.326394,11488.373325
1168.931871,3446.511997,7429.148083,12713.799813
1168.932185,3446.511997,6356.899906,12101.086569
1168.932484,4059.225241,5897.364973,10569.303459
1168.932783,6739.845684,1531.783110,10339.535992
1168.933082,2144.496354,-3752.868619,11028.838392
1168.933380,-0.000000,-4825.116796,11105.427547
1168.933679,306.356622,-4518.760174,9803.411904
1168.933978,-1455.193954,-3599.690308,11028.838392
1168.934276,-2450.852976,-4059.225241,9726.822748
1168.934611,-5131.473418,-3599.690308,11641.551636
1168.934905,-4288.992708,-1608.372265,12254.264880
1168.935198,-1455.193954,2144.496354,8884.342038
1168.935491,-2910.387909,2604.031287,9956.590215
1168.935785,-76.589155,2450.852976,11488.373325
1168.936078,-536.124088,2450.852976,12101.086569
1168.936371,1838.139732,1991.318043,10109.768526
1168.936664,1991.318043,919.069866,8348.217949
1168.936964,1991.318043,-1608.372265,9573.644437
1168.937264,2986.977064,-3906.046930,8041.861327
1168.937564,2527.442131,-5514.419196,8654.574571
1168.937864,2680.620442,-7199.380617,8960.931193
1168.938164,1072.248177,-6280.310751,9880.001059
1168.938464,-842.480710,-4518.760174,10033.179370
1168.938764,-76.589155,-0.000000,9573.644437
1168.939064,-1761.550576,2910.387909,9956.590215
1168.939371,-3063.566220,4135.814397,10569.303459
1168.939670,-3829.457775,2757.209598,12101.086569
1168.939970,-3216.744531,2910.387909,13096.745590
1168.940269,-2067.907198,1378.604799,11794.729947
1168.940568,-3523.101153,-689.302399,11411.784169
1168.940867,-1608.372265,-1761.550576,11335.195014
1168.941167,2144.496354,-2221.085509,10339.535992
1168.941466,2144.496354,-2833.798753,10722.481770
1168.941786,4518.760174,-1608.372265,9880.001059
1168.942083,4901.705952,-76.589155,10033.179370
1168.942381,1991.318043,-689.302399,8960.931193
1168.942678,919.069866,1225.426488,9420.466126
1168.942975,-2757.209598,2297.674665,11641.551636
1168.943272,-6203.721595,765.891555,12943.567279
1168.943569,-6510.078217,1225.426488,13862.637145
1168.943866,-2450.852976,2910.387909,12790.388968
1168.944184,-0.000000,1378.604799,10952.249236
1168.944483,-1455.193954,-1914.728887,10952.249236
1168.944781,-1914.728887,-4365.581863,12254.264880
1168.945079,2680.620442,-4059.225241,9956.590215
1168.945377,5361.240885,-4059.225241,6816.434839
1168.945675,4365.581863,-4901.705952,7122.791461
1168.945973,2144.496354,-4059.225241,8731.163727
1168.946272,306.356622,-3140.155375,8807.752882
1168.946585,-1455.193954,-1455.193954,9114.109504
1168.946889,-689.302399,612.713244,9956.590215
1168.947193,-2910.387909,1225.426488,9956.590215
1168.947497,-3676.279464,2604.031287,10033.179370
1168.947801,-842.480710,3216.744531,11488.373325
1168.948105,612.713244,1225.426488,11335.195014
1168.948410,919.069866,-1148.837332,11182.016703
1168.948714,2527.442131,-3906.046930,11335.195014
1168.948952,3906.046930,-4212.403552,10416.125148
1168.949252,6280.310751,-2986.977064,7735.504705
1168.949552,4748.527641,-2986.977064,8041.861327
1168.949852,459.534933,-4059.225241,11028.838392
1168.950152,-3523.101153,-229.767466,12713.799813
1168.950452,-6663.256528,2757.209598,11105.427547
1168.950752,-7965.272172,5131.473418,11182.016703
1168.951052,-9037.520349,5897.364973,13020.156435
1168.951359,-7505.737239,5897.364973,12560.621502
1168.951660,-2757.209598,6663.256528,12024.497413
1168.951961,1991.318043,4978.295107,13249.923901
1168.952262,3140.155375,-229.767466,11794.729947
1168.952563,3906.046930,-3140.155375,12101.086569
1168.952864,8348.217949,-3906.046930,10416.125148
1168.953165,8195.039638,-4825.116796,8348.217949
1168.953466,5667.597507,-5820.775818,9114.109504
1168.953780,3140.155375,-4901.705952,8807.752882
1168.954080,-0.000000,-2221.085509,9573.644437
1168.954379,-4442.171019,-995.659021,10109.768526
1168.954679,-9343.876971,1225.426488,10339.535992
1168.954978,-9497.055282,4135.814397,11028.838392
1168.955277,-10033.179370,4288.992708,11028.838392
1168.955577,-7965.272172,2297.674665,12254.264880
1168.955876,-1455.193954,1838.139732,12407.443191
1168.956195,5820.775818,-0.000000,9803.411904
1168.956491,10569.303459,-3293.333686,7429.148083
1168.956787,10722.481770,-7965.272172,8577.985416
1168.957083,9420.466126,-10952.249236,7505.737239
1168.957379,7275.969772,-12943.567279,8348.217949
1168.957675,4212.403552,-10952.249236,8271.628794
1168.957971,1225.426488,-7965.272172,8041.861327
1168.958268,-3369.922842,-2527.442131,8654.574571
1168.958568,-8271.628794,3063.566220,10875.660081
1168.958865,-9726.822748,6816.434839,12101.086569
1168.959163,-8271.628794,8960.931193,13096.745590
1168.959461,-7122.791461,10875.660081,14092.404612
1168.959758,-2604.031287,9573.644437,12790.388968
1168.960056,-1761.550576,5897.364973,13632.869679
1168.960354,2144.496354,1225.426488,12484.032346
1168.960651,6127.132440,-3752.868619,10262.946837
1168.960951,8348.217949,-7658.915550,10033.179370
1168.961251,7888.683016,-10492.714303,9956.590215
1168.961551,5361.240885,-7505.737239,9803.411904
1168.961851,6127.132440,-1455.193954,8807.752882
1168.962151,2527.442131,1531.783110,8731.163727
1168.962451,-6663.256528,4595.349330,11641.551636
1168.962751,-9190.698660,8195.039638,13249.923901
1168.963051,-8424.807105,12101.086569,11641.551636
1168.963382,-6050.543284,11488.373325,10569.303459
1168.963679,-5744.186662,6816.434839,13556.280523
1168.963976,-3369.922842,2910.387909,13862.637145
1168.964272,1072.248177,-1148.837332,12560.621502
1168.964569,2986.977064,-7046.202306,10262.946837
1168.964866,5514.419196,-11105.427547,9343.876971
1168.965163,4212.403552,-12637.210657,8195.039638
1168.965460,4365.581863,-12024.497413,6739.845684
1168.965768,5208.062574,-9726.822748,7275.969772
1168.966068,3140.155375,-6739.845684,7888.683016
1168.966368,-689.302399,-3140.155375,8807.752882
1168.966668,-3676.279464,1531.783110,10416.125148
1168.966967,-2757.209598,6510.078217,9650.233593
1168.967267,-1455.193954,9420.466126,9420.466126
1168.967567,-3369.922842,6510.078217,10952.249236
1168.967867,-2221.085509,2450.852976,13403.102212
1168.968150,-76.589155,-536.124088,12790.388968
1168.968453,612.713244,-5054.884263,12024.497413
1168.968756,3752.868619,-8884.342038,10186.357681
1168.969059,5361.240885,-10033.179370,9114.109504
1168.969362,5054.884263,-11411.784169,9573.644437
1168.969664,2833.798753,-9343.876971,10722.481770
1168.969967,1991.318043,-3599.690308,10262.946837
1168.970270,1991.318043,2450.852976,8654.574571
1168.970552,-2374.263820,5897.364973,9267.287815
1168.970855,-5131.473418,10416.125148,11947.908258
1168.971157,-6663.256528,13632.869679,10799.070925
1168.971460,-9190.698660,11335.195014,13249.923901
1168.971763,-6969.613150,7735.504705,15547.598566
1168.972065,-3369.922842,5437.830040,14015.815456
1168.972368,-76.589155,612.713244,11794.729947
1168.972671,3140.155375,-3293.333686,10262.946837
1168.972902,4365.581863,-8118.450483,11182.016703
1168.973210,7582.326394,-9650.233593,9956.590215
1168.973517,8348.217949,-9650.233593,7965.272172
1168.973825,5667.597507,-8424.807105,8041.861327
1168.974132,1838.139732,-7046.202306,7812.093861
1168.974440,-4288.992708,-2527.442131,9267.287815
1168.974747,-6050.543284,1684.961421,9267.287815
1168.975054,-8577.985416,5437.830040,9343.876971
1168.975368,-8884.342038,6816.434839,10952.249236
1168.975666,-6356.899906,10109.768526,12254.264880
1168.975964,-842.480710,9114.109504,10186.357681
1168.976262,919.069866,3063.566220,10645.892614
1168.976560,919.069866,-4825.116796,12637.210657
1168.976857,5667.597507,-9037.520349,12101.086569
1168.977155,10262.946837,-11105.427547,8271.628794
1168.977453,10875.660081,-13096.745590,5897.364973
1168.977760,7046.202306,-16236.900966,8041.861327
1168.978060,2986.977064,-12943.567279,9573.644437
1168.978360,612.713244,-5973.954129,8960.931193
1168.978660,-4442.171019,765.891555,9803.411904
1168.978959,-10645.892614,6203.721595,12713.799813
1168.979259,-11947.908258,12866.978124,13403.102212
1168.979559,-8577.985416,18151.629853,12254.264880
1168.979859,-4135.814397,18764.343097,10952.249236
1168.980155,-2067.907198,13786.047990,12637.210657
1168.980454,-1608.372265,5744.186662,14475.350389
1168.980753,3752.868619,-229.767466,12560.621502
1168.981052,9803.411904,-5667.597507,9420.466126
1168.981350,9497.055282,-11411.784169,8348.217949
1168.981649,7046.202306,-15777.366033,9420.466126
1168.981948,3906.046930,-15624.187722,10875.660081
1168.982247,459.534933,-9726.822748,9650.233593
1168.982542,-4288.992708,-4518.760174,9114.109504
1168.982842,-9497.055282,1838.139732,10569.303459
1168.983142,-10952.249236,8654.574571,10109.768526
1168.983442,-9497.055282,13632.869679,11182.016703
1168.983742,-5591.008351,15088.063633,12790.388968
1168.984042,-1302.015643,12407.443191,12407.443191
1168.984343,2986.977064,5744.186662,11182.016703
1168.984643,6893.023995,-382.945777,8884.342038
1168.984954,9650.233593,-7505.737239,7735.504705
1168.985252,9114.109504,-13556.280523,7122.791461
1168.985549,4365.581863,-20908.839451,7735.504705
1168.985847,1378.604799,-23512.870738,10875.660081
1168.986144,1225.426488,-18534.575631,8501.396260
1168.986442,-2374.263820,-10645.892614,7888.683016
1168.986739,-4288.992708,-2833.798753,8195.039638
1168.987036,-6969.613150,4135.814397,10952.249236
1168.987346,-6050.543284,9956.590215,11794.729947
1168.987645,-3369.922842,14781.707011,11718.140791
1168.987944,-1914.728887,14781.707011,12713.799813
1168.988244,1072.248177,10416.125148,11794.729947
1168.988543,1378.604799,4135.814397,12713.799813
1168.988843,6739.845684,765.891555,11641.551636
1168.989142,6739.845684,-5054.884263,10416.125148
1168.989441,3906.046930,-9880.001059,10875.660081
1168.989749,3752.868619,-10799.070925,10416.125148
1168.990047,-842.480710,-9190.698660,11182.016703
1168.990345,-3982.636086,-6280.310751,9956.590215
1168.990643,-6816.434839,-76.589155,10416.125148
1168.990941,-6663.256528,6663.256528,12101.086569
1168.991239,-3829.457775,11335.195014,11258.605858
1168.991537,-1914.728887,15088.063633,11564.962480
1168.991835,1225.426488,15547.598566,12713.799813
1168.992152,2527.442131,11335.195014,11028.838392
1168.992450,1225.426488,5897.364973,11794.729947
1168.992749,3599.690308,-1148.837332,10109.768526
1168.993047,2680.620442,-7965.272172,9420.466126
1168.993346,1991.318043,-12943.567279,9956.590215
1168.993644,2374.263820,-14858.296167,8960.931193
1168.993942,1531.783110,-14551.939545,8960.931193
1168.994241,153.178311,-12790.388968,7888.683016
1168.994555,-4748.527641,-9343.876971,9420.466126
1168.994854,-4978.295107,-2527.442131,9497.055282
1168.995153,-4135.814397,2604.031287,8960.931193
1168.995451,-3063.566220,8195.039638,9803.411904
1168.995750,-1608.372265,9956.590215,10569.303459
1168.996049,-382.945777,7275.969772,12254.264880
1168.996347,1838.139732,3676.279464,10722.481770
1168.996646,2527.442131,-1761.550576,10875.660081
1168.996958,2986.977064,-7965.272172,11488.373325
1168.997254,4365.581863,-10645.892614,9343.876971
1168.997551,4901.705952,-13249.923901,9803.411904
1168.997847,4059.225241,-12637.210657,9650.233593
1168.998144,3140.155375,-9497.055282,9956.590215
1168.998441,-1148.837332,-3446.511997,10109.768526
1168.998737,-2604.031287,1991.318043,9956.590215
1168.999034,-4748.527641,8807.752882,11564.962480
1168.999333,-4825.116796,12866.978124,11641.551636
1168.999632,-3982.636086,15700.776877,12713.799813
1168.999932,-1608.372265,15394.420255,12254.264880
1169.000231,-842.480710,11488.373325,12790.388968
1169.000530,-2067.907198,4748.527641,12407.443191
1169.000829,-229.767466,-1761.550576,13096.745590
1169.001129,919.069866,-7199.380617,11335.195014
1169.001428,2297.674665,-10492.714303,10109.768526
1169.001735,3293.333686,-12177.675724,9650.233593
1169.002034,2527.442131,-11105.427547,8654.574571
1169.002333,153.178311,-8118.450483,8654.574571
1169.002633,-2374.263820,-4365.581863,9114.109504
1169.002932,-1761.550576,1378.604799,9650.233593
1169.003231,-995.659021,5744.186662,9420.466126
1169.003530,-1761.550576,8501.396260,10109.768526
1169.003830,1991.318043,12101.086569,10033.179370
1169.004150,1378.604799,10109.768526,10569.303459
1169.004450,-995.659021,4442.171019,10569.303459
1169.004751,-1455.193954,-3140.155375,10875.660081
1169.005051,612.713244,-7658.915550,10109.768526
1169.005352,2833.798753,-12484.032346,9037.520349
1169.005652,2527.442131,-16236.900966,9114.109504
1169.005952,2680.620442,-16083.722655,9190.698660
1169.006253,3752.868619,-14015.815456,9420.466126
1169.006571,153.178311,-9650.233593,10416.125148
1169.006865,-1302.015643,-2374.263820,11258.605858
1169.007158,-2067.907198,5131.473418,9573.644437
1169.007452,-3216.744531,11182.016703,9956.590215
1169.007745,-3369.922842,13632.869679,11488.373325
1169.008039,-4978.295107,13939.226301,13403.102212
1169.008333,-2604.031287,11488.373325,12560.621502
1169.008626,-1608.372265,6969.613150,12560.621502
1169.008972,1531.783110,1072.248177,13173.334746
1169.009264,2680.620442,-2833.798753,12101.086569
1169.009557,1531.783110,-7812.093861,11028.838392
1169.009850,5208.062574,-9650.233593,10416.125148
1169.010142,4518.760174,-10492.714303,10722.481770
1169.010435,612.713244,-9497.055282,9114.109504
1169.010728,-229.767466,-4901.705952,8118.450483
1169.011020,-2450.852976,612.713244,10109.768526
1169.011320,-2757.209598,4288.992708,10262.946837
1169.011621,-4442.171019,8195.039638,12254.264880
1169.011922,-4288.992708,11488.373325,11947.908258
1169.012222,-1455.193954,10722.481770,9880.001059
1169.012523,-3523.101153,5131.473418,12024.497413
1169.012824,-1455.193954,306.356622,11258.605858
1169.013125,3446.511997,-2986.977064,9420.466126
1169.013425,4671.938485,-8271.628794,9343.876971
1169.013732,6280.310751,-11258.605858,9420.466126
1169.014029,5820.775818,-12943.567279,9420.466126
1169.014326,4671.938485,-12024.497413,7735.504705
1169.014623,2297.674665,-9497.055282,6280.310751
1169.014920,-2067.907198,-5514.419196,8348.217949
1169.015217,-6050.543284,-3293.333686,9956.590215
1169.015514,-7812.093861,-995.659021,11641.551636
1169.015811,-5591.008351,4595.349330,13403.102212
1169.016119,-1302.015643,7582.326394,12254.264880
1169.016418,153.178311,8041.861327,10875.660081
1169.016717,2833.798753,7888.683016,10416.125148
1169.017016,4671.938485,4595.349330,10109.768526
1169.017315,4671.938485,-689.302399,10262.946837
1169.017614,3140.155375,-5667.597507,11335.195014
1169.017913,2986.977064,-8424.807105,10416.125148
1169.018212,2527.442131,-9190.698660,9803.411904
1169.018528,-2910.387909,-8271.628794,10875.660081
1169.018827,-1761.550576,-3599.690308,9726.822748
1169.019127,-2757.209598,2910.387909,10722.481770
1169.019426,-4135.814397,6663.256528,12560.621502
1169.019725,-4825.116796,9420.466126,13096.745590
1169.020024,-3523.101153,11028.838392,12560.621502
1169.020323,-0.000000,11488.373325,10875.660081
1169.020622,-536.124088,6816.434839,12101.086569
1169.020968,1991.318043,2297.674665,11871.319102
1169.021262,5054.884263,-76.589155,9114.109504
1169.021557,5208.062574,-5208.062574,7735.504705
1169.021851,3140.155375,-10033.179370,10109.768526
1169.022146,1531.783110,-12484.032346,9803.411904
1169.022440,459.534933,-9650.233593,9267.287815
1169.022735,-1302.015643,-6739.845684,8731.163727
1169.023029,-3523.101153,-2374.263820,9880.001059
1169.023271,-3982.636086,1531.783110,9956.590215
1169.023576,-4825.116796,3216.744531,10722.481770
1169.023881,-2374.263820,5437.830040,12101.086569
1169.024186,-382.945777,3523.101153,11028.838392
1169.024491,-1455.193954,1684.961421,11488.373325
1169.024796,2986.977064,-229.767466,9956.590215
1169.025101,5208.062574,-995.659021,8654.574571
1169.025406,4748.527641,-4365.581863,8807.752882
1169.025720,2833.798753,-8271.628794,9650.233593
1169.026019,1072.248177,-8424.807105,10262.946837
1169.026317,1072.248177,-5973.954129,9267.287815
1169.026616,-2604.031287,-4671.938485,9267.287815
1169.026915,-4288.992708,-2833.798753,10875.660081
1169.027213,-4825.116796,153.178311,12254.264880
1169.027512,-4442.171019,2604.031287,12713.799813
1169.027811,-2450.852976,4748.527641,13403.102212
1169.028118,-382.945777,6816.434839,11947.908258
1169.028415,1072.248177,6510.078217,10722.481770
1169.028712,1991.318043,4595.349330,9650.233593
1169.029010,3140.155375,2757.209598,8501.396260
1169.029307,2527.442131,-2221.085509,9420.466126
1169.029604,-2450.852976,-9343.876971,11258.605858
1169.029901,-1455.193954,-8884.342038,12560.621502
1169.030199,1991.318043,-6280.310751,9420.466126
1169.030528,765.891555,-3906.046930,7582.326394
1169.030824,-0.000000,-2221.085509,9420.466126
1169.031119,-689.302399,2450.852976,10416.125148
1169.031415,1378.604799,4595.349330,10416.125148
1169.031711,-1302.015643,3523.101153,11335.195014
1169.032006,-2757.209598,612.713244,12560.621502
1169.032302,-2757.209598,-689.302399,11794.729947
1169.032598,-2450.852976,-1761.550576,10569.303459
1169.032925,306.356622,-3446.511997,9343.876971
1169.033221,765.891555,-3293.333686,8960.931193
1169.033517,-76.589155,-4365.581863,10952.249236
1169.033814,4518.760174,-76.589155,9420.466126
1169.034110,5208.062574,2757.209598,9190.698660
1169.034406,1991.318043,1684.961421,9803.411904
1169.034702,1225.426488,612.713244,10186.357681
1169.034999,-1302.015643,2604.031287,11028.838392
1169.035310,-76.589155,2757.209598,10339.535992
1169.035608,-2604.031287,919.069866,11641.551636
1169.035905,-2604.031287,-0.000000,12254.264880
1169.036203,-3063.566220,-1455.193954,12330.854035
1169.036500,-6203.721595,-3906.046930,12713.799813
1169.036797,-2221.085509,-3293.333686,10645.892614
1169.037095,1225.426488,-1302.015643,8807.752882
1169.037392,4518.760174,-1608.372265,9190.698660
1169.037701,2527.442131,-1608.372265,11182.016703
1169.038000,2986.977064,459.534933,10109.768526
1169.038298,3599.690308,1072.248177,8348.217949
1169.038597,612.713244,2450.852976,10109.768526
1169.038895,-536.124088,1991.318043,10875.660081
1169.039194,-2067.907198,2297.674665,10109.768526
1169.039492,-2757.209598,1225.426488,11641.551636
1169.039791,-76.589155,-0.000000,11641.551636
1169.040098,-1455.193954,-842.480710,11028.838392
1169.040398,-3216.744531,-3446.511997,11794.729947
1169.040699,-4288.992708,-6893.023995,10722.481770
1169.040999,-689.302399,-5361.240885,9956.590215
1169.041300,1531.783110,-5820.775818,9573.644437
1169.041600,1838.139732,-6586.667373,10109.768526
1169.041901,3752.868619,-2221.085509,11028.838392
1169.042201,5514.419196,1838.139732,8501.396260
1169.042498,459.534933,1838.139732,9420.466126
1169.042801,-1761.550576,3063.566220,10875.660081
1169.043103,-3216.744531,4748.527641,9803.411904
1169.043406,-4288.992708,3676.279464,10875.660081
1169.043709,-4595.349330,1991.318043,12560.621502
1169.044012,-2067.907198,-382.945777,12407.443191
1169.044315,3140.155375,-2680.620442,10262.946837
1169.044618,2374.263820,-4671.938485,9803.411904
1169.044910,4671.938485,-4365.581863,9114.109504
1169.045207,3446.511997,-5514.419196,9114.109504
1169.045504,-995.659021,-8884.342038,11335.195014
1169.045801,-689.302399,-6280.310751,11641.551636
1169.046098,-1302.015643,-3752.868619,10033.179370
1169.046395,-1455.193954,-76.589155,8195.039638
1169.046692,-1761.550576,1838.139732,8960.931193
1169.046990,-1761.550576,4288.992708,9650.233593
1169.047301,-536.124088,5131.473418,10109.768526
1169.047599,-2374.263820,3063.566220,12101.086569
1169.047897,-2604.031287,612.713244,12330.854035
1169.048196,-0.000000,1072.248177,12330.854035
1169.048494,-0.000000,-1914.728887,10262.946837
1169.048792,5820.775818,-2374.263820,9420.466126
1169.049090,4901.705952,-4212.403552,9650.233593
1169.049388,3906.046930,-4365.581863,10262.946837
1169.049705,3293.333686,-4365.581863,10262.946837
1169.050003,1531.783110,-1761.550576,10416.125148
1169.050301,-1914.728887,1072.248177,10109.768526
1169.050600,-6356.899906,2757.209598,11641.551636
1169.050898,-5897.364973,8041.861327,11947.908258
1169.051196,-1761.550576,10109.768526,10262.946837
1169.051495,-2450.852976,8960.931193,10262.946837
1169.051793,-2604.031287,4825.116796,12407.443191
1169.052100,-995.659021,2450.852976,13096.745590
1169.052402,153.178311,-2067.907198,12790.388968
1169.052703,2144.496354,-5054.884263,10569.303459
1169.053004,5208.062574,-5667.597507,9803.411904
1169.053306,4365.581863,-7965.272172,9497.055282
1169.053607,4365.581863,-9650.233593,8577.985416
1169.053909,2527.442131,-6739.845684,9267.287815
1169.054210,306.356622,-4365.581863,9803.411904
1169.054527,-4748.527641,-3752.868619,9573.644437
1169.054820,-5744.186662,-0.000000,9573.644437
1169.055114,-6816.434839,3982.636086,9267.287815
1169.055408,-6356.899906,3676.279464,10875.660081
1169.055701,-5131.473418,3216.744531,12101.086569
1169.055995,306.356622,2910.387909,12101.086569
1169.056289,4059.225241,-842.480710,10109.768526
1169.056583,2833.798753,-5973.954129,10875.660081
1169.056901,5361.240885,-8424.807105,10109.768526
1169.057200,7275.969772,-10033.179370,8654.574571
1169.057498,3752.868619,-11718.140791,7888.683016
1169.057796,3293.333686,-9343.876971,9726.822748
1169.058094,1531.783110,-4825.116796,9420.466126
1169.058392,-1455.193954,-842.480710,8731.163727
1169.058691,-2757.209598,3982.636086,9803.411904
1169.058989,-4595.349330,7888.683016,10262.946837
1169.059302,-6816.434839,9573.644437,12484.032346
1169.059600,-5591.008351,9114.109504,14092.404612
1169.059899,-2374.263820,8654.574571,12407.443191
1169.060197,2374.263820,7275.969772,12101.086569
1169.060496,1684.961421,459.534933,10416.125148
1169.060794,306.356622,-5820.775818,12713.799813
1169.061093,1378.604799,-9037.520349,12407.443191
1169.061391,4059.225241,-9190.698660,10262.946837
1169.061691,4901.705952,-7046.202306,9343.876971
1169.061991,2527.442131,-4518.760174,8501.396260
1169.062292,-382.945777,459.534933,8041.861327
1169.062593,-2757.209598,2297.674665,9267.287815
1169.062894,-4442.171019,4748.527641,10952.249236
1169.063194,-4442.171019,5437.830040,11564.962480
1169.063495,-4825.116796,5897.364973,12484.032346
1169.063796,612.713244,5591.008351,10952.249236
1169.064137,3906.046930,3676.279464,10645.892614
1169.064429,2374.263820,-3140.155375,10722.481770
1169.064721,459.534933,-6433.489062,10875.660081
1169.065013,919.069866,-8884.342038,11182.016703
1169.065305,2680.620442,-9497.055282,8501.396260
1169.065597,3293.333686,-9343.876971,7505.737239
1169.065889,1531.783110,-7199.380617,8807.752882
1169.066181,-2067.907198,-5973.954129,9803.411904
1169.066542,-7199.380617,-2986.977064,12407.443191
1169.066838,-4825.116796,1378.604799,11182.016703
1169.067134,-1761.550576,7275.969772,8884.342038
1169.067430,306.356622,7735.504705,10569.303459
1169.067726,-1148.837332,6050.543284,11335.195014
1169.068022,1991.318043,5591.008351,12101.086569
1169.068319,3599.690308,2757.209598,12101.086569
1169.068615,2527.442131,-2680.620442,10875.660081
1169.068888,2374.263820,-4212.403552,11564.962480
1169.069190,2297.674665,-4365.581863,10569.303459
1169.069493,2374.263820,-4901.705952,8960.931193
1169.069796,2833.798753,-4059.225241,9880.001059
1169.070098,-689.302399,-689.302399,10262.946837
1169.070401,-4288.992708,919.069866,10033.179370
1169.070703,-4288.992708,5131.473418,9573.644437
1169.071006,-3676.279464,6969.613150,11182.016703
1169.071323,-3063.566220,5284.651729,11335.195014
1169.071618,-4595.349330,3369.922842,12330.854035
1169.071914,-0.000000,2450.852976,11718.140791
1169.072209,765.891555,-995.659021,11335.195014
1169.072504,-1455.193954,-6280.310751,10875.660081
1169.072799,1378.604799,-8118.450483,9650.233593
1169.073095,3140.155375,-9650.233593,9650.233593
1169.073390,4518.760174,-9037.520349,9114.109504
1169.073690,4518.760174,-7658.915550,8501.396260
1169.073987,4212.403552,-4365.581863,9267.287815
1169.074285,4059.225241,-2986.977064,6663.256528
1169.074582,-1608.372265,-229.767466,8195.039638
1169.074880,-3676.279464,1072.248177,9650.233593
1169.075177,-8731.163727,1072.248177,12560.621502
1169.075474,-9573.644437,612.713244,14781.707011
1169.075772,-3829.457775,2604.031287,11488.373325
1169.076102,-995.659021,3369.922842,10033.179370
1169.076399,-1608.372265,-689.302399,12254.264880
1169.076696,919.069866,-2833.798753,11641.551636
1169.076993,5054.884263,-2833.798753,10416.125148
1169.077290,8348.217949,-5514.419196,8501.396260
1169.077587,4901.705952,-8271.628794,9650.233593
1169.077884,3906.046930,-5820.775818,11335.195014
1169.078181,5973.954129,-1914.728887,7812.093861
1169.078454,2374.263820,1072.248177,8884.342038
1169.078759,459.534933,5591.008351,10722.481770
1169.079063,-5131.473418,9114.109504,10875.660081
1169.079368,-5591.008351,12407.443191,10262.946837
1169.079673,-4595.349330,12254.264880,10416.125148
1169.079978,-5284.651729,8654.574571,12713.799813
1169.080283,-7505.737239,1991.318043,14475.350389
1169.080588,-8271.628794,-2374.263820,14398.761234
1169.080871,765.891555,-4059.225241,11105.427547
1169.081174,6433.489062,-6586.667373,8424.807105
1169.081476,6127.132440,-11105.427547,9803.411904
1169.081779,5667.597507,-10645.892614,9267.287815
1169.082082,6739.845684,-6433.489062,8348.217949
1169.082385,3293.333686,-5208.062574,7429.148083
1169.082688,-1914.728887,-2680.620442,8118.450483
1169.082991,-6969.613150,1225.426488,11488.373325
1169.083273,-6356.899906,5284.651729,10033.179370
1169.083575,-5591.008351,6050.543284,10569.303459
1169.083876,-3982.636086,5131.473418,13096.745590
1169.084178,-4288.992708,2144.496354,13709.458834
1169.084480,-2604.031287,-536.124088,12790.388968
1169.084782,4059.225241,-1302.015643,9956.590215
1169.085084,6127.132440,-5820.775818,9573.644437
1169.085386,5514.419196,-10186.357681,9650.233593
1169.085676,6127.132440,-10033.179370,9190.698660
1169.085975,6127.132440,-8884.342038,8960.931193
1169.086274,3140.155375,-6739.845684,7888.683016
1169.086573,-3369.922842,-4365.581863,9114.109504
1169.086873,-5131.473418,765.891555,9956.590215
1169.087172,-6510.078217,5744.186662,10875.660081
1169.087471,-5897.364973,7735.504705,12024.497413
1169.087770,-3216.744531,9803.411904,12101.086569
1169.088079,-995.659021,7735.504705,12713.799813
1169.088378,765.891555,3369.922842,10569.303459
1169.088676,2833.798753,612.713244,9956.590215
1169.088975,3906.046930,-3446.511997,11028.838392
1169.089273,1225.426488,-8884.342038,11488.373325
1169.089572,919.069866,-10952.249236,10952.249236
1169.089870,4901.705952,-9190.698660,9497.055282
1169.090169,3293.333686,-4901.705952,7658.915550
1169.090476,-689.302399,-2680.620442,7122.791461
1169.090776,-4135.814397,1991.318043,8807.752882
1169.091075,-4288.992708,7429.148083,10952.249236
1169.091375,-4978.295107,8348.217949,11488.373325
1169.091675,-6203.721595,8041.861327,11182.016703
1169.091975,-4288.992708,7275.969772,13709.458834
1169.092274,-1455.193954,3216.744531,12713.799813
1169.092574,306.356622,-536.124088,11488.373325
1169.092871,3599.690308,-4212.403552,11718.140791
1169.093171,4671.938485,-6127.132440,10569.303459
1169.093472,4901.705952,-6893.023995,9726.822748
1169.093772,6280.310751,-5054.884263,7888.683016
1169.094072,3140.155375,-4212.403552,8807.752882
1169.094373,-1148.837332,-3906.046930,9420.466126
1169.094673,-4595.349330,-1455.193954,9803.411904
1169.094973,-4978.295107,3676.279464,10186.357681
1169.095268,-4442.171019,6356.899906,10109.768526
1169.095568,-6050.543284,5284.651729,12101.086569
1169.095868,-2067.907198,5437.830040,12560.621502
1169.096169,1225.426488,5437.830040,11947.908258
1169.096469,1531.783110,1225.426488,10569.303459
1169.096769,2680.620442,-1914.728887,10416.125148
1169.097069,2986.977064,-7352.558928,10416.125148
1169.097369,4671.938485,-9726.822748,8807.752882
1169.097657,5208.062574,-10952.249236,8731.163727
1169.097958,2527.442131,-11411.784169,9267.287815
1169.098259,919.069866,-9497.055282,9343.876971
1169.098560,-689.302399,-3140.155375,10033.179370
1169.098861,-0.000000,2604.031287,8731.163727
1169.099161,-2910.387909,5284.651729,10875.660081
1169.099462,-7352.558928,6356.899906,13249.923901
1169.099763,-3523.101153,9650.233593,11564.962480
1169.100072,-2374.263820,8501.396260,12943.567279
1169.100372,-4135.814397,3676.279464,12713.799813
1169.100671,-1302.015643,1072.248177,10952.249236
1169.100970,1991.318043,-382.945777,10569.303459
1169.101270,5054.884263,-3752.868619,10569.303459
1169.101569,4671.938485,-8424.807105,9726.822748
1169.101868,4901.705952,-5208.062574,10339.535992
1169.102168,4671.938485,-4518.760174,8807.752882
1169.102475,-382.945777,-4212.403552,8348.217949
1169.102773,-3063.566220,-1608.372265,10109.768526
1169.103071,-7505.737239,-536.124088,12177.675724
1169.103369,-6663.256528,1225.426488,12024.497413
1169.103667,-3063.566220,4135.814397,11182.016703
1169.103966,2144.496354,5744.186662,10722.481770
1169.104264,1225.426488,4748.527641,11258.605858
1169.104562,-689.302399,2757.209598,10339.535992
1169.104878,3293.333686,1531.783110,8960.931193
1169.105177,1225.426488,-2374.263820,9573.644437
1169.105475,-1302.015643,-7199.380617,10569.303459
1169.105773,-76.589155,-8577.985416,9650.233593
1169.106072,1991.318043,-8271.628794,9573.644437
1169.106370,919.069866,-8884.342038,9956.590215
1169.106669,153.178311,-5514.419196,9497.055282
1169.106967,1684.961421,765.891555,10186.357681
1169.107282,2297.674665,3829.457775,9650.233593
1169.107580,-842.480710,4135.814397,9956.590215
1169.107879,-0.000000,6816.434839,10569.303459
1169.108178,-1914.728887,6050.543284,12407.443191
1169.108476,-4288.992708,3063.566220,12790.388968
1169.108775,-1302.015643,1225.426488,11335.195014
1169.109074,-229.767466,-0.000000,11028.838392
1169.109373,-76.589155,-4212.403552,11488.373325
1169.109661,-382.945777,-5054.884263,11564.962480
1169.109960,2680.620442,-2374.263820,10416.125148
1169.110259,1838.139732,-1608.372265,10262.946837
1169.110558,459.534933,-1761.550576,9956.590215
1169.110857,1378.604799,3676.279464,9420.466126
1169.111156,1531.783110,5131.473418,9114.109504
1169.111455,-1302.015643,4748.527641,9880.001059
1169.111755,-3523.101153,3982.636086,12101.086569
1169.112054,-4825.116796,3063.566220,13403.102212
1169.112353,-4825.116796,-0.000000,12254.264880
1169.112653,-2910.387909,-2067.907198,10875.660081
1169.112952,1684.961421,-2833.798753,10416.125148
1169.113251,2680.620442,-5820.775818,10109.768526
1169.113550,2986.977064,-7965.272172,9573.644437
1169.113849,6280.310751,-7046.202306,9650.233593
1169.114149,4365.581863,-6586.667373,10109.768526
1169.114456,-536.124088,-5361.240885,9037.520349
1169.114755,306.356622,-995.659021,6969.613150
1169.115054,-4442.171019,1838.139732,9114.109504
1169.115354,-5897.364973,612.713244,11488.373325
1169.115653,-6356.899906,1991.318043,11488.373325
1169.115952,-1302.015643,4748.527641,10569.303459
1169.116251,1378.604799,4135.814397,10569.303459
1169.116550,-1455.193954,-2221.085509,10875.660081
1169.116854,1072.248177,-3446.511997,12024.497413
1169.117154,5054.884263,-4365.581863,10875.660081
1169.117455,5054.884263,-7199.380617,10262.946837
1169.117755,7582.326394,-6586.667373,9267.287815
1169.118055,6127.132440,-3140.155375,9114.109504
1169.118356,2374.263820,-1302.015643,9267.287815
1169.118656,-536.124088,2144.496354,8118.450483
1169.118956,-3216.744531,5897.364973,10722.481770
1169.119275,-6356.899906,8807.752882,11641.551636
1169.119573,-9726.822748,7275.969772,12713.799813
1169.119871,-6356.899906,7275.969772,13556.280523
1169.120170,-4442.171019,5437.830040,14628.528700
1169.120468,-2374.263820,1378.604799,12101.086569
1169.120766,3446.511997,-229.767466,9650.233593
1169.121064,5514.419196,-995.659021,10262.946837
1169.121363,5208.062574,-5208.062574,9497.055282
1169.121675,3446.511997,-7812.093861,9420.466126
1169.121971,4365.581863,-5667.597507,9114.109504
1169.122267,1838.139732,-5361.240885,8807.752882
1169.122563,-4748.527641,-5361.240885,9880.001059
1169.122860,-3676.279464,-1455.193954,9573.644437
1169.123156,-2450.852976,1991.318043,10416.125148
1169.123452,-4825.116796,919.069866,11182.016703
1169.123748,-1761.550576,2910.387909,11641.551636
1169.124047,-1455.193954,3063.566220,11564.962480
1169.124348,919.069866,1991.318043,10799.070925
1169.124649,919.069866,-1608.372265,11488.373325
1169.124949,4212.403552,-2680.620442,9650.233593
1169.125250,5514.419196,-4059.225241,9343.876971
1169.125551,2833.798753,-7046.202306,9114.109504
1169.125852,1531.783110,-8577.985416,10569.303459
1169.126152,-842.480710,-6433.489062,10875.660081
1169.126459,-3216.744531,-3599.690308,9880.001059
1169.126756,-1455.193954,1684.961421,7735.504705
1169.127052,-2450.852976,4135.814397,9420.466126
1169.127348,-3369.922842,3216.744531,12790.388968
1169.127644,-2067.907198,3982.636086,11564.962480
1169.127941,1072.248177,4442.171019,11258.605858
1169.128237,3599.690308,3216.744531,9956.590215
1169.128533,2833.798753,-229.767466,10645.892614
1169.128841,5054.884263,459.534933,9420.466126
1169.129140,3906.046930,-1914.728887,8807.752882
1169.129439,-1608.372265,-5667.597507,11258.605858
1169.129738,-3216.744531,-5820.775818,11488.373325
1169.130037,-2221.085509,-2680.620442,10033.179370
1169.130336,-3523.101153,-2067.907198,9420.466126
1169.130634,-7199.380617,-2527.442131,10262.946837
1169.130933,-5284.651729,306.356622,11794.729947
1169.131250,-2604.031287,2297.674665,11641.551636
1169.131549,-1761.550576,153.178311,11182.016703
1169.131847,919.069866,919.069866,11641.551636
1169.132145,2986.977064,919.069866,11641.551636
1169.132444,3140.155375,1072.248177,10033.179370
1169.132742,6280.310751,612.713244,8501.396260
1169.133041,5361.240885,-1148.837332,9190.698660
1169.133339,1531.783110,-4059.225241,10416.125148
1169.133685,-536.124088,-4825.116796,10262.946837
1169.133979,-689.302399,-3446.511997,10262.946837
1169.134274,-1608.372265,-2374.263820,10875.660081
1169.134568,-3676.279464,-1148.837332,9956.590215
1169.134863,-1914.728887,1991.318043,9803.411904
1169.135157,-3982.636086,1991.318043,10416.125148
1169.135452,-3982.636086,1838.139732,12713.799813
1169.135746,-2221.085509,1684.961421,12637.210657
1169.136046,1531.783110,2297.674665,10109.768526
1169.136346,612.713244,-1761.550576,11028.838392
1169.136646,-229.767466,-2067.907198,11947.908258
1169.136946,4518.760174,-1761.550576,8501.396260
1169.137246,5054.884263,-1148.837332,8118.450483
1169.137546,1991.318043,-6127.132440,9114.109504
1169.137846,1225.426488,-4901.705952,10799.070925
1169.138146,3752.868619,-1608.372265,10033.179370
1169.138437,2680.620442,-76.589155,8577.985416
1169.138735,1531.783110,612.713244,9267.287815
1169.139034,-3369.922842,3369.922842,12484.032346
1169.139333,-995.659021,4978.295107,9650.233593
1169.139632,-3676.279464,3676.279464,11182.016703
1169.139930,-6510.078217,-382.945777,14092.404612
1169.140229,-7122.791461,-995.659021,12637.210657
1169.140528,-5591.008351,-1914.728887,11105.427547
1169.140835,-229.767466,-2221.085509,9803.411904
1169.141139,-0.000000,-6433.489062,11488.373325
1169.141444,1072.248177,-5514.419196,12407.443191
1169.141749,5361.240885,-3140.155375,9267.287815
1169.142053,6280.310751,765.891555,8195.039638
1169.142358,4365.581863,1072.248177,8501.396260
1169.142662,-1455.193954,612.713244,9420.466126
1169.142967,-995.659021,3063.566220,11028.838392
1169.143216,-2067.907198,2757.209598,11182.016703
1169.143517,-3829.457775,-0.000000,12254.264880
1169.143818,-842.480710,1225.426488,12101.086569
1169.144120,1072.248177,1838.139732,10722.481770
1169.144421,-842.480710,-536.124088,9650.233593
1169.144722,-1455.193954,-3752.868619,10875.660081
1169.145024,-2910.387909,-4825.116796,11028.838392
1169.145325,-995.659021,-5820.775818,9573.644437
1169.145652,1378.604799,-5973.954129,8731.163727
1169.145948,1378.604799,-5514.419196,9343.876971
1169.146245,3140.155375,-3140.155375,9420.466126
1169.146541,919.069866,-536.124088,8501.396260
1169.146837,2144.496354,3676.279464,8654.574571
1169.147133,-1148.837332,3063.566220,9956.590215
1169.147430,-4288.992708,2910.387909,10875.660081
1169.147726,-2604.031287,1378.604799,11258.605858
1169.148038,-2604.031287,459.534933,11641.551636
1169.148336,-1302.015643,-3293.333686,11258.605858
1169.148635,153.178311,-2833.798753,11182.016703
1169.148933,5361.240885,-2067.907198,9803.411904
1169.149232,5361.240885,-1761.550576,10109.768526
1169.149531,3293.333686,-2221.085509,11028.838392
1169.149829,4671.938485,306.356622,9956.590215
1169.150128,612.713244,2144.496354,10186.357681
1169.150449,-4135.814397,2144.496354,11105.427547
1169.150746,-3216.744531,4288.992708,9956.590215
1169.151044,-2221.085509,7429.148083,9573.644437
1169.151342,-2450.852976,4135.814397,10416.125148
1169.151640,-6203.721595,1072.248177,12943.567279
1169.151937,-2604.031287,612.713244,14092.404612
1169.152235,-1148.837332,-1608.372265,11411.784169
1169.152533,-1148.837332,-5208.062574,11182.016703
1169.152840,1072.248177,-4518.760174,10875.660081
1169.153141,4518.760174,-5054.884263,9573.644437
1169.153441,5667.597507,-5208.062574,9650.233593
1169.153742,4365.581863,-5514.419196,10262.946837
1169.154042,1991.318043,-2527.442131,9726.822748
1169.154343,306.356622,-76.589155,8654.574571
1169.154643,-1148.837332,3063.566220,7046.202306
1169.154944,-4825.116796,4135.814397,9803.411904
1169.155240,-8271.628794,3216.744531,11182.016703
1169.155539,-8731.163727,153.178311,12560.621502
1169.155838,-2910.387909,459.534933,11411.784169
1169.156137,-382.945777,-2374.263820,12254.264880
1169.156436,-689.302399,-5667.597507,12407.443191
1169.156734,5054.884263,-5514.419196,9650.233593
1169.157033,10109.768526,-4365.581863,8501.396260
1169.157332,9803.411904,-6127.132440,9114.109504
1169.157627,6127.132440,-7046.202306,8960.931193
1169.157927,5361.240885,-1455.193954,7735.504705
1169.158227,4059.225241,1991.318043,7582.326394
1169.158527,-2910.387909,3216.744531,9726.822748
1169.158827,-7122.791461,4978.295107,11794.729947
1169.159128,-9726.822748,7888.683016,12790.388968
1169.159428,-9343.876971,7888.683016,12943.567279
1169.159728,-7352.558928,5437.830040,13862.637145
1169.160016,-6050.543284,3063.566220,14475.350389
1169.160316,-3369.922842,-229.767466,12713.799813
1169.160616,2374.263820,-842.480710,10569.303459
1169.160916,7046.202306,-3752.868619,9343.876971
1169.161216,8195.039638,-6280.310751,9956.590215
1169.161516,6127.132440,-8577.985416,10109.768526
1169.161816,7122.791461,-4901.705952,8501.396260
1169.162116,5054.884263,-1761.550576,7888.683016
1169.162416,-1455.193954,-1761.550576,8654.574571
1169.162716,-4748.527641,1072.248177,9650.233593
1169.163016,-5897.364973,4748.527641,10262.946837
1169.163316,-6510.078217,4748.527641,11488.373325
1169.163616,-7122.791461,2604.031287,13862.637145
1169.163916,-2067.907198,3216.744531,12943.567279
1169.164216,-1148.837332,459.534933,13862.637145
1169.164516,-382.945777,-3140.155375,12407.443191
1169.164823,4901.705952,-3446.511997,8348.217949
1169.165124,7122.791461,-4518.760174,6816.434839
1169.165426,2986.977064,-9343.876971,8807.752882
1169.165727,153.178311,-9650.233593,10875.660081
1169.166029,2986.977064,-4059.225241,10033.179370
1169.166330,1991.318043,-1761.550576,8654.574571
1169.166632,-3063.566220,2450.852976,9420.466126
1169.166933,-3829.457775,7275.969772,10109.768526
1169.167249,-3063.566220,9803.411904,10262.946837
1169.167548,-3829.457775,7429.148083,11794.729947
1169.167846,-6203.721595,3676.279464,14781.707011
1169.168145,-2910.387909,2604.031287,11947.908258
1169.168443,2144.496354,-0.000000,9803.411904
1169.168741,5973.954129,-2067.907198,9726.822748
1169.169040,5208.062574,-5208.062574,10952.249236
1169.169338,6433.489062,-5514.419196,10109.768526
1169.169653,5820.775818,-4365.581863,8807.752882
1169.169948,3140.155375,-4365.581863,9114.109504
1169.170242,-3829.457775,-4212.403552,10262.946837
1169.170537,-9726.822748,-2067.907198,10952.249236
1169.170832,-6969.613150,1684.961421,10033.179370
1169.171127,-6203.721595,4135.814397,11182.016703
1169.171422,-4595.349330,4825.116796,12407.443191
1169.171717,-995.659021,6050.543284,12560.621502
1169.172030,3599.690308,5591.008351,11028.838392
1169.172328,2297.674665,1531.783110,10492.714303
1169.172627,-382.945777,-3140.155375,10722.481770
1169.172925,-536.124088,-7199.380617,11182.016703
1169.173224,2833.798753,-8577.985416,10339.535992
1169.173522,5208.062574,-11258.605858,9956.590215
1169.173821,4901.705952,-9343.876971,9420.466126
1169.174119,5054.884263,-5054.884263,8807.752882
1169.174419,2144.496354,-1914.728887,8501.396260
1169.174718,153.178311,1072.248177,9420.466126
1169.175017,-4135.814397,5131.473418,10569.303459
1169.175317,-7505.737239,5591.008351,11028.838392
1169.175616,-7965.272172,7429.148083,11641.551636
1169.175915,-4978.295107,5131.473418,11411.784169
1169.176214,-4978.295107,2297.674665,12713.799813
1169.176514,-3369.922842,-1455.193954,12560.621502
1169.176821,4671.938485,-2067.907198,10722.481770
1169.177123,8195.039638,-4671.938485,9114.109504
1169.177426,8348.217949,-9190.698660,9420.466126
1169.177728,7275.969772,-9726.822748,9956.590215
1169.178031,8807.752882,-5208.062574,7429.148083
1169.178333,5667.597507,-3752.868619,7275.969772
1169.178636,-1148.837332,-1302.015643,8960.931193
1169.178938,-2757.209598,4442.171019,9803.411904
1169.179259,-6969.613150,7735.504705,10262.946837
1169.179556,-11411.784169,6816.434839,12866.978124
1169.179853,-14475.350389,7122.791461,15853.955188
1169.180150,-10339.535992,8041.861327,15241.241944
1169.180447,-5284.651729,5284.651729,11564.962480
1169.180744,-842.480710,612.713244,11028.838392
1169.181041,5361.240885,-2067.907198,9956.590215
1169.181338,12943.567279,-5514.419196,8577.985416
1169.181640,12177.675724,-9726.822748,9343.876971
1169.181937,11641.551636,-10799.070925,10033.179370
1169.182233,7122.791461,-7046.202306,8501.396260
1169.182530,2144.496354,-3906.046930,8041.861327
1169.182827,-3063.566220,459.534933,8577.985416
1169.183124,-10952.249236,2757.209598,11564.962480
1169.183421,-14322.172078,4595.349330,13556.280523
1169.183717,-10952.249236,5897.364973,12790.388968
1169.184035,-7965.272172,6969.613150,14168.993767
1169.184330,-4135.814397,4135.814397,12790.388968
1169.184625,-995.659021,2757.209598,11794.729947
1169.184920,7582.326394,919.069866,9573.644437
1169.185216,11335.195014,-3446.511997,7429.148083
1169.185511,8960.931193,-9726.822748,8654.574571
1169.185806,8654.574571,-11411.784169,8654.574571
1169.186101,8041.861327,-10645.892614,6893.023995
1169.186401,2527.442131,-9497.055282,6739.845684
1169.186701,-2604.031287,-6586.667373,8195.039638
1169.187001,-10186.357681,-2986.977064,11028.838392
1169.187302,-11258.605858,1531.783110,13249.923901
1169.187602,-9880.001059,4135.814397,12943.567279
1169.187902,-6356.899906,6663.256528,11641.551636
1169.188202,-3369.922842,6816.434839,12407.443191
1169.188502,-1608.372265,4825.116796,11641.551636
1169.188809,7429.148083,2757.209598,10033.179370
1169.189109,12330.854035,612.713244,9037.520349
1169.189409,10262.946837,-4212.403552,9573.644437
1169.189710,6739.845684,-6280.310751,9650.233593
1169.190010,5973.954129,-5054.884263,8501.396260
1169.190310,-689.302399,-5054.884263,10569.303459
1169.190610,-7352.558928,-5514.419196,10722.481770
1169.190911,-6816.434839,1072.248177,10569.303459
1169.191219,-6816.434839,5744.186662,10722.481770
1169.191515,-6203.721595,5897.364973,10875.660081
1169.191812,-5284.651729,7582.326394,13862.637145
1169.192108,-4442.171019,8960.931193,14705.117856
1169.192405,-1761.550576,5131.473418,12177.675724
1169.192701,1531.783110,2144.496354,10569.303459
1169.192998,6586.667373,-995.659021,8960.931193
1169.193294,5667.597507,-7352.558928,9573.644437
1169.193611,1531.783110,-12484.032346,10569.303459
1169.193913,4748.527641,-10186.357681,10416.125148
1169.194216,4901.705952,-8731.163727,7888.683016
1169.194518,-229.767466,-6586.667373,7812.093861
1169.194821,-3829.457775,-2374.263820,9267.287815
1169.195123,-5284.651729,1531.783110,9573.644437
1169.195426,-4442.171019,4288.992708,9956.590215
1169.195728,-6356.899906,4135.814397,12024.497413
1169.195994,-6816.434839,3216.744531,13249.923901
1169.196296,-2910.387909,2910.387909,11718.140791
1169.196599,765.891555,306.356622,10722.481770
1169.196902,5208.062574,-689.302399,10033.179370
1169.197204,6127.132440,-3140.155375,10569.303459
1169.197507,5820.775818,-5514.419196,9267.287815
1169.197809,8960.931193,-5514.419196,8041.861327
1169.198112,3599.690308,-6127.132440,10569.303459
1169.198412,-382.945777,-5514.419196,10109.768526
1169.198711,-842.480710,-2221.085509,8041.861327
1169.199010,-2374.263820,765.891555,8960.931193
1169.199309,-3676.279464,3369.922842,11258.605858
1169.199608,-7505.737239,4442.171019,13556.280523
1169.199908,-3523.101153,8960.931193,12943.567279
1169.200207,-1148.837332,8960.931193,9956.590215
1169.200506,-3063.566220,5284.651729,11794.729947
1169.200792,-1455.193954,2757.209598,12637.210657
1169.201094,-536.124088,-2986.977064,11335.195014
1169.201395,2374.263820,-6586.667373,10416.125148
1169.201697,2374.263820,-9880.001059,9956.590215
1169.201999,3293.333686,-9726.822748,9343.876971
1169.202301,3906.046930,-8118.450483,8807.752882
1169.202603,1378.604799,-5361.240885,9114.109504
1169.202904,2527.442131,-995.659021,9497.055282
1169.203212,153.178311,2297.674665,9803.411904
1169.203508,-2757.209598,4442.171019,11641.551636
1169.203804,-3982.636086,6510.078217,11182.016703
1169.204101,-5437.830040,6663.256528,12713.799813
1169.204397,-6969.613150,4442.171019,11564.962480
1169.204694,-4595.349330,2757.209598,11182.016703
1169.204990,-689.302399,2144.496354,10722.481770
1169.205287,3140.155375,-1914.728887,9573.644437
1169.205583,2833.798753,-6739.845684,11258.605858
1169.205883,5361.240885,-7812.093861,9803.411904
1169.206182,8195.039638,-6739.845684,7812.093861
1169.206482,3140.155375,-6586.667373,9267.287815
1169.206782,765.891555,-4212.403552,9267.287815
1169.207081,919.069866,765.891555,8960.931193
1169.207381,-2450.852976,1072.248177,9420.466126
1169.207680,-5284.651729,1378.604799,12637.210657
1169.208008,-4825.116796,4135.814397,13403.102212
1169.208307,-2910.387909,5897.364973,10875.660081
1169.208607,-689.302399,4825.116796,10875.660081
1169.208906,919.069866,4825.116796,11641.551636
1169.209206,4212.403552,1991.318043,9880.001059
1169.209505,4212.403552,-689.302399,9267.287815
1169.209805,2680.620442,-5361.240885,10722.481770
1169.210105,-536.124088,-6893.023995,12407.443191
1169.210393,-1455.193954,-6893.023995,11335.195014
1169.210693,306.356622,-4212.403552,8195.039638
1169.210994,919.069866,-2221.085509,9114.109504
1169.211295,-1608.372265,153.178311,11794.729947
1169.211596,-4442.171019,2450.852976,11488.373325
1169.211897,-2374.263820,6203.721595,12254.264880
1169.212197,-2910.387909,5437.830040,10569.303459
1169.212498,-5897.364973,3063.566220,13096.745590
1169.212807,-1455.193954,1684.961421,11488.373325
1169.213106,2374.263820,765.891555,9573.644437
1169.213405,3599.690308,-4059.225241,11335.195014
1169.213703,4748.527641,-6280.310751,10722.481770
1169.214002,6433.489062,-5820.775818,9803.411904
1169.214301,7429.148083,-3752.868619,7582.326394
1169.214599,612.713244,-4825.116796,8041.861327
1169.214898,-3063.566220,-2527.442131,8960.931193
1169.215205,-6203.721595,-2680.620442,9420.466126
1169.215505,-9880.001059,-3599.690308,12407.443191
1169.215804,-8424.807105,-2527.442131,13556.280523
1169.216104,-4135.814397,919.069866,11105.427547
1169.216404,-382.945777,306.356622,10569.303459
1169.216703,4748.527641,3063.566220,9573.644437
1169.217003,6893.023995,1378.604799,9573.644437
1169.217303,8195.039638,-689.302399,9420.466126
1169.217599,6280.310751,-4825.116796,8960.931193
1169.217897,5208.062574,-4825.116796,10569.303459
1169.218195,2680.620442,-5973.954129,10186.357681
1169.218494,-1455.193954,-5208.062574,9803.411904
1169.218792,-2450.852976,-1302.015643,10109.768526
1169.219090,-3369.922842,2604.031287,10339.535992
1169.219388,-4825.116796,4825.116796,11258.605858
1169.219686,-6356.899906,8501.396260,12101.086569
1169.220000,-4288.992708,9267.287815,11182.016703
1169.220299,-3523.101153,8195.039638,12790.388968
1169.220598,-3523.101153,3369.922842,15241.241944
1169.220896,2374.263820,1072.248177,12407.443191
1169.221195,7275.969772,765.891555,8960.931193
1169.221494,6739.845684,-4212.403552,9497.055282
1169.221793,2144.496354,-7046.202306,11028.838392
1169.222091,1531.783110,-5973.954129,10262.946837
1169.222345,-229.767466,-4059.225241,9573.644437
1169.222650,-3369.922842,-3752.868619,9267.287815
1169.222955,-5131.473418,-842.480710,11488.373325
1169.223260,-2221.085509,2297.674665,9267.287815
1169.223565,919.069866,3676.279464,9573.644437
1169.223870,919.069866,1531.783110,11794.729947
1169.224175,-229.767466,919.069866,11411.784169
1169.224480,-229.767466,765.891555,11258.605858
1169.224779,1378.604799,-1608.372265,8501.396260
1169.225078,1378.604799,-4825.116796,10109.768526
1169.225378,-1455.193954,-8577.985416,12024.497413
1169.225677,306.356622,-7658.915550,9573.644437
1169.225976,2374.263820,-5820.775818,9343.876971
1169.226275,1684.961421,-5054.884263,8884.342038
1169.226574,-3676.279464,-5514.419196,11258.605858
1169.226874,-1914.728887,-536.124088,9803.411904
1169.227181,919.069866,3063.566220,7735.504705
1169.227480,-1914.728887,765.891555,12254.264880
1169.227779,-2067.907198,765.891555,13249.923901
1169.228078,1225.426488,4288.992708,11105.427547
1169.228378,4748.527641,5131.473418,8807.752882
1169.228677,4901.705952,2604.031287,8960.931193
1169.228976,2680.620442,1072.248177,10109.768526
1169.229276,1531.783110,765.891555,9956.590215
1169.229596,-995.659021,-2833.798753,11028.838392
1169.229893,-2910.387909,-4518.760174,12560.621502
1169.230190,-2757.209598,-2680.620442,10722.481770
1169.230487,-4825.116796,-2527.442131,9190.698660
1169.230784,-2910.387909,-842.480710,10339.535992
1169.231081,-995.659021,1378.604799,11028.838392
1169.231378,-382.945777,919.069866,10875.660081
1169.231675,-1302.015643,612.713244,11641.551636
1169.232023,459.534933,1378.604799,10569.303459
1169.232318,459.534933,612.713244,11488.373325
1169.232612,-1914.728887,-1608.372265,11028.838392
1169.232907,459.534933,-536.124088,9573.644437
1169.233202,765.891555,-1148.837332,9726.822748
1169.233497,2680.620442,-689.302399,10262.946837
1169.233792,2374.263820,-842.480710,9650.233593
1169.234087,4365.581863,1225.426488,8960.931193
1169.234400,1225.426488,-76.589155,9573.644437
1169.234696,-1761.550576,-689.302399,10722.481770
1169.234992,-995.659021,153.178311,10033.179370
1169.235288,-1302.015643,-995.659021,9573.644437
1169.235584,-2604.031287,-4059.225241,11488.373325
1169.235880,-3063.566220,-4518.760174,11641.551636
1169.236176,-1148.837332,-2680.620442,10569.303459
1169.236472,-1608.372265,-1914.728887,10262.946837
1169.236795,-382.945777,-2374.263820,10722.481770
1169.237092,612.713244,-76.589155,9803.411904
1169.237390,2144.496354,153.178311,9497.055282
1169.237687,1072.248177,-1761.550576,9190.698660
1169.237984,2144.496354,-536.124088,10416.125148
1169.238282,1072.248177,-1148.837332,10875.660081
1169.238579,-229.767466,-842.480710,9726.822748
1169.238877,2297.674665,1378.604799,9573.644437
1169.239184,765.891555,1991.318043,10722.481770
1169.239481,-2067.907198,-536.124088,12713.799813
1169.239778,-382.945777,306.356622,11947.908258
1169.240074,459.534933,2144.496354,10799.070925
1169.240371,-1302.015643,-229.767466,10569.303459
1169.240668,-3829.457775,-1302.015643,12484.032346
1169.240965,-1148.837332,-76.589155,10722.481770
1169.241262,1684.961421,919.069866,9726.822748
1169.241576,765.891555,-3446.511997,11335.195014
1169.241879,1072.248177,-1455.193954,12101.086569
1169.242181,5208.062574,1838.139732,9956.590215
1169.242484,1378.604799,1991.318043,8118.450483
1169.242787,153.178311,1838.139732,8424.807105
1169.243090,-3063.566220,2757.209598,8960.931193
1169.243393,-5897.364973,459.534933,11028.838392
1169.243695,-9726.822748,-4825.116796,12866.978124
1169.243962,-7122.791461,-5054.884263,12790.388968
1169.244262,-3369.922842,-4365.581863,11411.784169
1169.244562,-229.767466,-5054.884263,9497.055282
1169.244862,4901.705952,-3599.690308,9420.466126
1169.245162,7582.326394,-3752.868619,8654.574571
1169.245461,8348.217949,-3599.690308,8041.861327
1169.245761,4518.760174,-5208.062574,9343.876971
1169.246061,2833.798753,-3599.690308,9114.109504
1169.246378,-995.659021,-3140.155375,9956.590215
1169.246676,-3063.566220,-995.659021,9267.287815
1169.246974,-1761.550576,2144.496354,9650.233593
1169.247272,-2450.852976,3369.922842,10645.892614
1169.247570,-2604.031287,3676.279464,12330.854035
1169.247867,-689.302399,5131.473418,12101.086569
1169.248165,306.356622,4288.992708,11947.908258
1169.248463,-2910.387909,1378.604799,11947.908258
1169.248763,-995.659021,-689.302399,11947.908258
1169.249066,1531.783110,-995.659021,10875.660081
1169.249369,6127.132440,-1914.728887,9650.233593
1169.249671,6280.310751,-2680.620442,9956.590215
1169.249974,5973.954129,-1302.015643,9267.287815
1169.250277,2527.442131,153.178311,9420.466126
1169.250580,-1302.015643,2604.031287,10875.660081
1169.250883,-3369.922842,4442.171019,10186.357681
1169.251190,-6356.899906,5897.364973,10645.892614
1169.251486,-7505.737239,5744.186662,12177.675724
1169.251781,-6203.721595,2757.209598,11641.551636
1169.252077,-4442.171019,-229.767466,13096.745590
1169.252372,-3982.636086,-4825.116796,14168.993767
1169.252668,-382.945777,-5361.240885,11182.016703
1169.252963,7888.683016,-4059.225241,8041.861327
1169.253259,8348.217949,-4518.760174,7965.272172
1169.253566,2986.977064,-7812.093861,10875.660081
1169.253870,2374.263820,-4365.581863,9956.590215
1169.254174,3140.155375,-382.945777,7888.683016
1169.254477,-1302.015643,153.178311,9573.644437
1169.254781,-3523.101153,-842.480710,9956.590215
1169.255085,-5437.830040,2910.387909,10262.946837
1169.255389,-2221.085509,2757.209598,9726.822748
1169.255693,-3982.636086,765.891555,12330.854035
1169.255975,-2450.852976,-1148.837332,12484.032346
1169.256277,-1148.837332,-689.302399,11564.962480
1169.256579,1531.783110,-2986.977064,11335.195014
1169.256881,4518.760174,-2374.263820,9573.644437
1169.257184,6280.310751,-4518.760174,8654.574571
1169.257486,4671.938485,-5361.240885,9573.644437
1169.257788,2297.674665,-6127.132440,10645.892614
1169.258091,1991.318043,-2833.798753,9650.233593
1169.258372,-0.000000,-1455.193954,8807.752882
1169.258668,-1761.550576,1684.961421,8960.931193
1169.258965,-1914.728887,4595.349330,8960.931193
1169.259261,-1608.372265,7735.504705,11182.016703
1169.259557,-2067.907198,5591.008351,12254.264880
1169.259853,-1761.550576,4748.527641,11794.729947
1169.260149,-2450.852976,1838.139732,12407.443191
1169.260446,-4748.527641,-2986.977064,13096.745590
1169.260757,-1761.550576,-5667.597507,13709.458834
1169.261056,1838.139732,-4518.760174,11488.373325
1169.261355,4901.705952,-5361.240885,9573.644437
1169.261655,2374.263820,-5667.597507,10416.125148
1169.261954,5514.419196,-229.767466,9420.466126
1169.262253,3446.511997,2604.031287,8807.752882
1169.262552,-4135.814397,3063.566220,11258.605858
1169.262851,-5437.830040,5744.186662,11564.962480
1169.263188,-5744.186662,8041.861327,9573.644437
1169.263483,-3063.566220,5591.008351,10569.303459
1169.263777,-2604.031287,1225.426488,12484.032346
1169.264072,-1761.550576,459.534933,12943.567279
1169.264366,1378.604799,-1608.372265,12254.264880
1169.264661,5054.884263,-3446.511997,9803.411904
1169.264955,7122.791461,-5054.884263,8501.396260
1169.265250,4748.527641,-5667.597507,8960.931193
1169.265557,2374.263820,-8271.628794,9267.287815
1169.265856,2527.442131,-8577.985416,9114.109504
1169.266155,-0.000000,-6586.667373,9420.466126
1169.266454,-4288.992708,-3599.690308,9956.590215
1169.266752,-2757.209598,-76.589155,9803.411904
1169.267051,-2910.387909,4442.171019,9267.287815
1169.267350,-3523.101153,4825.116796,11641.551636
1169.267649,-7352.558928,4595.349330,12943.567279
1169.267946,-3063.566220,4595.349330,11182.016703
1169.268245,153.178311,3982.636086,10875.660081
1169.268545,-536.124088,-536.124088,11794.729947
1169.268844,2527.442131,-2986.977064,11794.729947
1169.269144,7735.504705,-2986.977064,8654.574571
1169.269443,9114.109504,-4518.760174,8041.861327
1169.269743,6280.310751,-5973.954129,9650.233593
1169.270043,1225.426488,-3293.333686,10416.125148
1169.270370,-0.000000,-689.302399,9956.590215
1169.270669,-3829.457775,153.178311,9114.109504
1169.270968,-6050.543284,1378.604799,11718.140791
1169.271266,-6510.078217,3982.636086,11488.373325
1169.271565,-4748.527641,4978.295107,11871.319102
1169.271864,-1761.550576,4135.814397,11794.729947
1169.272163,-1455.193954,2297.674665,11794.729947
1169.272462,-1761.550576,1225.426488,12101.086569
1169.272750,612.713244,459.534933,10569.303459
1169.273051,2297.674665,-1761.550576,8960.931193
1169.273351,153.178311,-7046.202306,10645.892614
1169.273652,-2450.852976,-8884.342038,11718.140791
1169.273953,765.891555,-8118.450483,8577.985416
1169.274254,3446.511997,-5361.240885,7505.737239
1169.274554,-689.302399,-5514.419196,9497.055282
1169.274855,-536.124088,-1608.372265,9420.466126
1169.275155,153.178311,3676.279464,9037.520349
1169.275455,-382.945777,5131.473418,9803.411904
1169.275755,-3982.636086,1072.248177,12330.854035
1169.276055,-5437.830040,1838.139732,14322.172078
1169.276355,-842.480710,1991.318043,10109.768526
1169.276655,459.534933,459.534933,10339.535992
1169.276955,4212.403552,-2986.977064,10109.768526
1169.277255,7122.791461,-4212.403552,9114.109504
1169.277562,7429.148083,-5514.419196,9420.466126
1169.277860,7429.148083,-4518.760174,9114.109504
1169.278159,919.069866,-4365.581863,11028.838392
1169.278457,-2374.263820,459.534933,11028.838392
1169.278755,-1608.372265,4442.171019,8807.752882
1169.279053,-3676.279464,8041.861327,9956.590215
1169.279351,-5897.364973,7122.791461,10875.660081
1169.279649,-6816.434839,6203.721595,12713.799813
1169.279966,-4978.295107,5131.473418,12101.086569
1169.280264,-2067.907198,3369.922842,12101.086569
1169.280562,-4442.171019,-1608.372265,13020.156435
1169.280861,765.891555,-1914.728887,12101.086569
1169.281159,5973.954129,-4365.581863,9573.644437
1169.281458,3752.868619,-8424.807105,10416.125148
1169.281756,2986.977064,-9726.822748,11028.838392
1169.282055,5361.240885,-6280.310751,9267.287815
1169.282369,5208.062574,-2221.085509,6816.434839
1169.282668,459.534933,-536.124088,8501.396260
1169.282966,-4748.527641,2297.674665,11335.195014
1169.283265,-5437.830040,7735.504705,10569.303459
1169.283564,-6356.899906,7429.148083,10569.303459
1169.283862,-7352.558928,5131.473418,12560.621502
1169.284161,-9726.822748,1378.604799,14628.528700
1169.284460,-6203.721595,-689.302399,13096.745590
1169.284748,765.891555,-3599.690308,10262.946837
1169.285048,4671.938485,-6739.845684,9420.466126
1169.285348,8348.217949,-10339.535992,9650.233593
1169.285648,7582.326394,-9190.698660,9114.109504
1169.285948,10262.946837,-7046.202306,7429.148083
1169.286248,6127.132440,-5973.954129,7429.148083
1169.286548,612.713244,-2527.442131,7735.504705
1169.286847,919.069866,3216.744531,6663.256528
1169.287147,-4442.171019,4288.992708,8960.931193
1169.287446,-8424.807105,2450.852976,12790.388968
1169.287746,-10033.179370,612.713244,13862.637145
1169.288045,-5437.830040,3829.457775,12713.799813
1169.288344,-536.124088,4595.349330,11641.551636
1169.288643,153.178311,1531.783110,11258.605858
1169.288943,5820.775818,2297.674665,9573.644437
1169.289242,8195.039638,1225.426488,8654.574571
1169.289549,4518.760174,-5208.062574,10952.249236
1169.289848,2374.263820,-7812.093861,11488.373325
1169.290147,612.713244,-5973.954129,10875.660081
1169.290447,-2221.085509,-4901.705952,8501.396260
1169.290746,-3676.279464,-1148.837332,9803.411904
1169.291045,-6050.543284,4288.992708,11335.195014
1169.291344,-2221.085509,9573.644437,9573.644437
1169.291644,-4442.171019,10875.660081,10875.660081
1169.291964,-4595.349330,8195.039638,13020.156435
1169.292264,-3982.636086,5591.008351,13709.458834
1169.292565,-2757.209598,919.069866,13403.102212
1169.292865,3599.690308,-995.659021,9650.233593
1169.293166,4671.938485,-5514.419196,10109.768526
1169.293466,4748.527641,-7658.915550,12407.443191
1169.293766,7582.326394,-8424.807105,9267.287815
1169.294067,7046.202306,-6127.132440,7275.969772
1169.294385,612.713244,-6127.132440,8501.396260
1169.294679,-7505.737239,-5820.775818,10722.481770
1169.294972,-4978.295107,-842.480710,9803.411904
1169.295266,-4595.349330,1991.318043,9190.698660
1169.295559,-9573.644437,-689.302399,12254.264880
1169.295853,-5284.651729,459.534933,12101.086569
1169.296146,919.069866,4288.992708,10645.892614
1169.296440,2374.263820,1684.961421,10262.946837
1169.296757,2527.442131,-1608.372265,10875.660081
1169.297053,5820.775818,-1148.837332,10109.768526
1169.297349,10262.946837,-2221.085509,8195.039638
1169.297645,8654.574571,-6586.667373,8041.861327
1169.297941,4518.760174,-9037.520349,9803.411904
1169.298237,2986.977064,-6127.132440,10186.357681
1169.298533,2297.674665,-2986.977064,7658.915550
1169.298829,-2450.852976,-0.000000,8501.396260
1169.299129,-10492.714303,1378.604799,11794.729947
1169.299430,-15700.776877,3216.744531,14934.885322
1169.299731,-13326.513057,6663.256528,15394.420255
1169.300031,-9343.876971,8807.752882,13096.745590
1169.300332,-4825.116796,6663.256528,13556.280523
1169.300633,2374.263820,6050.543284,11335.195014
1169.300934,15471.009411,5744.186662,6203.721595
1169.301235,15777.366033,-76.589155,7352.558928
1169.301575,9956.590215,-7658.915550,10416.125148
1169.301867,5054.884263,-10799.070925,11488.373325
1169.302159,3293.333686,-8731.163727,9956.590215
1169.302452,-2604.031287,-7812.093861,9573.644437
1169.302744,-6663.256528,-4901.705952,10569.303459
1169.303036,-6816.434839,-0.000000,10722.481770
1169.303328,-2374.263820,5131.473418,8501.396260
1169.303620,-4978.295107,6816.434839,11182.016703
1169.303928,-5897.364973,5744.186662,14322.172078
1169.304227,-3523.101153,6510.078217,13556.280523
1169.304526,-2450.852976,6203.721595,11641.551636
1169.304825,306.356622,1991.318043,9267.287815
1169.305124,-1455.193954,-1914.728887,11794.729947
1169.305423,1378.604799,-5054.884263,10416.125148
1169.305722,8348.217949,-7965.272172,6969.613150
1169.306021,6280.310751,-10799.070925,9114.109504
1169.306337,4748.527641,-10033.179370,9880.001059
1169.306636,3752.868619,-5820.775818,7582.326394
1169.306936,4901.705952,1072.248177,6510.078217
1169.307235,765.891555,2604.031287,8731.163727
1169.307534,-7965.272172,2450.852976,12560.621502
1169.307833,-2757.209598,6816.434839,10799.070925
1169.308133,-2604.031287,6816.434839,9803.411904
1169.308432,-8424.807105,1072.248177,15088.063633
1169.308749,-5897.364973,-229.767466,14934.885322
1169.309047,2527.442131,3063.566220,10262.946837
1169.309345,7275.969772,1684.961421,8118.450483
1169.309642,1072.248177,-4518.760174,12177.675724
1169.309940,-1148.837332,-5820.775818,12713.799813
1169.310238,3599.690308,-1302.015643,7812.093861
1169.310536,919.069866,-1761.550576,8041.861327
1169.310834,-2067.907198,-3446.511997,10416.125148
1169.311133,-2450.852976,-2221.085509,10875.660081
1169.311433,1531.783110,2604.031287,10033.179370
1169.311732,2986.977064,2144.496354,9114.109504
1169.312031,-3216.744531,-76.589155,12713.799813
1169.312330,-4748.527641,153.178311,14322.172078
1169.312629,-3829.457775,2757.209598,11564.962480
1169.312928,919.069866,2604.031287,9420.466126
1169.313228,-382.945777,-2221.085509,11641.551636
1169.313513,-995.659021,-5820.775818,13709.458834
1169.313813,5667.597507,-3293.333686,9267.287815
1169.314112,5361.240885,-2221.085509,7582.326394
1169.314411,-1455.193954,-5667.597507,10109.768526
1169.314711,-3982.636086,-5973.954129,10109.768526
1169.315010,-3369.922842,-382.945777,7812.093861
1169.315309,-1761.550576,459.534933,8501.396260
1169.315609,-8577.985416,-1914.728887,12943.567279
1169.315916,-3523.101153,-0.000000,12790.388968
1169.316216,4212.403552,4442.171019,9114.109504
1169.316517,5208.062574,765.891555,8118.450483
1169.316817,6127.132440,-382.945777,8731.163727
1169.317118,7275.969772,-1302.015643,8807.752882
1169.317419,6433.489062,-3446.511997,9650.233593
1169.317719,-536.124088,-9037.520349,12407.443191
1169.318020,-5284.651729,-7199.380617,13403.102212
1169.318316,-1455.193954,-1761.550576,10569.303459
1169.318617,-536.124088,1378.604799,8041.861327
1169.318917,153.178311,3982.636086,8041.861327
1169.319217,-3829.457775,6050.543284,10109.768526
1169.319518,-5591.008351,5897.364973,12101.086569
1169.319818,-4288.992708,4978.295107,12330.854035
1169.320118,-6356.899906,2450.852976,14168.993767
1169.320419,-6510.078217,-0.000000,15241.241944
1169.320713,2144.496354,-76.589155,9573.644437
1169.321014,7582.326394,919.069866,8654.574571
1169.321315,10722.481770,-689.302399,9573.644437
1169.321616,5208.062574,-5820.775818,10952.249236
1169.321917,5054.884263,-5514.419196,9803.411904
1169.322218,4518.760174,-4059.225241,8041.861327
1169.322519,-6050.543284,-5054.884263,11488.373325
1169.322819,-6663.256528,-1914.728887,10875.660081
1169.323108,-6816.434839,2604.031287,9573.644437
1169.323408,-5131.473418,1225.426488,11947.908258
1169.323709,-3982.636086,-0.000000,13020.156435
1169.324010,-2221.085509,2144.496354,12637.210657
1169.324311,2680.620442,3369.922842,11028.838392
1169.324612,919.069866,612.713244,9420.466126
1169.324912,1225.426488,-1608.372265,10262.946837
1169.325213,3140.155375,-1761.550576,9650.233593
1169.325527,153.178311,-5973.954129,10722.481770
1169.325826,1838.139732,-7812.093861,9956.590215
1169.326124,2374.263820,-5667.597507,9803.411904
1169.326423,2986.977064,-3446.511997,8348.217949
1169.326722,3446.511997,-1761.550576,7429.148083
1169.327021,-229.767466,-76.589155,9343.876971
1169.327319,-229.767466,1991.318043,10875.660081
1169.327618,-3063.566220,1684.961421,12101.086569
1169.327959,765.891555,3216.744531,9573.644437
1169.328254,153.178311,1378.604799,11488.373325
1169.328548,-2374.263820,-536.124088,12101.086569
1169.328843,5361.240885,765.891555,9573.644437
1169.329138,5054.884263,1225.426488,10262.946837
1169.329433,1225.426488,-1608.372265,11488.373325
1169.329728,-3063.566220,-4059.225241,11794.729947
1169.330023,-4288.992708,-76.589155,10722.481770
1169.330319,-2604.031287,-229.767466,9190.698660
1169.330617,-9190.698660,-4518.760174,10416.125148
1169.330914,-5437.830040,-995.659021,12101.086569
1169.331212,612.713244,765.891555,10569.303459
1169.331509,1225.426488,-536.124088,12254.264880
1169.331806,4748.527641,-1302.015643,11641.551636
1169.332104,3906.046930,1378.604799,10109.768526
1169.332401,2986.977064,2604.031287,10722.481770
1169.332716,306.356622,153.178311,9573.644437
1169.333014,-3829.457775,-995.659021,12713.799813
1169.333313,-2067.907198,-842.480710,12177.675724
1169.333612,-1608.372265,-3293.333686,9573.644437
1169.333910,612.713244,-4212.403552,10875.660081
1169.334209,1225.426488,-4059.225241,10109.768526
1169.334508,-0.000000,-3293.333686,9573.644437
1169.334806,3599.690308,1531.783110,7735.504705
1169.335118,1531.783110,2450.852976,8501.396260
1169.335415,-3063.566220,-76.589155,11488.373325
1169.335711,-4288.992708,-2067.907198,11947.908258
1169.336008,-3982.636086,-2527.442131,11182.016703
1169.336305,-3369.922842,-3446.511997,12024.497413
1169.336601,-2221.085509,-4212.403552,11335.195014
1169.336898,5361.240885,-0.000000,8960.931193
1169.337194,8041.861327,765.891555,6893.023995
1169.337494,5054.884263,-1608.372265,9420.466126
1169.337797,1072.248177,-4059.225241,11488.373325
1169.338099,919.069866,1531.783110,10569.303459
1169.338402,765.891555,1838.139732,7888.683016
1169.338704,-995.659021,1531.783110,9650.233593
1169.339007,-1608.372265,2604.031287,11182.016703
1169.339310,306.356622,3829.457775,9956.590215
1169.339612,-1761.550576,2297.674665,11182.016703
1169.339919,-3063.566220,-0.000000,12484.032346
1169.340220,-6510.078217,-995.659021,14705.117856
1169.340521,-8884.342038,-0.000000,13173.334746
1169.340821,-2757.209598,-536.124088,9880.001059
1169.341122,-382.945777,-229.767466,9726.822748
1169.341423,2833.798753,-2527.442131,9956.590215
1169.341724,4748.527641,-4518.760174,10722.481770
1169.342024,7888.683016,-2067.907198,8960.931193
1169.342294,7735.504705,-1914.728887,8654.574571
1169.342594,1531.783110,-2221.085509,9956.590215
1169.342895,-1914.728887,-0.000000,9420.466126
1169.343195,-4748.527641,1684.961421,11028.838392
1169.343495,-8271.628794,-76.589155,11182.016703
1169.343796,-7199.380617,-842.480710,12790.388968
1169.344096,-5284.651729,-76.589155,13326.513057
1169.344396,-1455.193954,-1302.015643,10875.660081
1169.344715,2527.442131,-2067.907198,9803.411904
1169.345013,4748.527641,-4518.760174,9497.055282
1169.345311,2527.442131,-5667.597507,10569.303459
1169.345609,2527.442131,-5361.240885,9573.644437
1169.345908,3293.333686,-2986.977064,8807.752882
1169.346206,2144.496354,-2221.085509,8424.807105
1169.346504,-382.945777,-842.480710,9573.644437
1169.346802,-0.000000,1378.604799,8731.163727
1169.347115,-382.945777,1531.783110,9114.109504
1169.347414,-2450.852976,765.891555,12637.210657
1169.347712,-2604.031287,-76.589155,10952.249236
1169.348011,-842.480710,1225.426488,10262.946837
1169.348309,-689.302399,919.069866,10492.714303
1169.348607,-995.659021,-995.659021,10799.070925
1169.348906,3752.868619,-76.589155,10262.946837
1169.349204,6127.132440,-842.480710,9650.233593
1169.349504,5820.775818,-2833.798753,10262.946837
1169.349804,4365.581863,-3293.333686,10416.125148
1169.350105,1072.248177,-1608.372265,11028.838392
1169.350405,-3216.744531,-689.302399,11182.016703
1169.350705,-5437.830040,3063.566220,10492.714303
1169.351005,-6816.434839,4748.527641,9803.411904
1169.351306,-5897.364973,5744.186662,10569.303459
1169.351606,-7352.558928,3676.279464,12560.621502
1169.351913,-3982.636086,1684.961421,13556.280523
1169.352210,-1761.550576,-0.000000,13786.047990
1169.352507,-2604.031287,-2680.620442,12713.799813
1169.352803,3599.690308,-4059.225241,10416.125148
1169.353100,5514.419196,-3140.155375,9803.411904
1169.353397,7275.969772,-4671.938485,9573.644437
1169.353694,5054.884263,-5361.240885,9803.411904
1169.353991,4059.225241,-2833.798753,9267.287815
1169.354305,2833.798753,-842.480710,8654.574571
1169.354608,-1302.015643,1225.426488,9420.466126
1169.354910,-3063.566220,2604.031287,9420.466126
1169.355213,-5284.651729,3216.744531,9343.876971
1169.355516,-6663.256528,1378.604799,11335.195014
1169.355819,-4978.295107,612.713244,12024.497413
1169.356121,-3829.457775,-1608.372265,12407.443191
1169.356424,-1914.728887,-4059.225241,11947.908258
1169.356697,1225.426488,-5820.775818,10722.481770
1169.356996,6893.023995,-4671.938485,9803.411904
1169.357294,9420.466126,-3752.868619,7965.272172
1169.357592,4901.705952,-5973.954129,9803.411904
1169.357891,4212.403552,-3446.511997,9650.233593
1169.358189,3140.155375,-229.767466,7888.683016
1169.358488,-3063.566220,459.534933,9114.109504
1169.358786,-3676.279464,2450.852976,9880.001059
1169.359103,-4978.295107,5591.008351,11718.140791
1169.359401,-1914.728887,8195.039638,10262.946837
1169.359699,-4748.527641,4978.295107,12407.443191
1169.359997,-2910.387909,4288.992708,12943.567279
1169.360294,-1761.550576,1378.604799,11411.784169
1169.360592,-2067.907198,-842.480710,13632.869679
1169.360890,2986.977064,-3752.868619,9803.411904
1169.361188,3906.046930,-6280.310751,10109.768526
1169.361488,4671.938485,-8577.985416,11335.195014
1169.361788,7275.969772,-7352.558928,7812.093861
1169.362088,3293.333686,-3140.155375,9267.287815
1169.362388,-536.124088,-1914.728887,9956.590215
1169.362688,-5131.473418,1684.961421,10875.660081
1169.362988,-5437.830040,6510.078217,10569.303459
1169.363288,-4442.171019,9114.109504,9420.466126
1169.363588,-7122.791461,4825.116796,13096.745590
1169.363878,-4748.527641,2604.031287,12866.978124
1169.364181,-1455.193954,459.534933,12101.086569
1169.364483,459.534933,-2833.798753,11258.605858
1169.364786,3599.690308,-6280.310751,11335.195014
1169.365089,3446.511997,-6586.667373,11488.373325
1169.365391,6586.667373,-6280.310751,8807.752882
1169.365694,4901.705952,-4671.938485,7735.504705
1169.365997,4212.403552,-2833.798753,7965.272172
1169.366338,-76.589155,-1302.015643,10109.768526
1169.366633,-1914.728887,-76.589155,9956.590215
1169.366927,1378.604799,4442.171019,6127.132440
1169.367221,-1608.372265,2757.209598,8577.985416
1169.367515,-6203.721595,-995.659021,13556.280523
1169.367809,-4825.116796,-1148.837332,13173.334746
1169.368103,-2221.085509,1684.961421,11335.195014
1169.368397,-536.124088,-76.589155,11488.373325
1169.368714,-1455.193954,-1455.193954,12101.086569
1169.369008,5361.240885,1378.604799,9650.233593
1169.369302,9114.109504,2604.031287,6663.256528
1169.369596,4671.938485,-2374.263820,9573.644437
1169.369890,1684.961421,-4825.116796,11182.016703
1169.370184,1378.604799,-4059.225241,10262.946837
1169.370478,-995.659021,-1914.728887,9650.233593
1169.370772,-2221.085509,-842.480710,10109.768526
1169.371100,-8118.450483,459.534933,11794.729947
1169.371396,-5744.186662,3369.922842,12024.497413
1169.371692,-5437.830040,4748.527641,12484.032346
1169.371988,-4825.116796,4595.349330,12713.799813
1169.372285,-3676.279464,3982.636086,12254.264880
1169.372581,-2604.031287,153.178311,11794.729947
1169.372877,4365.581863,-0.000000,8041.861327
1169.373173,5361.240885,-4518.760174,10109.768526
1169.373485,2680.620442,-8424.807105,11641.551636
1169.373785,5054.884263,-9726.822748,10416.125148
1169.374085,6739.845684,-4212.403552,8960.931193
1169.374384,4748.527641,-3293.333686,7352.558928
1169.374684,-1608.372265,-1302.015643,9114.109504
1169.374984,-5131.473418,-229.767466,10033.179370
1169.375284,-4595.349330,3063.566220,10416.125148
1169.375584,-6663.256528,1378.604799,10416.125148
1169.375893,-5131.473418,153.178311,11411.784169
1169.376192,-3982.636086,-2067.907198,11488.373325
1169.376490,-2374.263820,-3293.333686,10952.249236
1169.376788,3906.046930,-4059.225241,11028.838392
1169.377087,4901.705952,-4901.705952,8501.396260
1169.377385,6127.132440,-5667.597507,9803.411904
1169.377684,5361.240885,-5208.062574,10262.946837
1169.377982,5973.954129,-2067.907198,9037.520349
1169.378290,7275.969772,919.069866,8195.039638
1169.378589,2374.263820,1378.604799,8118.450483
1169.378889,1531.783110,4825.116796,9114.109504
1169.379189,-1761.550576,8041.861327,10569.303459
1169.379489,-8424.807105,6356.899906,11105.427547
1169.379788,-10186.357681,4135.814397,13096.745590
1169.380088,-11947.908258,3523.101153,15088.063633
1169.380388,-9190.698660,153.178311,15241.241944
1169.380685,-3523.101153,-1455.193954,12254.264880
1169.380983,4901.705952,-1914.728887,9190.698660
1169.381282,9803.411904,-5973.954129,9956.590215
1169.381581,10722.481770,-8271.628794,10262.946837
1169.381880,12790.388968,-5054.884263,8041.861327
1169.382179,9114.109504,-2527.442131,7429.148083
1169.382478,459.534933,-1761.550576,9956.590215
1169.382776,-5131.473418,1684.961421,11488.373325
1169.383071,-7658.915550,7122.791461,10033.179370
1169.383371,-10645.892614,7888.683016,11258.605858
1169.383672,-12254.264880,5744.186662,13403.102212
1169.383972,-8577.985416,3523.101153,12943.567279
1169.384272,-5591.008351,1072.248177,12484.032346
1169.384572,-2374.263820,-2221.085509,12560.621502
1169.384872,3752.868619,-5208.062574,10875.660081
1169.385172,8041.861327,-7658.915550,9497.055282
1169.385484,9803.411904,-9190.698660,8501.396260
1169.385781,10875.660081,-9497.055282,7735.504705
1169.386079,8348.217949,-7965.272172,7812.093861
1169.386376,6280.310751,-4901.705952,7735.504705
1169.386674,2297.674665,-2221.085509,7275.969772
1169.386971,-3369.922842,919.069866,8348.217949
1169.387269,-5591.008351,3676.279464,9880.001059
1169.387566,-10186.357681,3369.922842,12024.497413
1169.387866,-8424.807105,4442.171019,12713.799813
1169.388166,-7122.791461,4135.814397,12790.388968
1169.388466,-4825.116796,2450.852976,12943.567279
1169.388766,3906.046930,2144.496354,9956.590215
1169.389066,6586.667373,-229.767466,10569.303459
1169.389366,7582.326394,-4212.403552,10645.892614
1169.389666,5208.062574,-6586.667373,9956.590215
1169.389966,6127.132440,-5667.597507,9573.644437
1169.390273,4671.938485,-4212.403552,6969.613150
1169.390571,-382.945777,-2527.442131,10262.946837
1169.390869,-1148.837332,919.069866,9956.590215
1169.391167,-2757.209598,5131.473418,9267.287815
1169.391465,-5744.186662,4595.349330,12101.086569
1169.391764,-7658.915550,3369.922842,13939.226301
1169.392062,-9343.876971,3369.922842,14781.707011
1169.392360,-6050.543284,3216.744531,13096.745590
1169.392676,-4135.814397,1378.604799,11718.140791
1169.392977,1531.783110,-76.589155,11641.551636
1169.393278,6280.310751,-1608.372265,9650.233593
1169.393579,5820.775818,-4825.116796,9956.590215
1169.393880,8807.752882,-3752.868619,8501.396260
1169.394181,6280.310751,-3293.333686,8654.574571
1169.394482,306.356622,-4901.705952,9803.411904
1169.394783,-0.000000,-2067.907198,8195.039638
1169.395098,-3676.279464,1072.248177,8195.039638
1169.395394,-6816.434839,153.178311,11335.195014
1169.395690,-9190.698660,-689.302399,12330.854035
1169.395986,-4748.527641,2144.496354,12254.264880
1169.396283,-1455.193954,2604.031287,11641.551636
1169.396579,-382.945777,1531.783110,10875.660081
1169.396875,4059.225241,765.891555,10339.535992
1169.397171,7275.969772,-76.589155,9190.698660
1169.397460,7429.148083,-3140.155375,8960.931193
1169.397760,3906.046930,-6280.310751,9497.055282
1169.398059,5667.597507,-4518.760174,8807.752882
1169.398359,3599.690308,-3752.868619,8195.039638
1169.398659,153.178311,-2986.977064,8960.931193
1169.398959,-3676.279464,-1608.372265,9650.233593
1169.399259,-4748.527641,2604.031287,11794.729947
1169.399559,-6816.434839,3216.744531,12177.675724
1169.399859,-6050.543284,5284.651729,12024.497413
1169.400158,-7965.272172,3216.744531,12866.978124
1169.400457,-7352.558928,1378.604799,12790.388968
1169.400756,765.891555,153.178311,11182.016703
1169.401056,5054.884263,-842.480710,10416.125148
1169.401355,8501.396260,-4365.581863,10722.481770
1169.401654,7735.504705,-7046.202306,11028.838392
1169.401953,9114.109504,-3446.511997,8654.574571
1169.402260,6739.845684,-1148.837332,7888.683016
1169.402560,-1914.728887,-536.124088,9650.233593
1169.402860,-4825.116796,919.069866,10569.303459
1169.403160,-7122.791461,1684.961421,11028.838392
1169.403460,-8271.628794,1838.139732,12101.086569
1169.403760,-7199.380617,1531.783110,12560.621502
1169.404060,-7122.791461,-229.767466,13556.280523
1169.404360,-4748.527641,-1148.837332,13249.923901
1169.404681,306.356622,-382.945777,10109.768526
1169.404981,5054.884263,153.178311,9190.698660
1169.405282,5820.775818,-2221.085509,7888.683016
1169.405582,5667.597507,-4901.705952,8654.574571
1169.405882,5514.419196,-6127.132440,9267.287815
1169.406183,3906.046930,-6127.132440,8348.217949
1169.406483,1378.604799,-7046.202306,9420.466126
1169.406784,2374.263820,-2833.798753,8501.396260
1169.407103,2833.798753,1991.318043,8654.574571
1169.407396,612.713244,3676.279464,10262.946837
1169.407690,-6050.543284,3369.922842,12101.086569
1169.407983,-5284.651729,6050.543284,11641.551636
1169.408277,-6356.899906,5284.651729,11641.551636
1169.408570,-6663.256528,2604.031287,12484.032346
1169.408864,-842.480710,1991.318043,10109.768526
1169.409158,2986.977064,1838.139732,9803.411904
1169.409475,2986.977064,-3599.690308,9956.590215
1169.409774,2297.674665,-8118.450483,13556.280523
1169.410072,4059.225241,-5514.419196,11488.373325
1169.410371,4212.403552,-2986.977064,9114.109504
1169.410669,1838.139732,-536.124088,9267.287815
1169.410968,-229.767466,-0.000000,10109.768526
1169.411267,-76.589155,2910.387909,9420.466126
1169.411565,-1914.728887,2297.674665,10109.768526
1169.411865,-5437.830040,1531.783110,12637.210657
1169.412162,-4748.527641,-689.302399,12790.388968
1169.412460,-4595.349330,-382.945777,12790.388968
1169.412757,612.713244,306.356622,11182.016703
1169.413055,459.534933,-995.659021,11182.016703
1169.413352,612.713244,-1914.728887,12254.264880
1169.413650,306.356622,-2986.977064,11335.195014
1169.413947,2986.977064,-1302.015643,9420.466126
1169.414254,1838.139732,-1761.550576,8960.931193
1169.414556,-229.767466,-3140.155375,9650.233593
1169.414857,3752.868619,-1148.837332,6663.256528
1169.415159,459.534933,-536.124088,8807.752882
1169.415461,-842.480710,-689.302399,10416.125148
1169.415762,-2604.031287,-1302.015643,11488.373325
1169.416064,-2450.852976,-229.767466,10569.303459
1169.416366,-229.767466,153.178311,8118.450483
1169.416611,-4595.349330,-2680.620442,11335.195014
1169.416921,-76.589155,-2680.620442,11182.016703
1169.417231,2680.620442,-2986.977064,10262.946837
1169.417541,2144.496354,-4671.938485,11335.195014
1169.417852,4518.760174,-3906.046930,9956.590215
1169.418162,4748.527641,-842.480710,9803.411904
1169.418472,2374.263820,1378.604799,8501.396260
1169.418782,1378.604799,2910.387909,8195.039638
1169.419101,-689.302399,6510.078217,9956.590215
1169.419397,-1761.550576,7122.791461,9114.109504
1169.419693,-7122.791461,3829.457775,12101.086569
1169.419989,-9880.001059,1378.604799,14934.885322
1169.420285,-7965.272172,765.891555,13556.280523
1169.420581,-4288.992708,-229.767466,11947.908258
1169.420877,3906.046930,-689.302399,9190.698660
1169.421173,5667.597507,-2680.620442,10416.125148
1169.421445,6893.023995,-4365.581863,11488.373325
1169.421746,6127.132440,-4825.116796,10416.125148
1169.422046,5208.062574,-2833.798753,9573.644437
1169.422347,3293.333686,-2680.620442,9573.644437
1169.422648,-1914.728887,-1608.372265,11641.551636
1169.422949,-842.480710,3369.922842,8195.039638
1169.423250,-0.000000,6969.613150,6510.078217
1169.423551,-7505.737239,1531.783110,12407.443191
1169.423851,-9573.644437,-842.480710,14628.528700
1169.424150,-7505.737239,1072.248177,14168.993767
1169.424449,-4135.814397,459.534933,10722.481770
1169.424749,-689.302399,-2221.085509,11028.838392
1169.425048,919.069866,-4671.938485,12407.443191
1169.425347,7275.969772,-3906.046930,8654.574571
1169.425646,7046.202306,-4671.938485,8195.039638
1169.425945,5208.062574,-5820.775818,8960.931193
1169.426259,3599.690308,-4518.760174,8960.931193
1169.426557,1991.318043,-2374.263820,8654.574571
1169.426856,1838.139732,-0.000000,7505.737239
1169.427155,-1455.193954,2604.031287,9956.590215
1169.427454,-2374.263820,2144.496354,11718.140791
1169.427752,-3829.457775,1991.318043,11947.908258
1169.428051,-1914.728887,3676.279464,11411.784169
1169.428350,-3369.922842,612.713244,12637.210657
1169.428657,-3063.566220,153.178311,10569.303459
1169.428954,1684.961421,459.534933,10262.946837
1169.429251,459.534933,-689.302399,10416.125148
1169.429549,612.713244,-2527.442131,11335.195014
1169.429846,2527.442131,-1302.015643,11641.551636
1169.430143,5820.775818,765.891555,7505.737239
1169.430440,2680.620442,-229.767466,7888.683016
1169.430738,-382.945777,-1761.550576,9956.590215
1169.431067,-3063.566220,-689.302399,12177.675724
1169.431364,-2450.852976,-229.767466,11488.373325
1169.431660,-3523.101153,-1302.015643,11028.838392
1169.431956,-3829.457775,-1302.015643,13096.745590
1169.432253,-2757.209598,-229.767466,12407.443191
1169.432549,-2374.263820,1072.248177,11105.427547
1169.432845,3140.155375,3369.922842,9267.287815
1169.433141,2680.620442,3523.101153,9573.644437
1169.433469,1225.426488,-382.945777,9956.590215
1169.433765,-842.480710,-3140.155375,11182.016703
1169.434061,-3523.101153,-4825.116796,10875.660081
1169.434358,-3676.279464,-5208.062574,10569.303459
1169.434654,-3523.101153,-4365.581863,9956.590215
1169.434950,459.534933,-2374.263820,9190.698660
1169.435246,3140.155375,-1608.372265,9650.233593
1169.435542,2297.674665,-1608.372265,10262.946837
1169.435830,4518.760174,-76.589155,9420.466126
1169.436131,1838.139732,-229.767466,10569.303459
1169.436432,-2221.085509,-2221.085509,12024.497413
1169.436733,612.713244,-76.589155,10186.357681
1169.437034,2527.442131,2757.209598,8501.396260
1169.437334,2374.263820,1072.248177,8195.039638
1169.437635,-1148.837332,-2833.798753,11488.373325
1169.437936,-382.945777,-1608.372265,12637.210657
1169.438250,2680.620442,1378.604799,9037.520349
1169.438548,-382.945777,459.534933,9956.590215
1169.438847,-382.945777,919.069866,10492.714303
1169.439146,-2604.031287,459.534933,11182.016703
1169.439445,-4442.171019,1072.248177,11335.195014
1169.439743,-5284.651729,-0.000000,10875.660081
1169.440042,-6050.543284,-2067.907198,14015.815456
1169.440341,-3369.922842,-2680.620442,13249.923901
1169.440648,1684.961421,-842.480710,10416.125148
1169.440947,7046.202306,153.178311,8807.752882
1169.441247,7046.202306,306.356622,9267.287815
1169.441547,4671.938485,-995.659021,10569.303459
1169.441847,2680.620442,-689.302399,10416.125148
1169.442146,1072.248177,306.356622,10416.125148
1169.442446,-2450.852976,1378.604799,10186.357681
1169.442746,-842.480710,765.891555,9803.411904
1169.443075,-3829.457775,1838.139732,11335.195014
1169.443368,-4442.171019,2757.209598,11488.373325
1169.443660,-4288.992708,153.178311,11182.016703
1169.443953,-2757.209598,765.891555,11564.962480
1169.444246,-2374.263820,-2680.620442,10569.303459
1169.444538,-4825.116796,-4901.705952,11335.195014
1169.444831,-3369.922842,-6433.489062,12254.264880
1169.445124,306.356622,-7046.202306,9267.287815
1169.445438,4518.760174,-6739.845684,9880.001059
1169.445737,5514.419196,-7199.380617,8807.752882
1169.446036,7888.683016,-3140.155375,7429.148083
1169.446334,6893.023995,-229.767466,8807.752882
1169.446633,2833.798753,1072.248177,7888.683016
1169.446932,1378.604799,2910.387909,9650.233593
1169.447230,-842.480710,4978.295107,9420.466126
1169.447529,-4442.171019,3523.101153,10416.125148
1169.447841,-5284.651729,1225.426488,12254.264880
1169.448141,-6969.613150,-382.945777,13556.280523
1169.448441,-5591.008351,-3752.868619,13326.513057
1169.448741,-229.767466,-2986.977064,11028.838392
1169.449041,1072.248177,-4365.581863,10492.714303
1169.449341,2986.977064,-4212.403552,11794.729947
1169.449641,2986.977064,-2833.798753,10569.303459
1169.449940,5820.775818,919.069866,8348.217949
1169.450240,4518.760174,1378.604799,9573.644437
1169.450539,306.356622,459.534933,11028.838392
1169.450838,3446.511997,4135.814397,8960.931193
1169.451136,4671.938485,6816.434839,6510.078217
1169.451435,-1608.372265,2450.852976,11335.195014
1169.451734,-8118.450483,-3140.155375,16390.079277
1169.452033,-9343.876971,-2833.798753,15241.241944
1169.452331,-5591.008351,306.356622,11488.373325
1169.452638,-4595.349330,-689.302399,12024.497413
1169.452940,-3216.744531,-1302.015643,11947.908258
1169.453241,2297.674665,-536.124088,9420.466126
1169.453543,5514.419196,153.178311,8271.628794
1169.453844,4748.527641,-1455.193954,8960.931193
1169.454146,3140.155375,-2986.977064,10799.070925
1169.454447,1991.318043,-76.589155,9420.466126
1169.454749,3293.333686,919.069866,6127.132440
1169.455065,-842.480710,919.069866,8960.931193
1169.455359,-5131.473418,-1761.550576,11488.373325
1169.455652,-5591.008351,-1761.550576,12330.854035
1169.455946,-2604.031287,-995.659021,10033.179370
1169.456240,-2221.085509,-4365.581863,11105.427547
1169.456533,-2221.085509,-5054.884263,12407.443191
1169.456827,2986.977064,-4671.938485,9956.590215
1169.457121,6739.845684,-1914.728887,9190.698660
1169.457439,6893.023995,-842.480710,9114.109504
1169.457738,4671.938485,-1148.837332,9956.590215
1169.458036,3906.046930,459.534933,9267.287815
1169.458334,919.069866,3216.744531,8807.752882
1169.458632,-3369.922842,3676.279464,8424.807105
1169.458931,-6663.256528,3063.566220,11794.729947
1169.459229,-8271.628794,612.713244,13249.923901
1169.459527,-7505.737239,765.891555,12713.799813
1169.459840,-4442.171019,-76.589155,11641.551636
1169.460138,-1302.015643,-536.124088,11871.319102
1169.460437,-536.124088,-3906.046930,12790.388968
1169.460735,3140.155375,-4901.705952,11411.784169
1169.461034,7429.148083,-3446.511997,10109.768526
1169.461332,10722.481770,-2527.442131,8195.039638
1169.461631,5667.597507,-4059.225241,9726.822748
1169.461929,3446.511997,-2833.798753,9650.233593
1169.462229,-1302.015643,-76.589155,10722.481770
1169.462529,-4978.295107,2757.209598,10416.125148
1169.462829,-3063.566220,4748.527641,9037.520349
1169.463129,-6203.721595,6050.543284,11488.373325
1169.463429,-4978.295107,4748.527641,12713.799813
1169.463729,-4825.116796,1991.318043,12254.264880
1169.464029,-3523.101153,1838.139732,11488.373325
1169.464329,-3523.101153,-4671.938485,12407.443191
1169.464636,-1914.728887,-9497.055282,12790.388968
1169.464933,6280.310751,-7199.380617,7735.504705
1169.465230,9956.590215,-5820.775818,6510.078217
1169.465526,6127.132440,-8577.985416,9803.411904
1169.465823,5820.775818,-5973.954129,9650.233593
1169.466120,5208.062574,-689.302399,7888.683016
1169.466417,612.713244,2604.031287,8501.396260
1169.466714,-4135.814397,3982.636086,9726.822748
1169.467057,-6356.899906,5591.008351,10492.714303
1169.467353,-6050.543284,5437.830040,10722.481770
1169.467650,-8271.628794,3982.636086,11564.962480
1169.467946,-6356.899906,1072.248177,13556.280523
1169.468242,-1914.728887,-382.945777,12790.388968
1169.468538,153.178311,-2067.907198,12407.443191
1169.468834,5514.419196,-2680.620442,10416.125148
1169.469130,4518.760174,-4365.581863,10262.946837
1169.469449,7046.202306,-5667.597507,9956.590215
1169.469745,7735.504705,-4671.938485,8348.217949
1169.470041,5208.062574,-1148.837332,9573.644437
1169.470337,1225.426488,-1455.193954,9650.233593
1169.470633,-842.480710,612.713244,9420.466126
1169.470929,-229.767466,3982.636086,10645.892614
1169.471225,-3369.922842,4288.992708,10262.946837
1169.471521,-9037.520349,2604.031287,13632.869679
1169.471867,-7505.737239,3523.101153,12943.567279
1169.472158,-4135.814397,4595.349330,11641.551636
1169.472449,-5284.651729,1072.248177,12177.675724
1169.472741,-3523.101153,-2221.085509,11794.729947
1169.473032,-382.945777,-5514.419196,11488.373325
1169.473323,4212.403552,-6127.132440,9956.590215
1169.473614,5208.062574,-7046.202306,8960.931193
1169.473905,7275.969772,-5973.954129,7888.683016
1169.474205,5054.884263,-5820.775818,8195.039638
1169.474505,1991.318043,-3446.511997,8654.574571
1169.474805,2144.496354,306.356622,8501.396260
1169.475105,-1148.837332,3216.744531,9343.876971
1169.475405,-3676.279464,2757.209598,9880.001059
1169.475705,-5437.830040,612.713244,11335.195014
1169.476005,-6663.256528,919.069866,13249.923901
1169.476305,-6050.543284,-995.659021,11947.908258
1169.476635,-5284.651729,-2680.620442,11794.729947
1169.476932,765.891555,-3599.690308,11028.838392
1169.477229,5361.240885,-3599.690308,10262.946837
1169.477526,8501.396260,-3599.690308,9650.233593
1169.477823,10569.303459,-2527.442131,6356.899906
1169.478120,7735.504705,-842.480710,9420.466126
1169.478417,2297.674665,-1761.550576,10569.303459
1169.478714,1072.248177,2910.387909,8807.752882
1169.479021,-995.659021,7122.791461,7582.326394
1169.479320,-7122.791461,3676.279464,11182.016703
1169.479619,-13939.226301,919.069866,16083.722655
1169.479918,-10645.892614,2297.674665,14475.350389
1169.480217,-4978.295107,3063.566220,11794.729947
1169.480515,-3829.457775,153.178311,12790.388968
1169.480814,919.069866,-1914.728887,12407.443191
1169.481113,8041.861327,-2067.907198,9803.411904
1169.481430,12177.675724,-1302.015643,8041.861327
1169.481730,9650.233593,-4671.938485,9114.109504
1169.482031,6127.132440,-4901.705952,10569.303459
1169.482332,1991.318043,-2680.620442,9650.233593
1169.482632,-1608.372265,765.891555,8960.931193
1169.482933,-4978.295107,3063.566220,8884.342038
1169.483234,-10186.357681,3523.101153,11718.140791
1169.483534,-10645.892614,2450.852976,12101.086569
1169.483849,-8424.807105,1838.139732,11641.551636
1169.484146,-5897.364973,306.356622,12637.210657
1169.484443,-6203.721595,-5208.062574,13096.745590
1169.484741,1991.318043,-5820.775818,10569.303459
1169.485038,9420.466126,-5054.884263,8195.039638
1169.485335,10416.125148,-8118.450483,8501.396260
1169.485632,8807.752882,-10033.179370,9420.466126
1169.485930,9956.590215,-4671.938485,7505.737239
1169.486219,11182.016703,-842.480710,5284.651729
1169.486518,-0.000000,-1608.372265,8348.217949
1169.486818,-5591.008351,-0.000000,11182.016703
1169.487117,-8118.450483,3982.636086,11718.140791
1169.487416,-8271.628794,5897.364973,11182.016703
1169.487715,-8731.163727,4135.814397,11182.016703
1169.488014,-6969.613150,2450.852976,13020.156435
1169.488313,-6050.543284,-229.767466,14168.993767
1169.488599,-76.589155,-76.589155,11641.551636
1169.488901,5054.884263,-1302.015643,9114.109504
1169.489203,5667.597507,-3599.690308,10492.714303
1169.489505,5208.062574,-7658.915550,11794.729947
1169.489806,6127.132440,-4901.705952,9803.411904
1169.490108,8041.861327,-1761.550576,7352.558928
1169.490410,2986.977064,-2374.263820,8577.985416
1169.490712,-1608.372265,-536.124088,11182.016703
1169.491018,-1914.728887,4595.349330,10416.125148
1169.491317,-229.767466,8348.217949,8731.163727
1169.491617,-5744.186662,6510.078217,9956.590215
1169.491917,-9573.644437,3829.457775,14628.528700
1169.492217,-11411.784169,1072.248177,15241.241944
1169.492517,-6816.434839,2144.496354,12790.388968
1169.492816,-0.000000,306.356622,11182.016703
1169.493116,612.713244,-4059.225241,12101.086569
1169.493413,5208.062574,-5208.062574,10645.892614
1169.493712,8195.039638,-4518.760174,8041.861327
1169.494012,9497.055282,-3446.511997,6586.667373
1169.494311,4748.527641,-5514.419196,8195.039638
1169.494611,2297.674665,-4825.116796,9267.287815
1169.494911,5054.884263,765.891555,7122.791461
1169.495210,2297.674665,1838.139732,7275.969772
1169.495510,-5591.008351,-1302.015643,10339.535992
1169.495805,-8271.628794,-1608.372265,13939.226301
1169.496105,-8118.450483,-0.000000,13249.923901
1169.496405,-8424.807105,459.534933,13862.637145
1169.496705,-5591.008351,-0.000000,11947.908258
1169.497005,-1148.837332,-689.302399,11028.838392
1169.497305,4059.225241,-689.302399,10416.125148
1169.497606,6739.845684,-2067.907198,8577.985416
1169.497906,8195.039638,-2067.907198,8807.752882
1169.498183,7582.326394,-3140.155375,9343.876971
1169.498485,5054.884263,-3293.333686,9114.109504
1169.498787,4748.527641,-842.480710,8041.861327
1169.499090,459.534933,1838.139732,7888.683016
1169.499392,-5744.186662,459.534933,12407.443191
1169.499695,-9726.822748,153.178311,15241.241944
1169.499997,-7658.915550,1378.604799,13249.923901
1169.500300,-4825.116796,2450.852976,12177.675724
1169.500632,-4442.171019,-382.945777,11794.729947
1169.500927,1531.783110,-995.659021,10416.125148
1169.501223,4365.581863,-1914.728887,10722.481770
1169.501518,4059.225241,-4212.403552,10722.481770
1169.501813,4518.760174,-4671.938485,10875.660081
1169.502109,4901.705952,-1914.728887,9573.644437
1169.502404,2374.263820,-382.945777,8271.628794
1169.502699,-536.124088,1838.139732,9267.287815
1169.503006,-2910.387909,4442.171019,9037.520349
1169.503304,-1608.372265,4978.295107,8960.931193
1169.503602,-3676.279464,1531.783110,10722.481770
1169.503901,-6203.721595,-382.945777,11028.838392
1169.504199,-4748.527641,-2067.907198,12713.799813
1169.504497,-4442.171019,-4825.116796,11335.195014
1169.504795,1225.426488,-5054.884263,10109.768526
1169.505093,4518.760174,-5361.240885,9650.233593
1169.505409,4365.581863,-6586.667373,10186.357681
1169.505708,3906.046930,-6280.310751,10416.125148
1169.506006,4365.581863,-3599.690308,9420.466126
1169.506304,2527.442131,-229.767466,8195.039638
1169.506603,-229.767466,1225.426488,9573.644437
1169.506901,-995.659021,3676.279464,10569.303459
1169.507200,-842.480710,5284.651729,10416.125148
1169.507498,-2757.209598,5284.651729,10262.946837
1169.507813,-2450.852976,4442.171019,9803.411904
1169.508111,-4595.349330,1684.961421,12713.799813
1169.508410,-5131.473418,-1761.550576,13709.458834
1169.508709,-1608.372265,-2221.085509,11564.962480
1169.509007,2374.263820,-2833.798753,10722.481770
1169.509306,4748.527641,-4518.760174,9650.233593
1169.509605,4518.760174,-4825.116796,11335.195014
1169.509903,6127.132440,-2527.442131,9803.411904
1169.510215,2144.496354,-2527.442131,9956.590215
1169.510512,-2910.387909,-2833.798753,11335.195014
1169.510808,-3063.566220,-382.945777,9803.411904
1169.511105,-842.480710,4978.295107,9267.287815
1169.511401,-3063.566220,4978.295107,11182.016703
1169.511698,-4748.527641,3369.922842,11641.551636
1169.511994,-4595.349330,2757.209598,12484.032346
1169.512291,-2221.085509,3216.744531,11335.195014
1169.512590,-2757.209598,-229.767466,10875.660081
1169.512890,1684.961421,-3293.333686,9726.822748
1169.513189,2680.620442,-4825.116796,9497.055282
1169.513488,2680.620442,-7046.202306,11947.908258
1169.513787,4365.581863,-6127.132440,8960.931193
1169.514087,5054.884263,-3140.155375,7582.326394
1169.514386,1838.139732,-4671.938485,9267.287815
1169.514685,2374.263820,-2067.907198,8195.039638
1169.514992,-1761.550576,1072.248177,9650.233593
1169.515291,-1302.015643,2910.387909,8654.574571
1169.515591,-5437.830040,153.178311,10722.481770
1169.515890,-5131.473418,-995.659021,12560.621502
1169.516189,-1608.372265,1072.248177,10875.660081
1169.516488,-4135.814397,-1608.372265,12254.264880
1169.516787,-382.945777,-2527.442131,12101.086569
1169.517087,1991.318043,-2067.907198,11641.551636
1169.517407,4059.225241,-1761.550576,10262.946837
1169.517708,5208.062574,-1608.372265,7582.326394
1169.518008,3140.155375,-1148.837332,9497.055282
1169.518308,306.356622,-0.000000,11258.605858
1169.518609,612.713244,1684.961421,10109.768526
1169.518909,3599.690308,5591.008351,8654.574571
1169.519209,765.891555,5897.364973,8960.931193
1169.519510,-3829.457775,1378.604799,12560.621502
1169.519828,-4442.171019,612.713244,12330.854035
1169.520122,-2450.852976,1684.961421,12101.086569
1169.520416,-3982.636086,-1761.550576,13096.745590
1169.520709,-3676.279464,-4901.705952,12407.443191
1169.521003,153.178311,-3752.868619,13096.745590
1169.521296,5054.884263,-2833.798753,9114.109504
1169.521590,6127.132440,-995.659021,7735.504705
1169.521883,5820.775818,459.534933,8654.574571
1169.522200,4671.938485,-0.000000,9190.698660
1169.522496,-842.480710,1072.248177,11335.195014
1169.522792,-2221.085509,4288.992708,8807.752882
1169.523088,-3829.457775,4748.527641,8654.574571
1169.523384,-8731.163727,-382.945777,11718.140791
1169.523680,-10033.179370,-3140.155375,13709.458834
1169.523976,-5897.364973,-1914.728887,12407.443191
1169.524272,-2910.387909,-1761.550576,11335.195014
1169.524572,919.069866,-4518.760174,10262.946837
1169.524873,5820.775818,-4671.938485,9267.287815
1169.525173,6893.023995,-4518.760174,8960.931193
1169.525474,4748.527641,-5973.954129,9190.698660
1169.525775,4518.760174,-5667.597507,8807.752882
1169.526076,4365.581863,-2221.085509,8041.861327
1169.526376,1072.248177,-1302.015643,10186.357681
1169.526677,-1302.015643,153.178311,10109.768526
1169.526949,-1608.372265,3216.744531,9880.001059
1169.527255,-689.302399,3676.279464,10569.303459
1169.527561,-4748.527641,2450.852976,11182.016703
1169.527867,-3523.101153,3216.744531,12330.854035
1169.528173,-2604.031287,2144.496354,13096.745590
1169.528479,-4825.116796,459.534933,12407.443191
1169.528785,-229.767466,306.356622,11488.373325
1169.529091,1378.604799,153.178311,9956.590215
1169.529336,3906.046930,-1148.837332,10109.768526
1169.529646,4365.581863,-3752.868619,11182.016703
1169.529956,5973.954129,-1148.837332,9573.644437
1169.530266,4671.938485,306.356622,8654.574571
1169.530577,-3063.566220,-2374.263820,10109.768526
1169.530887,-6203.721595,-3140.155375,11182.016703
1169.531197,-1914.728887,1838.139732,10875.660081
1169.531507,-2374.263820,2450.852976,10109.768526
1169.531780,-2450.852976,-536.124088,11335.195014
1169.532079,-3369.922842,-842.480710,14322.172078
1169.532378,-1455.193954,1378.604799,11794.729947
1169.532678,2297.674665,3063.566220,9726.822748
1169.532977,2297.674665,1378.604799,9420.466126
1169.533276,2144.496354,153.178311,7888.683016
1169.533575,-689.302399,-2221.085509,10109.768526
1169.533874,-76.589155,-3140.155375,9803.411904
1169.534192,-382.945777,-4212.403552,9573.644437
1169.534489,-2374.263820,-5820.775818,9650.233593
1169.534787,-1148.837332,-5054.884263,9650.233593
1169.535085,306.356622,-1761.550576,9880.001059
1169.535383,1225.426488,-995.659021,9573.644437
1169.535680,306.356622,-842.480710,10416.125148
1169.535978,-689.302399,-536.124088,13096.745590
1169.536276,-1455.193954,-536.124088,11028.838392
1169.536576,-995.659021,-382.945777,9956.590215
1169.536876,2680.620442,765.891555,9343.876971
1169.537176,2144.496354,-995.659021,10109.768526
1169.537476,-0.000000,-1455.193954,12943.567279
1169.537776,2680.620442,-382.945777,11794.729947
1169.538076,4365.581863,4288.992708,9267.287815
1169.538376,2986.977064,3829.457775,9880.001059
1169.538676,-1761.550576,1072.248177,11028.838392
1169.538967,-2067.907198,3063.566220,10569.303459
1169.539265,-2604.031287,1991.318043,9803.411904
1169.539564,-5591.008351,-2986.977064,11335.195014
1169.539863,-6050.543284,-5667.597507,13709.458834
1169.540161,-3063.566220,-4825.116796,12713.799813
1169.540460,-689.302399,-3752.868619,11258.605858
1169.540759,2527.442131,-2221.085509,10875.660081
1169.541057,3906.046930,-689.302399,10416.125148
1169.541364,6280.310751,1991.318043,9726.822748
1169.541668,5361.240885,2604.031287,7965.272172
1169.541972,4518.760174,3063.566220,7965.272172
1169.542276,-382.945777,1225.426488,9956.590215
1169.542580,-2757.209598,919.069866,9650.233593
1169.542884,-5131.473418,765.891555,10569.303459
1169.543188,-5437.830040,919.069866,10416.125148
1169.543491,-7352.558928,-2986.977064,11947.908258
1169.543775,-3216.744531,-2374.263820,12101.086569
1169.544074,-0.000000,-2067.907198,8195.039638
1169.544373,306.356622,-4825.116796,9880.001059
1169.544671,-2067.907198,-9880.001059,11182.016703
1169.544970,765.891555,-9037.520349,11794.729947
1169.545269,4901.705952,-5208.062574,8884.342038
1169.545568,6280.310751,-2986.977064,6969.613150
1169.545867,4901.705952,-2067.907198,9573.644437
1169.546162,3293.333686,-76.589155,11182.016703
1169.546463,1531.783110,3523.101153,9037.520349
1169.546764,1991.318043,6816.434839,8654.574571
1169.547065,-2604.031287,6816.434839,10645.892614
1169.547366,-7505.737239,3216.744531,12713.799813
1169.547666,-7122.791461,1072.248177,12790.388968
1169.547967,-5284.651729,765.891555,12713.799813
1169.548268,-4825.116796,-2680.620442,12560.621502
1169.548556,-3369.922842,-4671.938485,13709.458834
1169.548857,2680.620442,-3752.868619,11182.016703
1169.549158,9267.287815,-842.480710,8654.574571
1169.549459,8807.752882,-1148.837332,9267.287815
1169.549760,6433.489062,-2374.263820,9803.411904
1169.550060,4365.581863,153.178311,10875.660081
1169.550361,-2450.852976,459.534933,10722.481770
1169.550662,-3063.566220,3063.566220,8807.752882
1169.550971,-5437.830040,4978.295107,9726.822748
1169.551270,-4288.992708,3982.636086,10492.714303
1169.551569,-6969.613150,765.891555,12713.799813
1169.551868,-3216.744531,1531.783110,10569.303459
1169.552167,1225.426488,1838.139732,9956.590215
1169.552466,-3369.922842,-4671.938485,12713.799813
1169.552764,-382.945777,-6586.667373,12407.443191
1169.553063,1991.318043,-4518.760174,10109.768526
1169.553370,5514.419196,-3140.155375,8424.807105
1169.553670,4901.705952,-5054.884263,8195.039638
1169.553970,1531.783110,-3906.046930,10262.946837
1169.554269,1684.961421,-1455.193954,9190.698660
1169.554569,919.069866,1378.604799,7429.148083
1169.554869,-1761.550576,459.534933,8424.807105
1169.555168,-4978.295107,-689.302399,10416.125148
1169.555468,-6969.613150,-1302.015643,12407.443191
1169.555764,-3982.636086,-1455.193954,11488.373325
1169.556064,-2450.852976,-2833.798753,11794.729947
1169.556364,-2374.263820,-5208.062574,13709.458834
1169.556663,2986.977064,-2833.798753,10033.179370
1169.556963,7429.148083,-536.124088,10569.303459
1169.557262,8041.861327,-382.945777,9114.109504
1169.557562,4901.705952,-229.767466,9726.822748
1169.557861,5208.062574,3063.566220,9956.590215
1169.558156,1072.248177,2910.387909,10109.768526
1169.558455,-4442.171019,919.069866,9956.590215
1169.558755,-1914.728887,3982.636086,9267.287815
1169.559054,-2221.085509,4135.814397,8807.752882
1169.559353,-4595.349330,1531.783110,9267.287815
1169.559652,-10339.535992,-4518.760174,14781.707011
1169.559952,-10952.249236,-6280.310751,16696.435899
1169.560251,-5591.008351,-5054.884263,13249.923901
1169.560563,-3982.636086,-4365.581863,13020.156435
1169.560863,4365.581863,-2374.263820,8960.931193
1169.561163,10109.768526,153.178311,8807.752882
1169.561463,12177.675724,1072.248177,7582.326394
1169.561763,14245.582923,4748.527641,6663.256528
1169.562063,8195.039638,4748.527641,8654.574571
1169.562363,612.713244,3829.457775,9420.466126
1169.562663,-3829.457775,3982.636086,9803.411904
1169.562962,-8118.450483,2757.209598,9267.287815
1169.563262,-9573.644437,-0.000000,10109.768526
1169.563562,-13479.691368,-4901.705952,12637.210657
1169.563862,-10799.070925,-6739.845684,14551.939545
1169.564162,-6816.434839,-6280.310751,14858.296167
1169.564462,-2604.031287,-8271.628794,11411.784169
1169.564762,6280.310751,-6127.132440,9420.466126
1169.565062,9267.287815,-2680.620442,9420.466126
1169.565369,8195.039638,-3293.333686,10722.481770
1169.565665,9267.287815,-0.000000,8348.217949
1169.565961,12637.210657,4748.527641,4288.992708
1169.566257,7275.969772,3369.922842,7275.969772
1169.566553,-3216.744531,153.178311,12101.086569
1169.566849,-3676.279464,4442.171019,10722.481770
1169.567145,-4288.992708,4978.295107,9803.411904
1169.567441,-8731.163727,1838.139732,12407.443191
