#time,accel_x,accel_y,accel_z
1208.520833,-76.589155,-382.945777,10416.125148
1208.521129,153.178311,-382.945777,10339.535992
1208.521425,-382.945777,-536.124088,10569.303459
1208.521721,153.178311,-382.945777,10645.892614
1208.522018,3446.511997,-229.767466,10109.768526
1208.522318,5208.062574,-0.000000,9880.001059
1208.522619,10416.125148,153.178311,9573.644437
1208.522920,13709.458834,-76.589155,9803.411904
1208.523221,19300.467186,612.713244,8884.342038
1208.523522,21138.606918,765.891555,9114.109504
1208.523822,21521.552695,765.891555,9650.233593
1208.524123,22440.622561,1378.604799,9267.287815
1208.524428,19760.002119,2144.496354,9420.466126
1208.524725,18457.986475,1378.604799,9267.287815
1208.525022,14858.296167,1225.426488,9880.001059
1208.525319,13709.458834,612.713244,10492.714303
1208.525616,16543.257588,153.178311,11028.838392
1208.525913,21981.087628,612.713244,10109.768526
1208.526210,28261.398379,1531.783110,8654.574571
1208.526507,30635.662200,-229.767466,7735.504705
1208.526818,24355.351449,-2833.798753,9880.001059
1208.527121,16083.722655,-5820.775818,15317.831100
1208.527424,8041.861327,-5973.954129,16236.900966
1208.527726,3906.046930,-2067.907198,15547.598566
1208.528029,1378.604799,153.178311,13939.226301
1208.528332,-4288.992708,153.178311,15700.776877
1208.528635,-4825.116796,1378.604799,18994.110564
1208.528938,3293.333686,3982.636086,15547.598566
1208.529254,15471.009411,8501.396260,10645.892614
1208.529549,26116.902025,8348.217949,7429.148083
1208.529844,32397.212776,3676.279464,6127.132440
1208.530139,37452.097039,-229.767466,5208.062574
1208.530435,42047.446369,-2986.977064,3829.457775
1208.530730,42200.624680,-7658.915550,3369.922842
1208.531025,37911.631972,-10645.892614,5973.954129
1208.531320,29869.770645,-12024.497413,9573.644437
1208.531635,21291.785229,-8424.807105,12024.497413
1208.531934,14245.582923,-3599.690308,13556.280523
1208.532232,8654.574571,1378.604799,14168.993767
1208.532531,765.891555,3523.101153,14628.528700
1208.532830,-3216.744531,6050.543284,14322.172078
1208.533128,-3523.101153,4748.527641,13173.334746
1208.533427,2680.620442,765.891555,11488.373325
1208.533725,8807.752882,-3140.155375,10569.303459
1208.534023,15930.544344,-4671.938485,10952.249236
1208.534320,24968.064693,-2833.798753,9573.644437
1208.534616,34771.476597,2910.387909,5208.062574
1208.534913,39366.825927,5284.651729,4365.581863
1208.535210,30635.662200,4288.992708,8807.752882
1208.535507,17998.451542,612.713244,10952.249236
1208.535803,2680.620442,-3752.868619,13556.280523
1208.536100,-6969.613150,-8118.450483,13020.156435
1208.536411,-17155.970832,-9343.876971,12101.086569
1208.536710,-21598.141851,-11718.140791,15700.776877
1208.537009,-19530.234652,-13403.102212,18228.219009
1208.537307,-5284.651729,-6433.489062,15011.474478
1208.537606,10109.768526,2144.496354,10569.303459
1208.537905,22900.157494,9956.590215,5973.954129
1208.538204,34005.585042,15394.420255,1991.318043
1208.538502,28644.344157,17538.916609,6356.899906
1208.538807,18304.808164,12560.621502,7735.504705
1208.539112,1684.961421,7735.504705,9497.055282
1208.539416,-15547.598566,-76.589155,12943.567279
1208.539721,-30099.538111,-9497.055282,14322.172078
1208.540025,-38064.810283,-13403.102212,17538.916609
1208.540330,-31707.910377,-16083.722655,15853.955188
1208.540635,-18075.040698,-16236.900966,12330.854035
1208.540939,-76.589155,-9726.822748,11488.373325
1208.541220,22440.622561,-2527.442131,8424.807105
1208.541516,37452.097039,2604.031287,1684.961421
1208.541813,45417.369211,8348.217949,3063.566220
1208.542109,43349.462013,10722.481770,-765.891555
1208.542406,28644.344157,7275.969772,229.767466
1208.542702,1531.783110,-229.767466,11182.016703
1208.542998,-19377.056341,-6893.023995,14092.404612
1208.543295,-34541.709130,-6433.489062,17232.559987
1208.543620,-35843.724774,-2680.620442,17538.916609
1208.543916,-35307.600685,-3599.690308,15394.420255
1208.544212,-28720.933312,-1914.728887,18764.343097
1208.544508,-14322.172078,2604.031287,17615.505765
1208.544804,4059.225241,3982.636086,10492.714303
1208.545101,21981.087628,4442.171019,7965.272172
1208.545397,29563.414023,-689.302399,5131.473418
1208.545693,30635.662200,-2986.977064,4288.992708
1208.546002,25427.599626,-1914.728887,4442.171019
1208.546301,14398.761234,-3446.511997,5361.240885
1208.546601,-1148.837332,-5667.597507,10875.660081
1208.546900,-12101.086569,-2221.085509,13556.280523
1208.547199,-17462.327454,2297.674665,13862.637145
1208.547498,-19683.412963,5131.473418,16083.722655
1208.547797,-13173.334746,8654.574571,13326.513057
1208.548096,-1148.837332,13173.334746,9726.822748
1208.548408,8807.752882,12101.086569,10109.768526
1208.548705,8960.931193,2450.852976,9497.055282
1208.549003,7735.504705,-5514.419196,13709.458834
1208.549301,11335.195014,-6739.845684,6969.613150
1208.549599,14015.815456,-6893.023995,1072.248177
1208.549897,6280.310751,-10492.714303,5437.830040
1208.550195,-7199.380617,-11411.784169,11182.016703
1208.550493,-15700.776877,-6586.667373,15394.420255
1208.550797,-16696.435899,1072.248177,14934.885322
1208.551097,-18228.219009,3676.279464,12943.567279
1208.551396,-18075.040698,3369.922842,15394.420255
1208.551696,-11411.784169,4978.295107,16007.133499
1208.551996,306.356622,5897.364973,9803.411904
1208.552296,11794.729947,6356.899906,7735.504705
1208.552595,19300.467186,3523.101153,4671.938485
1208.552895,19760.002119,-1302.015643,6586.667373
1208.553222,18917.521408,-4212.403552,7965.272172
1208.553520,15011.474478,-4059.225241,4901.705952
1208.553818,3599.690308,-6739.845684,11182.016703
1208.554117,-3369.922842,-7658.915550,13020.156435
1208.554415,-9190.698660,-4901.705952,13249.923901
1208.554713,-9037.520349,612.713244,13096.745590
1208.555011,-8884.342038,1991.318043,11411.784169
1208.555309,-11258.605858,1991.318043,14168.993767
1208.555601,-7352.558928,3982.636086,13403.102212
1208.555902,-3676.279464,5744.186662,9573.644437
1208.556202,2527.442131,6816.434839,6969.613150
1208.556502,3752.868619,1684.961421,8424.807105
1208.556802,2833.798753,-4059.225241,10262.946837
1208.557102,1684.961421,-7352.558928,12637.210657
1208.557402,2833.798753,-8118.450483,10569.303459
1208.557703,2144.496354,-6739.845684,9803.411904
1208.557988,612.713244,-4365.581863,8807.752882
1208.558289,-76.589155,-3446.511997,6203.721595
1208.558590,-5744.186662,-3599.690308,10339.535992
1208.558891,-9343.876971,-3599.690308,9956.590215
1208.559191,-8884.342038,-3140.155375,7658.915550
1208.559492,-5437.830040,-1914.728887,8960.931193
1208.559793,-76.589155,-3752.868619,8348.217949
1208.560094,765.891555,-7046.202306,13403.102212
1208.560391,7275.969772,-536.124088,13096.745590
1208.560691,12790.388968,3063.566220,7505.737239
1208.560991,15317.831100,4288.992708,8731.163727
1208.561291,10262.946837,3063.566220,9803.411904
1208.561591,3293.333686,1378.604799,9803.411904
1208.561891,-3216.744531,-382.945777,11258.605858
1208.562191,-9037.520349,-4059.225241,11182.016703
1208.562491,-14934.885322,-9190.698660,12943.567279
1208.562795,-17002.792521,-7352.558928,15088.063633
1208.563094,-10799.070925,-3446.511997,13403.102212
1208.563392,-2604.031287,1225.426488,13862.637145
1208.563690,5973.954129,6203.721595,12560.621502
1208.563988,14705.117856,11182.016703,9880.001059
1208.564286,17845.273231,11641.551636,9650.233593
1208.564584,16773.025054,8348.217949,8195.039638
1208.564883,8654.574571,2757.209598,8501.396260
1208.565196,-842.480710,-3446.511997,10262.946837
1208.565498,-8424.807105,-7352.558928,9037.520349
1208.565800,-11871.319102,-9190.698660,10722.481770
1208.566102,-14245.582923,-7199.380617,11105.427547
1208.566403,-14934.885322,-7965.272172,11335.195014
1208.566705,-13939.226301,-4671.938485,16160.311810
1208.567007,-2067.907198,1684.961421,12330.854035
1208.567308,6586.667373,6510.078217,7812.093861
1208.567620,13862.637145,7582.326394,6280.310751
1208.567915,13096.745590,1838.139732,6893.023995
1208.568210,9114.109504,-1914.728887,9114.109504
1208.568505,7888.683016,-1761.550576,6663.256528
1208.568800,1225.426488,-3906.046930,6203.721595
1208.569095,-5284.651729,-6586.667373,10416.125148
1208.569390,-9497.055282,-7352.558928,10416.125148
1208.569685,-9880.001059,-4365.581863,12101.086569
1208.569995,-7658.915550,-2374.263820,13862.637145
1208.570293,-5131.473418,-1302.015643,12790.388968
1208.570592,153.178311,459.534933,12254.264880
1208.570890,5820.775818,3676.279464,11488.373325
1208.571189,9114.109504,153.178311,8654.574571
1208.571487,2833.798753,-2067.907198,13403.102212
1208.571786,5820.775818,-3446.511997,9956.590215
1208.572084,5361.240885,-689.302399,8041.861327
1208.572381,4212.403552,-0.000000,7735.504705
1208.572681,-229.767466,-1608.372265,9650.233593
1208.572980,-7199.380617,-1302.015643,13556.280523
1208.573279,-5284.651729,612.713244,13556.280523
1208.573578,-7199.380617,612.713244,12560.621502
1208.573878,-9190.698660,-1914.728887,14628.528700
1208.574177,-6816.434839,-2833.798753,14015.815456
1208.574476,-995.659021,-995.659021,11947.908258
1208.574780,6127.132440,919.069866,8118.450483
1208.575084,9114.109504,919.069866,5973.954129
1208.575387,7888.683016,1991.318043,9650.233593
1208.575691,6893.023995,765.891555,7275.969772
1208.575994,3140.155375,2910.387909,6356.899906
1208.576297,-5897.364973,-689.302399,12101.086569
1208.576601,-10339.535992,-536.124088,11411.784169
1208.576904,-8577.985416,-76.589155,12790.388968
1208.577222,-6050.543284,1838.139732,12713.799813
1208.577519,-2374.263820,-536.124088,9880.001059
1208.577816,-1761.550576,-536.124088,12713.799813
1208.578113,5514.419196,1531.783110,9190.698660
1208.578410,8807.752882,1684.961421,5973.954129
1208.578707,8501.396260,1684.961421,7275.969772
1208.579004,4901.705952,-536.124088,7965.272172
1208.579301,1531.783110,-2221.085509,10799.070925
1208.579537,-689.302399,-1914.728887,12407.443191
1208.579845,-2221.085509,153.178311,10722.481770
1208.580152,-4135.814397,-842.480710,13862.637145
1208.580460,-4288.992708,-1302.015643,13326.513057
1208.580767,-2221.085509,-842.480710,11028.838392
1208.581075,-2910.387909,-229.767466,12713.799813
1208.581382,-0.000000,-842.480710,8654.574571
1208.581690,459.534933,-1455.193954,8654.574571
1208.582005,1991.318043,-2680.620442,10569.303459
1208.582301,765.891555,-5514.419196,8501.396260
1208.582597,-3369.922842,-6586.667373,14628.528700
1208.582893,-1761.550576,-6433.489062,13862.637145
1208.583189,2833.798753,-1608.372265,8807.752882
1208.583485,4365.581863,-995.659021,8884.342038
1208.583781,2986.977064,-1608.372265,10109.768526
1208.584077,-382.945777,-3906.046930,10569.303459
1208.584374,-536.124088,-1302.015643,10109.768526
1208.584675,-2604.031287,-2680.620442,8807.752882
1208.584975,-6816.434839,-5208.062574,10722.481770
1208.585276,-7122.791461,-4059.225241,12330.854035
1208.585577,-536.124088,459.534933,9956.590215
1208.585878,4518.760174,3216.744531,9114.109504
1208.586178,7888.683016,4825.116796,9497.055282
1208.586479,8041.861327,5591.008351,9956.590215
1208.586784,8501.396260,4978.295107,11182.016703
1208.587085,4901.705952,2144.496354,8195.039638
1208.587386,-2221.085509,-1761.550576,10262.946837
1208.587686,-7965.272172,-3906.046930,12101.086569
1208.587987,-10645.892614,-4825.116796,10722.481770
1208.588288,-8271.628794,-3140.155375,11794.729947
1208.588589,-5131.473418,612.713244,12024.497413
1208.588890,-1914.728887,2144.496354,11028.838392
1208.589202,2144.496354,5131.473418,11718.140791
1208.589502,7046.202306,8501.396260,8960.931193
1208.589802,8807.752882,7429.148083,9420.466126
1208.590103,7735.504705,4825.116796,9573.644437
1208.590403,2680.620442,-536.124088,10262.946837
1208.590703,-1455.193954,-5973.954129,12637.210657
1208.591004,-5284.651729,-5820.775818,11028.838392
1208.591304,-5591.008351,-6280.310751,10416.125148
1208.591620,-6969.613150,-7812.093861,12943.567279
1208.591916,-5131.473418,-5514.419196,10033.179370
1208.592212,-842.480710,-0.000000,11411.784169
1208.592508,1378.604799,2450.852976,11105.427547
1208.592804,5820.775818,3216.744531,7352.558928
1208.593100,7122.791461,2757.209598,11182.016703
1208.593396,5973.954129,765.891555,9803.411904
1208.593692,765.891555,-3293.333686,10799.070925
1208.594007,-1914.728887,-4518.760174,13403.102212
1208.594304,-536.124088,-4901.705952,8654.574571
1208.594600,-536.124088,-5054.884263,8577.985416
1208.594897,-2067.907198,-4365.581863,10645.892614
1208.595194,-2757.209598,-4825.116796,10339.535992
1208.595490,-2374.263820,-1455.193954,10416.125148
1208.595787,-382.945777,1684.961421,11794.729947
1208.596084,-2067.907198,-689.302399,10033.179370
1208.596371,-842.480710,306.356622,11335.195014
1208.596670,3293.333686,3216.744531,9497.055282
1208.596969,3752.868619,1684.961421,8807.752882
1208.597268,3293.333686,-536.124088,8577.985416
1208.597568,1684.961421,-689.302399,8041.861327
1208.597867,612.713244,-1761.550576,10262.946837
1208.598166,-689.302399,-2986.977064,9956.590215
1208.598465,-2221.085509,-1761.550576,10262.946837
1208.598776,-3063.566220,-1608.372265,12407.443191
1208.599075,-5437.830040,-1914.728887,12560.621502
1208.599374,-3216.744531,1225.426488,13786.047990
1208.599672,919.069866,3829.457775,12330.854035
1208.599971,3599.690308,3676.279464,8960.931193
1208.600270,-536.124088,1838.139732,11411.784169
1208.600569,-76.589155,2450.852976,11028.838392
1208.600867,-382.945777,2450.852976,9803.411904
1208.601206,919.069866,1072.248177,8960.931193
1208.601501,-842.480710,-3140.155375,10186.357681
1208.601796,-5131.473418,-5208.062574,14781.707011
1208.602090,-1455.193954,-2067.907198,12866.978124
1208.602385,4212.403552,3216.744531,9267.287815
1208.602680,6739.845684,1684.961421,10262.946837
1208.602975,5514.419196,1378.604799,10875.660081
1208.603270,3906.046930,1684.961421,10109.768526
1208.603564,4518.760174,3216.744531,9267.287815
1208.603865,2833.798753,1072.248177,6510.078217
1208.604165,-1148.837332,-3293.333686,7812.093861
1208.604465,-6969.613150,-6280.310751,12254.264880
1208.604766,-8731.163727,-7658.915550,12254.264880
1208.605066,-9343.876971,-7199.380617,14781.707011
1208.605366,-4595.349330,-3599.690308,10109.768526
1208.605667,153.178311,-229.767466,9343.876971
1208.605959,2680.620442,765.891555,9190.698660
1208.606260,4059.225241,1991.318043,8118.450483
1208.606561,2374.263820,306.356622,8884.342038
1208.606862,2833.798753,-536.124088,7582.326394
1208.607163,-3523.101153,-5208.062574,10416.125148
1208.607463,-5897.364973,-8271.628794,11794.729947
1208.607764,-4825.116796,-7046.202306,11335.195014
1208.608065,-382.945777,-4059.225241,9573.644437
1208.608351,-536.124088,-3293.333686,12407.443191
1208.608652,459.534933,459.534933,12254.264880
1208.608952,5667.597507,6203.721595,11182.016703
1208.609253,9803.411904,9114.109504,8577.985416
1208.609554,6893.023995,6510.078217,7812.093861
1208.609855,-1914.728887,3063.566220,12713.799813
1208.610156,-3369.922842,919.069866,12713.799813
1208.610457,-7122.791461,-689.302399,11641.551636
1208.610763,-6663.256528,-536.124088,13403.102212
1208.611062,-4135.814397,-1455.193954,12177.675724
1208.611360,-0.000000,1838.139732,12713.799813
1208.611659,3599.690308,5131.473418,11028.838392
1208.611957,5361.240885,4978.295107,9573.644437
1208.612256,5514.419196,5591.008351,10262.946837
1208.612554,7275.969772,3829.457775,8424.807105
1208.612853,765.891555,-995.659021,9114.109504
1208.613158,-4825.116796,-4059.225241,11335.195014
1208.613458,-5131.473418,-3906.046930,8884.342038
1208.613758,-4595.349330,-3599.690308,9956.590215
1208.614059,-6203.721595,-5054.884263,9956.590215
1208.614359,-4288.992708,-2986.977064,9956.590215
1208.614660,-3982.636086,-1608.372265,12177.675724
1208.614960,3752.868619,612.713244,9880.001059
1208.615260,5667.597507,1531.783110,6356.899906
1208.615555,5361.240885,1225.426488,8960.931193
1208.615856,-536.124088,-5973.954129,10569.303459
1208.616158,-3676.279464,-7352.558928,12101.086569
1208.616460,-1914.728887,-5820.775818,9650.233593
1208.616762,-3982.636086,-4901.705952,6127.132440
1208.617063,-4135.814397,-6433.489062,9190.698660
1208.617365,-3523.101153,-3599.690308,12560.621502
1208.617667,-76.589155,-1608.372265,11564.962480
1208.617959,2833.798753,765.891555,11488.373325
1208.618259,4059.225241,919.069866,11182.016703
1208.618558,5054.884263,1072.248177,12790.388968
1208.618857,6433.489062,2297.674665,11028.838392
1208.619156,8041.861327,2604.031287,8807.752882
1208.619456,3140.155375,-995.659021,10186.357681
1208.619755,-229.767466,-2221.085509,10033.179370
1208.620054,-5131.473418,-689.302399,12713.799813
1208.620364,-6356.899906,-1302.015643,12637.210657
1208.620660,-6356.899906,-1148.837332,9726.822748
1208.620957,-6816.434839,-382.945777,13939.226301
1208.621254,-4978.295107,1072.248177,13709.458834
1208.621550,-1148.837332,4442.171019,11411.784169
1208.621847,4518.760174,7429.148083,10262.946837
1208.622143,5514.419196,5897.364973,8960.931193
1208.622440,4901.705952,2757.209598,8884.342038
1208.622760,2680.620442,2757.209598,8654.574571
1208.623060,306.356622,-842.480710,7352.558928
1208.623359,-4978.295107,-3752.868619,9880.001059
1208.623658,-6969.613150,-5514.419196,10569.303459
1208.623957,-6356.899906,-6586.667373,9650.233593
1208.624256,-7505.737239,-6739.845684,13173.334746
1208.624556,-3216.744531,-2833.798753,12637.210657
1208.624855,1378.604799,1991.318043,9190.698660
1208.625160,5973.954129,3982.636086,10492.714303
1208.625460,6893.023995,3369.922842,7582.326394
1208.625761,5514.419196,3676.279464,9114.109504
1208.626062,5208.062574,2604.031287,8501.396260
1208.626363,3906.046930,306.356622,6510.078217
1208.626663,-0.000000,-2527.442131,9037.520349
1208.626964,-3216.744531,-5820.775818,11105.427547
1208.627265,-8118.450483,-9190.698660,12790.388968
1208.627579,-8118.450483,-8577.985416,15317.831100
1208.627876,-4978.295107,-6280.310751,13939.226301
1208.628173,765.891555,-2527.442131,12101.086569
1208.628470,5054.884263,765.891555,11641.551636
1208.628767,7275.969772,612.713244,8577.985416
1208.629064,5514.419196,919.069866,8960.931193
1208.629361,5514.419196,2297.674665,7352.558928
1208.629658,-0.000000,153.178311,9267.287815
1208.629974,-4288.992708,-1914.728887,10569.303459
1208.630272,-6969.613150,-3293.333686,10262.946837
1208.630571,-10645.892614,-3752.868619,14168.993767
1208.630869,-8424.807105,-3140.155375,14475.350389
1208.631167,-2757.209598,-1455.193954,10952.249236
1208.631465,1838.139732,2757.209598,11488.373325
1208.631763,5054.884263,1991.318043,9956.590215
1208.632062,4212.403552,1684.961421,9573.644437
1208.632372,5208.062574,2604.031287,8424.807105
1208.632668,6280.310751,-0.000000,7275.969772
1208.632964,459.534933,-2067.907198,9497.055282
1208.633260,-4135.814397,-2833.798753,10262.946837
1208.633556,-6816.434839,-4212.403552,10722.481770
1208.633852,-8118.450483,-2221.085509,12790.388968
1208.634148,-1761.550576,3523.101153,12713.799813
1208.634444,306.356622,5591.008351,11335.195014
1208.634741,4518.760174,6050.543284,11335.195014
1208.635042,7429.148083,6816.434839,10645.892614
1208.635343,6739.845684,6050.543284,8807.752882
1208.635644,4901.705952,1991.318043,8654.574571
1208.635945,-0.000000,-1455.193954,8348.217949
1208.636245,-3523.101153,-4671.938485,9190.698660
1208.636546,-5284.651729,-5208.062574,10722.481770
1208.636847,-8424.807105,-5514.419196,10492.714303
1208.637151,-6510.078217,-4518.760174,14168.993767
1208.637448,-3063.566220,-2833.798753,12866.978124
1208.637745,919.069866,306.356622,12101.086569
1208.638042,7122.791461,4135.814397,11028.838392
1208.638339,7429.148083,2604.031287,9420.466126
1208.638636,6127.132440,1072.248177,8195.039638
1208.638933,4212.403552,-382.945777,7735.504705
1208.639230,-995.659021,-4059.225241,9114.109504
1208.639541,-5591.008351,-6893.023995,11105.427547
1208.639844,-7812.093861,-9343.876971,13709.458834
1208.640147,-7965.272172,-6586.667373,11794.729947
1208.640449,-4135.814397,-4901.705952,11182.016703
1208.640752,-2757.209598,-1914.728887,11411.784169
1208.641055,3140.155375,-536.124088,10569.303459
1208.641357,7429.148083,1684.961421,11028.838392
1208.641660,6586.667373,-382.945777,9573.644437
1208.641931,4901.705952,-0.000000,10569.303459
1208.642233,3752.868619,-1608.372265,8960.931193
1208.642536,1072.248177,-1302.015643,9267.287815
1208.642838,-382.945777,-1455.193954,8731.163727
1208.643141,-2757.209598,-2527.442131,9573.644437
1208.643444,-5437.830040,-842.480710,13249.923901
1208.643746,-1148.837332,3063.566220,12254.264880
1208.644049,765.891555,4288.992708,10875.660081
1208.644364,4365.581863,5284.651729,9420.466126
1208.644658,-1302.015643,919.069866,12177.675724
1208.644953,-3216.744531,-536.124088,12560.621502
1208.645247,-1148.837332,-76.589155,9420.466126
1208.645542,1225.426488,153.178311,7735.504705
1208.645836,2144.496354,-1148.837332,8501.396260
1208.646131,612.713244,-536.124088,10109.768526
1208.646425,-1455.193954,612.713244,9956.590215
1208.646746,-5131.473418,919.069866,11718.140791
1208.647042,-5897.364973,306.356622,11641.551636
1208.647339,-3676.279464,-0.000000,13173.334746
1208.647636,-0.000000,153.178311,12637.210657
1208.647933,3293.333686,153.178311,10033.179370
1208.648229,3599.690308,-76.589155,9803.411904
1208.648526,6280.310751,-76.589155,9573.644437
1208.648823,2680.620442,-76.589155,9650.233593
1208.649151,306.356622,-229.767466,9956.590215
1208.649451,-2910.387909,-1148.837332,9650.233593
1208.649751,-3829.457775,-1914.728887,10416.125148
1208.650051,-2604.031287,-995.659021,10339.535992
1208.650351,-995.659021,-2527.442131,11028.838392
1208.650652,1531.783110,-3293.333686,12101.086569
1208.650952,4059.225241,-4671.938485,11641.551636
1208.651252,3140.155375,-5361.240885,11488.373325
1208.651557,5208.062574,-3293.333686,10569.303459
1208.651857,6280.310751,-995.659021,7505.737239
1208.652157,2833.798753,-1302.015643,7199.380617
1208.652457,-1761.550576,-1148.837332,9650.233593
1208.652757,-4595.349330,-995.659021,9420.466126
1208.653056,-5284.651729,-1302.015643,10339.535992
1208.653356,-6510.078217,-3293.333686,11641.551636
1208.653656,-5591.008351,-3293.333686,12637.210657
1208.653937,-4442.171019,-2221.085509,12254.264880
1208.654240,1225.426488,-382.945777,10262.946837
1208.654543,1838.139732,-0.000000,11028.838392
1208.654845,1684.961421,-689.302399,10262.946837
1208.655148,612.713244,153.178311,10109.768526
1208.655451,1378.604799,1072.248177,7429.148083
1208.655754,1072.248177,765.891555,8654.574571
1208.656057,-3829.457775,-2527.442131,10109.768526
1208.656369,-5897.364973,-1455.193954,12330.854035
1208.656666,-2757.209598,153.178311,11105.427547
1208.656964,1225.426488,2450.852976,11488.373325
1208.657261,2986.977064,1378.604799,12177.675724
1208.657558,4365.581863,3676.279464,11564.962480
1208.657856,5208.062574,4442.171019,10109.768526
1208.658153,6893.023995,3829.457775,9573.644437
1208.658450,1378.604799,1378.604799,10033.179370
1208.658738,306.356622,-0.000000,10186.357681
1208.659037,-1455.193954,-229.767466,9650.233593
1208.659336,-2067.907198,-2221.085509,10645.892614
1208.659635,-2757.209598,-2986.977064,11258.605858
1208.659934,-1761.550576,-2221.085509,9956.590215
1208.660233,-229.767466,-1302.015643,11105.427547
1208.660532,153.178311,-2680.620442,11641.551636
1208.660831,-1914.728887,-2680.620442,12254.264880
1208.661138,-1455.193954,-2067.907198,10569.303459
1208.661436,919.069866,-1302.015643,9343.876971
1208.661735,-1761.550576,-2680.620442,10339.535992
1208.662033,-76.589155,-1148.837332,9343.876971
1208.662332,765.891555,765.891555,7582.326394
1208.662630,-3523.101153,-2221.085509,9650.233593
1208.662929,-3676.279464,-4825.116796,11794.729947
1208.663227,-6356.899906,-4365.581863,12713.799813
1208.663532,-995.659021,-3446.511997,10109.768526
1208.663832,-0.000000,-6127.132440,10416.125148
1208.664133,2144.496354,-5820.775818,9956.590215
1208.664433,4365.581863,-2680.620442,9880.001059
1208.664734,4518.760174,-2527.442131,8348.217949
1208.665035,3599.690308,-2221.085509,9343.876971
1208.665335,2374.263820,-1148.837332,9956.590215
1208.665636,-76.589155,459.534933,8807.752882
1208.665930,-1914.728887,1991.318043,9803.411904
1208.666228,-2067.907198,1838.139732,11871.319102
1208.666527,-0.000000,2604.031287,11794.729947
1208.666826,2374.263820,2144.496354,11488.373325
1208.667125,459.534933,919.069866,12330.854035
1208.667424,1838.139732,919.069866,10722.481770
1208.667723,2297.674665,3676.279464,9573.644437
1208.668022,459.534933,1838.139732,9420.466126
1208.668314,-2604.031287,-689.302399,11028.838392
1208.668614,-3216.744531,1531.783110,10645.892614
1208.668915,-4595.349330,612.713244,10262.946837
1208.669215,-3063.566220,1072.248177,10262.946837
1208.669515,-2604.031287,765.891555,12866.978124
1208.669815,-229.767466,612.713244,10952.249236
1208.670115,1225.426488,1225.426488,10416.125148
1208.670415,-229.767466,-536.124088,11028.838392
1208.670725,612.713244,-995.659021,9803.411904
1208.671025,-536.124088,-2221.085509,11182.016703
1208.671324,-0.000000,-2221.085509,9803.411904
1208.671624,4212.403552,-842.480710,8501.396260
1208.671924,2527.442131,-2067.907198,8731.163727
1208.672224,-1608.372265,-3293.333686,11028.838392
1208.672524,612.713244,-2680.620442,10416.125148
1208.672824,-382.945777,-1914.728887,10569.303459
1208.673131,612.713244,-2833.798753,10569.303459
1208.673427,2527.442131,-2833.798753,8424.807105
1208.673723,1531.783110,-995.659021,11028.838392
1208.674019,2986.977064,-2221.085509,8654.574571
1208.674315,-0.000000,-5973.954129,9956.590215
1208.674611,-3829.457775,-7812.093861,15241.241944
1208.674907,153.178311,-4365.581863,11258.605858
1208.675203,1225.426488,-76.589155,9650.233593
1208.675508,-382.945777,919.069866,9420.466126
1208.675810,-1302.015643,-0.000000,10109.768526
1208.676112,-2757.209598,1225.426488,10722.481770
1208.676414,-229.767466,1378.604799,9956.590215
1208.676716,-4978.295107,-4212.403552,11258.605858
1208.677019,-6969.613150,-4518.760174,13096.745590
1208.677321,-229.767466,-2067.907198,11028.838392
1208.677623,4212.403552,-229.767466,7582.326394
1208.677937,3293.333686,-842.480710,9114.109504
1208.678235,2374.263820,-842.480710,11335.195014
1208.678534,-76.589155,2144.496354,11028.838392
1208.678832,2374.263820,3982.636086,9573.644437
1208.679131,459.534933,306.356622,8195.039638
1208.679429,-3676.279464,-1455.193954,12790.388968
1208.679728,-2757.209598,-2527.442131,12560.621502
1208.680026,919.069866,-995.659021,9267.287815
1208.680338,1991.318043,-842.480710,10569.303459
1208.680637,1684.961421,765.891555,10416.125148
1208.680935,612.713244,3523.101153,10262.946837
1208.681234,2374.263820,4595.349330,9037.520349
1208.681533,612.713244,3063.566220,9803.411904
1208.681832,-3216.744531,1531.783110,12101.086569
1208.682130,-2067.907198,2144.496354,10722.481770
1208.682429,-0.000000,1838.139732,10569.303459
1208.682715,2374.263820,-229.767466,10186.357681
1208.683015,1991.318043,-2221.085509,11028.838392
1208.683315,459.534933,-2374.263820,11182.016703
1208.683615,306.356622,-382.945777,10569.303459
1208.683915,-536.124088,-689.302399,9420.466126
1208.684214,-995.659021,-536.124088,9726.822748
1208.684514,-2757.209598,-536.124088,11947.908258
1208.684814,-4135.814397,-2527.442131,12407.443191
1208.685111,-2910.387909,-1148.837332,11335.195014
1208.685410,2374.263820,2604.031287,8195.039638
1208.685710,3140.155375,2604.031287,8654.574571
1208.686009,4212.403552,-689.302399,10262.946837
1208.686308,-1302.015643,-4365.581863,11794.729947
1208.686607,-3523.101153,-7046.202306,12713.799813
1208.686907,-842.480710,-5514.419196,10186.357681
1208.687206,-1148.837332,-6739.845684,8884.342038
1208.687510,-2067.907198,-6280.310751,9420.466126
1208.687813,-1761.550576,-5208.062574,9420.466126
1208.688115,-229.767466,-2067.907198,10033.179370
1208.688418,306.356622,-2374.263820,12024.497413
1208.688721,-76.589155,-2680.620442,10033.179370
1208.689023,2144.496354,765.891555,10875.660081
1208.689326,6127.132440,3369.922842,8654.574571
1208.689628,4365.581863,306.356622,7582.326394
1208.689900,2374.263820,2757.209598,10186.357681
1208.690204,-536.124088,-382.945777,11718.140791
1208.690507,-2757.209598,-1148.837332,11488.373325
1208.690811,-1148.837332,-1148.837332,11794.729947
1208.691115,-1302.015643,-689.302399,9190.698660
1208.691418,-995.659021,306.356622,11488.373325
1208.691722,2297.674665,2910.387909,11182.016703
1208.692026,3752.868619,3216.744531,9037.520349
1208.692296,2680.620442,2450.852976,10109.768526
1208.692596,-1455.193954,-689.302399,12101.086569
1208.692896,-3063.566220,-536.124088,11871.319102
1208.693196,-536.124088,153.178311,9650.233593
1208.693497,-536.124088,306.356622,7888.683016
1208.693797,-3523.101153,153.178311,10339.535992
1208.694097,-3523.101153,-536.124088,12254.264880
1208.694397,-1761.550576,1072.248177,11488.373325
1208.694711,1838.139732,1378.604799,10722.481770
1208.695010,1991.318043,459.534933,10262.946837
1208.695309,1531.783110,-0.000000,11641.551636
1208.695607,4518.760174,-842.480710,11182.016703
1208.695906,3140.155375,-3140.155375,10339.535992
1208.696204,-382.945777,-4059.225241,10722.481770
1208.696503,-536.124088,-3140.155375,8960.931193
1208.696802,-3523.101153,-3599.690308,9650.233593
1208.697099,-842.480710,-2986.977064,10186.357681
1208.697400,-382.945777,-2986.977064,11335.195014
1208.697700,-2757.209598,-2527.442131,11641.551636
1208.698001,306.356622,-229.767466,11182.016703
1208.698302,2374.263820,1684.961421,11258.605858
1208.698603,3599.690308,919.069866,11564.962480
1208.698903,1991.318043,-4518.760174,12101.086569
1208.699204,-1302.015643,-4825.116796,11028.838392
1208.699509,3293.333686,-1148.837332,8654.574571
1208.699806,2144.496354,-2067.907198,6280.310751
1208.700102,-2450.852976,-2680.620442,8654.574571
1208.700399,-3063.566220,-4365.581863,10722.481770
1208.700696,-4135.814397,-3446.511997,11182.016703
1208.700993,-3523.101153,-1761.550576,11794.729947
1208.701290,306.356622,-0.000000,10416.125148
1208.701587,153.178311,306.356622,9650.233593
1208.701893,3446.511997,1684.961421,10569.303459
1208.702192,5361.240885,2144.496354,10952.249236
1208.702490,2527.442131,153.178311,9880.001059
1208.702789,919.069866,2910.387909,10109.768526
1208.703088,-842.480710,2450.852976,6739.845684
1208.703387,-3829.457775,-995.659021,9803.411904
1208.703686,-7658.915550,-4365.581863,14092.404612
1208.703985,-6969.613150,-2221.085509,12101.086569
1208.704300,-4825.116796,-1455.193954,12866.978124
1208.704602,-536.124088,919.069866,10875.660081
1208.704905,153.178311,4288.992708,12407.443191
1208.705208,7122.791461,6050.543284,10416.125148
1208.705510,7122.791461,4595.349330,8654.574571
1208.705813,5054.884263,2450.852976,10339.535992
1208.706115,3140.155375,1378.604799,8807.752882
1208.706418,-1148.837332,-229.767466,9880.001059
1208.706732,-1455.193954,-3140.155375,9650.233593
1208.707027,-3829.457775,-7352.558928,10339.535992
1208.707321,-6969.613150,-5667.597507,12484.032346
1208.707616,-2221.085509,-1148.837332,11718.140791
1208.707910,-842.480710,-0.000000,10722.481770
1208.708205,2144.496354,-76.589155,12560.621502
1208.708499,3599.690308,306.356622,11028.838392
1208.708794,5208.062574,2604.031287,8654.574571
1208.709091,2680.620442,765.891555,9650.233593
1208.709390,459.534933,-2067.907198,6893.023995
1208.709689,-3063.566220,-3599.690308,7582.326394
1208.709988,-3523.101153,-4212.403552,10569.303459
1208.710288,-6663.256528,-7352.558928,9650.233593
1208.710587,-10186.357681,-9343.876971,14092.404612
1208.710886,-4978.295107,-6433.489062,13326.513057
1208.711185,1838.139732,-2986.977064,9650.233593
1208.711496,6586.667373,-1302.015643,10569.303459
1208.711795,4901.705952,-1302.015643,10416.125148
1208.712094,5667.597507,2450.852976,8654.574571
1208.712392,8807.752882,4442.171019,6510.078217
1208.712691,1838.139732,-0.000000,7888.683016
1208.712990,-4288.992708,-3599.690308,11641.551636
1208.713288,-4748.527641,-536.124088,10416.125148
1208.713587,-4595.349330,-1302.015643,9956.590215
1208.713892,-4595.349330,-1148.837332,12866.978124
1208.714191,-2450.852976,-76.589155,13249.923901
1208.714491,-1302.015643,1838.139732,12943.567279
1208.714791,6586.667373,4978.295107,11488.373325
1208.715091,6739.845684,6050.543284,9803.411904
1208.715391,5361.240885,4442.171019,9343.876971
1208.715690,919.069866,1531.783110,9726.822748
1208.715990,-1302.015643,459.534933,9726.822748
1208.716284,-1761.550576,459.534933,9267.287815
1208.716584,-5284.651729,-2221.085509,9420.466126
1208.716883,-11258.605858,-3752.868619,12713.799813
1208.717182,-6510.078217,-2221.085509,13173.334746
1208.717481,-689.302399,153.178311,9880.001059
1208.717781,2297.674665,1072.248177,10952.249236
1208.718080,4365.581863,765.891555,11488.373325
1208.718379,4212.403552,-0.000000,11028.838392
1208.718704,5973.954129,459.534933,9650.233593
1208.719000,4901.705952,-382.945777,7735.504705
1208.719295,-382.945777,-4059.225241,8501.396260
1208.719591,-3216.744531,-4059.225241,10262.946837
1208.719886,-7965.272172,-4671.938485,10416.125148
1208.720181,-5897.364973,-3752.868619,11641.551636
1208.720477,-5591.008351,-3752.868619,13326.513057
1208.720772,-1914.728887,-1914.728887,10799.070925
1208.721082,3599.690308,919.069866,11105.427547
1208.721382,5361.240885,2604.031287,10262.946837
1208.721683,3293.333686,-1302.015643,11182.016703
1208.721984,3446.511997,-536.124088,12101.086569
1208.722285,2986.977064,-1455.193954,8654.574571
1208.722585,2144.496354,-2374.263820,6203.721595
1208.722886,919.069866,-3906.046930,8271.628794
1208.723187,-2757.209598,-4518.760174,10262.946837
1208.723494,-1148.837332,-2527.442131,10339.535992
1208.723793,-3369.922842,-1608.372265,12713.799813
1208.724092,-3982.636086,-2067.907198,12943.567279
1208.724392,-2450.852976,1072.248177,12790.388968
1208.724691,-842.480710,-0.000000,10569.303459
1208.724990,-0.000000,1072.248177,10416.125148
1208.725290,1531.783110,306.356622,9267.287815
1208.725589,1838.139732,2757.209598,8348.217949
1208.725894,3599.690308,1838.139732,9420.466126
1208.726193,2297.674665,765.891555,8501.396260
1208.726493,-4135.814397,-842.480710,10799.070925
1208.726793,-7352.558928,-995.659021,12484.032346
1208.727092,-5591.008351,-536.124088,11258.605858
1208.727392,-3829.457775,-382.945777,13556.280523
1208.727692,-995.659021,-1761.550576,12560.621502
1208.727991,1991.318043,-229.767466,10799.070925
1208.728285,5514.419196,2604.031287,10186.357681
1208.728583,9650.233593,4442.171019,6203.721595
1208.728880,5514.419196,2450.852976,8654.574571
1208.729178,1991.318043,2144.496354,9803.411904
1208.729475,-2450.852976,1072.248177,9114.109504
1208.729773,-6510.078217,-536.124088,12943.567279
1208.730070,-5131.473418,-536.124088,11718.140791
1208.730367,-4595.349330,-2221.085509,10569.303459
1208.730679,-842.480710,-2067.907198,12790.388968
1208.730978,1378.604799,-1914.728887,11641.551636
1208.731277,2144.496354,-1761.550576,10722.481770
1208.731575,3293.333686,-995.659021,11335.195014
1208.731874,4748.527641,-536.124088,8041.861327
1208.732173,4518.760174,-1608.372265,7352.558928
1208.732471,-536.124088,-2374.263820,8041.861327
1208.732770,-5744.186662,-6280.310751,10492.714303
1208.733079,-6356.899906,-6739.845684,12713.799813
1208.733378,-3063.566220,-6280.310751,12254.264880
1208.733677,-1148.837332,-4901.705952,11028.838392
1208.733977,2297.674665,-3293.333686,10875.660081
1208.734276,3293.333686,-2527.442131,10033.179370
1208.734575,2986.977064,-1148.837332,9726.822748
1208.734874,3293.333686,-76.589155,10033.179370
1208.735173,-229.767466,-995.659021,9267.287815
1208.735470,-1455.193954,-2221.085509,10033.179370
1208.735770,-1302.015643,-2221.085509,9803.411904
1208.736070,-3216.744531,-1455.193954,10645.892614
1208.736370,-842.480710,-536.124088,10569.303459
1208.736670,-842.480710,2297.674665,10569.303459
1208.736970,-995.659021,1838.139732,12484.032346
1208.737270,-76.589155,1531.783110,11411.784169
1208.737570,-842.480710,1838.139732,12407.443191
1208.737874,-842.480710,1684.961421,12101.086569
1208.738174,1531.783110,3369.922842,8731.163727
1208.738473,2527.442131,2910.387909,8424.807105
1208.738772,3293.333686,3523.101153,9114.109504
1208.739071,612.713244,1531.783110,9267.287815
1208.739371,-689.302399,1225.426488,10339.535992
1208.739670,2144.496354,2450.852976,9343.876971
1208.739969,-536.124088,1531.783110,10339.535992
1208.740287,-2450.852976,-689.302399,12560.621502
1208.740584,-1608.372265,-1761.550576,11028.838392
1208.740881,-842.480710,-2067.907198,10952.249236
1208.741178,-995.659021,-842.480710,12254.264880
1208.741475,-229.767466,-1302.015643,7735.504705
1208.741772,1684.961421,-382.945777,9343.876971
1208.742069,1684.961421,-229.767466,9037.520349
1208.742366,-1455.193954,-1302.015643,9650.233593
1208.742682,-5437.830040,-2527.442131,13096.745590
1208.742981,-2757.209598,-842.480710,9650.233593
1208.743279,-2067.907198,-995.659021,10799.070925
1208.743577,-536.124088,-2527.442131,11411.784169
1208.743875,-1914.728887,-4901.705952,11641.551636
1208.744173,-382.945777,-4365.581863,13096.745590
1208.744471,3752.868619,-2680.620442,9956.590215
1208.744770,3446.511997,-2527.442131,8731.163727
1208.745080,3599.690308,-842.480710,9726.822748
1208.745378,2986.977064,-229.767466,7812.093861
1208.745677,3293.333686,1531.783110,8348.217949
1208.745975,2297.674665,1072.248177,9956.590215
1208.746274,153.178311,-382.945777,10186.357681
1208.746572,-1761.550576,-1455.193954,12713.799813
1208.746871,-2604.031287,-3906.046930,12177.675724
1208.747169,-1302.015643,-3446.511997,10799.070925
1208.747466,-2757.209598,-3752.868619,11335.195014
1208.747767,-1608.372265,-842.480710,9726.822748
1208.748068,-842.480710,-689.302399,10109.768526
1208.748369,-689.302399,765.891555,10416.125148
1208.748669,-1302.015643,1531.783110,8501.396260
1208.748970,-3829.457775,919.069866,10569.303459
1208.749271,-1761.550576,1838.139732,10262.946837
1208.749571,459.534933,1684.961421,9726.822748
1208.749876,1838.139732,765.891555,10799.070925
1208.750173,2144.496354,-2374.263820,12407.443191
1208.750470,1838.139732,-1455.193954,10722.481770
1208.750767,3140.155375,306.356622,9956.590215
1208.751064,3446.511997,2297.674665,8807.752882
1208.751361,-536.124088,612.713244,9956.590215
1208.751657,-2757.209598,-382.945777,10569.303459
1208.751954,-536.124088,1684.961421,9573.644437
1208.752266,-2450.852976,1838.139732,13479.691368
1208.752569,-1608.372265,612.713244,10416.125148
1208.752872,-1914.728887,-229.767466,12407.443191
1208.753174,-0.000000,459.534933,13556.280523
1208.753477,2374.263820,1991.318043,10109.768526
1208.753780,1991.318043,1991.318043,10262.946837
1208.754083,1378.604799,2144.496354,8348.217949
1208.754386,2297.674665,-76.589155,8654.574571
1208.754656,-0.000000,-3293.333686,10875.660081
1208.754959,-1455.193954,-5054.884263,9880.001059
1208.755261,-2604.031287,-8884.342038,10569.303459
1208.755564,-2604.031287,-7199.380617,12407.443191
1208.755866,306.356622,-5514.419196,9880.001059
1208.756169,1991.318043,-3752.868619,11028.838392
1208.756471,-842.480710,-3752.868619,10645.892614
1208.756774,1684.961421,-1914.728887,9803.411904
1208.757089,3446.511997,1072.248177,7965.272172
1208.757383,1225.426488,-0.000000,9420.466126
1208.757677,-4825.116796,-3906.046930,11335.195014
1208.757972,-3523.101153,-1914.728887,10492.714303
1208.758266,-4595.349330,-2221.085509,9650.233593
1208.758561,-6203.721595,-3906.046930,12254.264880
1208.758855,-4825.116796,-2833.798753,12637.210657
1208.759150,612.713244,1072.248177,11028.838392
1208.759447,5514.419196,1991.318043,10416.125148
1208.759747,6586.667373,3676.279464,8807.752882
1208.760047,4748.527641,3216.744531,10416.125148
1208.760347,-76.589155,1531.783110,11641.551636
1208.760647,-1608.372265,1225.426488,9956.590215
1208.760947,-689.302399,1378.604799,10416.125148
1208.761248,-2067.907198,-0.000000,11182.016703
1208.761548,-1608.372265,612.713244,10875.660081
1208.761875,-842.480710,3982.636086,10569.303459
1208.762171,3752.868619,3369.922842,9956.590215
1208.762467,1225.426488,1684.961421,11564.962480
1208.762762,1225.426488,2144.496354,13403.102212
1208.763058,1991.318043,2450.852976,10109.768526
1208.763353,1838.139732,1225.426488,8960.931193
1208.763649,612.713244,-382.945777,9573.644437
1208.763945,-2067.907198,-2833.798753,10109.768526
1208.764249,-4748.527641,-3293.333686,12101.086569
1208.764551,-2374.263820,-2527.442131,8960.931193
1208.764852,-5437.830040,-4825.116796,9956.590215
1208.765153,-3369.922842,-2986.977064,12407.443191
1208.765454,919.069866,-382.945777,8960.931193
1208.765756,919.069866,153.178311,9956.590215
1208.766057,4671.938485,-2067.907198,8195.039638
1208.766358,-689.302399,-5514.419196,11488.373325
1208.766672,-229.767466,-5973.954129,12560.621502
1208.766973,-76.589155,-5514.419196,9726.822748
1208.767274,-1302.015643,-4901.705952,8960.931193
1208.767574,-842.480710,-3140.155375,10033.179370
1208.767875,-3063.566220,-2527.442131,10799.070925
1208.768175,-229.767466,459.534933,10339.535992
1208.768476,-1302.015643,-229.767466,11335.195014
1208.768777,-1914.728887,-76.589155,12177.675724
1208.769056,2144.496354,1684.961421,11488.373325
1208.769358,4901.705952,1684.961421,9497.055282
1208.769661,5667.597507,-229.767466,9420.466126
1208.769964,306.356622,-1148.837332,11105.427547
1208.770266,459.534933,306.356622,9420.466126
1208.770569,-1914.728887,-0.000000,10875.660081
1208.770872,-1302.015643,306.356622,9573.644437
1208.771175,-2604.031287,306.356622,9803.411904
1208.771462,-4825.116796,-1761.550576,11641.551636
1208.771761,-1302.015643,153.178311,10569.303459
1208.772060,-76.589155,153.178311,12177.675724
1208.772359,1531.783110,1684.961421,11182.016703
1208.772658,153.178311,612.713244,11182.016703
1208.772958,-1455.193954,1072.248177,9037.520349
1208.773257,2527.442131,459.534933,8118.450483
1208.773556,-536.124088,-382.945777,9420.466126
1208.773839,-1148.837332,-2374.263820,9803.411904
1208.774141,-2450.852976,-3140.155375,10569.303459
1208.774443,-2757.209598,-2986.977064,10875.660081
1208.774745,-2067.907198,-2680.620442,13096.745590
1208.775046,-689.302399,-1148.837332,11335.195014
1208.775348,612.713244,1378.604799,11794.729947
1208.775650,4365.581863,3216.744531,9420.466126
1208.775952,4518.760174,4442.171019,9037.520349
1208.776257,3293.333686,1531.783110,11028.838392
1208.776556,919.069866,-689.302399,9267.287815
1208.776856,306.356622,-1148.837332,8807.752882
1208.777156,1072.248177,-2374.263820,9573.644437
1208.777455,-3369.922842,-4212.403552,10569.303459
1208.777755,-4978.295107,-4901.705952,13096.745590
1208.778055,-5437.830040,-2527.442131,14705.117856
1208.778355,-229.767466,-1302.015643,10875.660081
1208.778649,2680.620442,306.356622,10799.070925
1208.778948,1838.139732,-0.000000,10722.481770
1208.779248,3752.868619,-689.302399,8884.342038
1208.779547,4059.225241,765.891555,7505.737239
1208.779847,2297.674665,-2221.085509,8041.861327
1208.780147,-2757.209598,-5820.775818,10645.892614
1208.780446,-3829.457775,-5054.884263,10262.946837
1208.780746,-4288.992708,-4518.760174,10109.768526
1208.781038,-5284.651729,-6893.023995,12407.443191
1208.781338,-4825.116796,-4901.705952,13096.745590
1208.781638,-76.589155,-2680.620442,11488.373325
1208.781939,8348.217949,2297.674665,8731.163727
1208.782239,7429.148083,2757.209598,7965.272172
1208.782539,4365.581863,1378.604799,10875.660081
1208.782839,765.891555,306.356622,10416.125148
1208.783139,-689.302399,1072.248177,8960.931193
1208.783448,-1148.837332,153.178311,9803.411904
1208.783746,-7352.558928,-995.659021,11794.729947
1208.784043,-9726.822748,1072.248177,12943.567279
1208.784341,-6510.078217,2910.387909,12407.443191
1208.784638,-4288.992708,4288.992708,12407.443191
1208.784936,-229.767466,2297.674665,13556.280523
1208.785233,3906.046930,2604.031287,10875.660081
1208.785530,8654.574571,4442.171019,9650.233593
1208.785828,10416.125148,4748.527641,9343.876971
1208.786128,10109.768526,3829.457775,5897.364973
1208.786428,5667.597507,919.069866,8348.217949
1208.786728,-1608.372265,-1148.837332,9956.590215
1208.787028,-3523.101153,-2221.085509,8501.396260
1208.787328,-8271.628794,-4059.225241,11411.784169
1208.787628,-8118.450483,-6433.489062,13556.280523
1208.787928,-4135.814397,-3906.046930,12560.621502
1208.788266,1072.248177,-1455.193954,10722.481770
1208.788560,2833.798753,-3140.155375,10875.660081
1208.788854,765.891555,-1608.372265,11488.373325
1208.789149,1225.426488,-536.124088,10645.892614
1208.789443,3599.690308,153.178311,6280.310751
1208.789737,-76.589155,-3906.046930,9267.287815
1208.790031,-3523.101153,-5054.884263,9956.590215
1208.790325,-1761.550576,-3140.155375,9803.411904
1208.790639,-1148.837332,-3293.333686,9803.411904
1208.790940,-1608.372265,-4671.938485,10416.125148
1208.791242,-7199.380617,-3906.046930,15011.474478
1208.791544,-382.945777,-1608.372265,14781.707011
1208.791846,3446.511997,2450.852976,10875.660081
1208.792147,4671.938485,2144.496354,10492.714303
1208.792449,2527.442131,2910.387909,10262.946837
1208.792751,4748.527641,6663.256528,9343.876971
1208.793063,8654.574571,5591.008351,7812.093861
1208.793359,2833.798753,1378.604799,8195.039638
1208.793656,-6050.543284,-1608.372265,10875.660081
1208.793952,-8884.342038,-4059.225241,12254.264880
1208.794248,-6969.613150,-2221.085509,12713.799813
1208.794544,-3829.457775,-2221.085509,14015.815456
1208.794840,-2067.907198,-2067.907198,14015.815456
1208.795137,5361.240885,3216.744531,10262.946837
1208.795423,12330.854035,7735.504705,5591.008351
1208.795725,11182.016703,3982.636086,5361.240885
1208.796027,459.534933,-0.000000,10262.946837
1208.796330,-3216.744531,-76.589155,10875.660081
1208.796632,-4442.171019,-1455.193954,7352.558928
1208.796935,-8271.628794,-4212.403552,9956.590215
1208.797237,-11871.319102,-7352.558928,14015.815456
1208.797540,-5744.186662,-4825.116796,12484.032346
1208.797837,-76.589155,-1302.015643,13096.745590
1208.798136,8041.861327,-76.589155,9037.520349
1208.798435,5973.954129,765.891555,8654.574571
1208.798734,6893.023995,2910.387909,10339.535992
1208.799034,6280.310751,3063.566220,7582.326394
1208.799333,1072.248177,1378.604799,9420.466126
1208.799632,-1761.550576,153.178311,9956.590215
1208.799932,-6969.613150,-3752.868619,11335.195014
1208.800270,-7352.558928,-4059.225241,14322.172078
1208.800564,-4595.349330,-3446.511997,11641.551636
1208.800859,-4825.116796,-3293.333686,13173.334746
1208.801153,-382.945777,-1148.837332,12560.621502
1208.801447,3752.868619,1684.961421,9803.411904
1208.801742,5973.954129,1838.139732,9573.644437
1208.802036,5361.240885,-689.302399,9267.287815
1208.802331,1838.139732,-842.480710,9650.233593
1208.802649,3446.511997,-1148.837332,9573.644437
1208.802949,2986.977064,-1761.550576,7046.202306
1208.803249,-995.659021,-3293.333686,9650.233593
1208.803550,-3829.457775,-2680.620442,13862.637145
1208.803850,-2221.085509,-536.124088,10416.125148
1208.804150,306.356622,-76.589155,10109.768526
1208.804451,-2374.263820,-2067.907198,13862.637145
1208.804751,-4595.349330,-2221.085509,12790.388968
1208.804986,-4442.171019,-1302.015643,11028.838392
1208.805292,2374.263820,919.069866,8807.752882
1208.805597,2527.442131,-76.589155,8807.752882
1208.805902,2986.977064,1225.426488,9650.233593
1208.806207,4059.225241,4442.171019,8348.217949
1208.806512,1531.783110,4442.171019,8348.217949
1208.806817,-0.000000,3676.279464,10722.481770
1208.807122,-6510.078217,1684.961421,12407.443191
1208.807437,-6356.899906,1531.783110,14475.350389
1208.807735,-3369.922842,1072.248177,11794.729947
1208.808034,-2757.209598,-689.302399,12713.799813
1208.808333,-842.480710,-2527.442131,13096.745590
1208.808631,2986.977064,1531.783110,9114.109504
1208.808930,5667.597507,3369.922842,7582.326394
1208.809229,4365.581863,1838.139732,7812.093861
1208.809527,459.534933,1225.426488,8501.396260
1208.809825,-76.589155,306.356622,9420.466126
1208.810125,-2604.031287,-2527.442131,9956.590215
1208.810426,-2757.209598,-7658.915550,11488.373325
1208.810727,-2450.852976,-7812.093861,11794.729947
1208.811028,765.891555,-7046.202306,10262.946837
1208.811328,1378.604799,-7046.202306,11028.838392
1208.811629,1684.961421,-7046.202306,11641.551636
1208.811930,2144.496354,-3293.333686,9803.411904
1208.812268,3599.690308,-689.302399,9267.287815
1208.812560,919.069866,-0.000000,7658.915550
1208.812852,-3523.101153,-689.302399,8960.931193
1208.813144,-3216.744531,-1914.728887,9267.287815
1208.813436,-2757.209598,-2374.263820,10109.768526
1208.813728,-6203.721595,-4825.116796,13249.923901
1208.814020,-1761.550576,-5514.419196,13786.047990
1208.814313,1072.248177,153.178311,12101.086569
1208.814618,5820.775818,1991.318043,10569.303459
1208.814917,5514.419196,3369.922842,9956.590215
1208.815216,1991.318043,4978.295107,11182.016703
1208.815515,3140.155375,5897.364973,10262.946837
1208.815814,-2757.209598,5591.008351,9573.644437
1208.816113,-7505.737239,1684.961421,11182.016703
1208.816412,-9037.520349,-76.589155,11794.729947
1208.816711,-7199.380617,-1455.193954,11028.838392
1208.817025,-1914.728887,-2374.263820,11794.729947
1208.817326,-229.767466,-4212.403552,10722.481770
1208.817628,3293.333686,-2986.977064,10416.125148
1208.817929,8041.861327,-1302.015643,9497.055282
1208.818231,9114.109504,-842.480710,7582.326394
1208.818532,7582.326394,612.713244,9114.109504
1208.818834,5820.775818,612.713244,8731.163727
1208.819135,4059.225241,612.713244,6510.078217
1208.819450,-229.767466,612.713244,9650.233593
1208.819747,-6816.434839,-2527.442131,11028.838392
1208.820043,-9726.822748,-3906.046930,12713.799813
1208.820340,-10492.714303,-5667.597507,15088.063633
1208.820637,-9497.055282,-4825.116796,12407.443191
1208.820933,-4748.527641,-3446.511997,12866.978124
1208.821230,2986.977064,153.178311,9956.590215
1208.821527,9650.233593,2910.387909,6816.434839
1208.821814,11488.373325,4288.992708,7965.272172
1208.822113,10569.303459,4595.349330,7352.558928
1208.822412,4212.403552,3982.636086,9114.109504
1208.822711,-689.302399,1838.139732,12560.621502
1208.823011,-6356.899906,459.534933,11335.195014
1208.823310,-7352.558928,-1914.728887,12560.621502
1208.823609,-7199.380617,-4671.938485,12101.086569
1208.823908,-6203.721595,-6586.667373,12101.086569
1208.824219,-1914.728887,-4059.225241,12560.621502
1208.824518,3599.690308,-2986.977064,9190.698660
1208.824817,1838.139732,-4212.403552,8960.931193
1208.825115,1072.248177,-3293.333686,10109.768526
1208.825414,2144.496354,-1914.728887,8884.342038
1208.825713,2297.674665,-842.480710,8195.039638
1208.826012,2297.674665,-536.124088,9420.466126
1208.826310,765.891555,-995.659021,9573.644437
1208.826615,3599.690308,-689.302399,11028.838392
1208.826918,3293.333686,-1608.372265,10109.768526
1208.827221,-382.945777,-3140.155375,11564.962480
1208.827524,-6816.434839,-4671.938485,13326.513057
1208.827827,-5131.473418,-2680.620442,10952.249236
1208.828130,-3982.636086,-382.945777,10339.535992
1208.828433,1684.961421,1378.604799,11488.373325
1208.828736,459.534933,3369.922842,9420.466126
1208.829017,3446.511997,8041.861327,9573.644437
1208.829316,7582.326394,9803.411904,7812.093861
1208.829615,1991.318043,7582.326394,9573.644437
1208.829914,-1761.550576,4288.992708,13479.691368
1208.830213,-5284.651729,2757.209598,11718.140791
1208.830512,-5744.186662,2450.852976,12713.799813
1208.830811,-2604.031287,153.178311,11335.195014
1208.831110,-5131.473418,-1148.837332,11335.195014
1208.831402,-2067.907198,-995.659021,12637.210657
1208.831703,612.713244,612.713244,7965.272172
1208.832004,3293.333686,1838.139732,9114.109504
1208.832305,919.069866,-1455.193954,9420.466126
1208.832606,-1914.728887,-1148.837332,10109.768526
1208.832906,919.069866,-1914.728887,9190.698660
1208.833207,3293.333686,-3140.155375,9956.590215
1208.833508,3446.511997,-8118.450483,9190.698660
1208.833794,2297.674665,-9497.055282,10186.357681
1208.834095,3140.155375,-7965.272172,10262.946837
1208.834396,4059.225241,-6433.489062,8501.396260
1208.834696,306.356622,-6893.023995,12866.978124
1208.834997,-1302.015643,-4518.760174,10952.249236
1208.835298,-382.945777,765.891555,8195.039638
1208.835599,612.713244,2910.387909,9956.590215
1208.835900,-2067.907198,2450.852976,9420.466126
1208.836206,-4595.349330,612.713244,13096.745590
1208.836505,-1608.372265,1531.783110,11335.195014
1208.836803,-536.124088,1378.604799,10033.179370
1208.837102,306.356622,-689.302399,11641.551636
1208.837400,-2221.085509,1072.248177,12713.799813
1208.837699,-382.945777,153.178311,11028.838392
1208.837997,765.891555,1684.961421,10262.946837
1208.838296,-2910.387909,1378.604799,11105.427547
1208.838600,-3216.744531,2757.209598,11182.016703
1208.838901,-4748.527641,2450.852976,10262.946837
1208.839201,-5437.830040,-995.659021,11335.195014
1208.839502,-2910.387909,-3293.333686,12484.032346
1208.839802,-2067.907198,-3293.333686,10952.249236
1208.840103,3906.046930,-3293.333686,8577.985416
1208.840403,8041.861327,-1608.372265,7735.504705
1208.840703,9956.590215,-536.124088,6816.434839
1208.840997,7735.504705,612.713244,8960.931193
1208.841300,2374.263820,-1608.372265,9956.590215
1208.841603,-0.000000,-1302.015643,8884.342038
1208.841906,-2221.085509,-3140.155375,10033.179370
1208.842209,-3829.457775,-2986.977064,10492.714303
1208.842512,-4978.295107,-4901.705952,11718.140791
1208.842815,-382.945777,-2527.442131,12330.854035
1208.843117,-229.767466,-1455.193954,11335.195014
1208.843410,1531.783110,1225.426488,10952.249236
1208.843707,1378.604799,-0.000000,9956.590215
1208.844004,1072.248177,4748.527641,10109.768526
1208.844300,2680.620442,4825.116796,11335.195014
1208.844597,-689.302399,4978.295107,9650.233593
1208.844894,-1455.193954,3829.457775,11105.427547
1208.845191,-4825.116796,1072.248177,12254.264880
1208.845488,-4595.349330,919.069866,11794.729947
1208.845797,-2221.085509,-842.480710,12101.086569
1208.846097,-3676.279464,-4901.705952,12790.388968
1208.846397,-2450.852976,-4825.116796,12330.854035
1208.846697,1531.783110,-3293.333686,8501.396260
1208.846997,2144.496354,-2986.977064,6893.023995
1208.847297,459.534933,-4365.581863,9880.001059
1208.847597,3140.155375,-4059.225241,9573.644437
1208.847897,4671.938485,-2527.442131,7275.969772
1208.848194,2374.263820,-4518.760174,9880.001059
1208.848494,306.356622,-5973.954129,10262.946837
1208.848794,765.891555,-2221.085509,11641.551636
1208.849094,3446.511997,-1914.728887,10109.768526
1208.849394,-1608.372265,-2527.442131,9726.822748
1208.849694,-3063.566220,-3140.155375,12101.086569
1208.849994,-995.659021,-689.302399,10262.946837
1208.850294,1991.318043,2604.031287,8195.039638
1208.850599,-382.945777,153.178311,10109.768526
1208.850900,-2910.387909,1531.783110,12713.799813
1208.851202,-0.000000,3829.457775,10645.892614
1208.851503,459.534933,4748.527641,12790.388968
1208.851805,-0.000000,3369.922842,11028.838392
1208.852106,-0.000000,4595.349330,12101.086569
1208.852407,2144.496354,3829.457775,9956.590215
1208.852709,1531.783110,2297.674665,8807.752882
1208.853023,-3216.744531,459.534933,13020.156435
1208.853316,-4442.171019,-1761.550576,10722.481770
1208.853610,-3982.636086,612.713244,10875.660081
1208.853904,-1148.837332,-1302.015643,11335.195014
1208.854198,-1302.015643,-2374.263820,9037.520349
1208.854491,153.178311,-1761.550576,10416.125148
1208.854785,4901.705952,919.069866,9497.055282
1208.855079,4901.705952,-689.302399,8577.985416
1208.855395,2297.674665,-2986.977064,11182.016703
1208.855693,-1455.193954,-5514.419196,11641.551636
1208.855991,-3063.566220,-4671.938485,10875.660081
1208.856289,-2221.085509,-5514.419196,10109.768526
1208.856588,-3676.279464,-4059.225241,8960.931193
1208.856886,-1302.015643,-2986.977064,8424.807105
1208.857184,-4288.992708,-5361.240885,11028.838392
1208.857482,-2374.263820,-4212.403552,12713.799813
1208.857792,1225.426488,153.178311,11335.195014
1208.858092,6280.310751,3676.279464,8654.574571
1208.858391,7275.969772,3523.101153,9650.233593
1208.858691,5361.240885,1225.426488,11641.551636
1208.858990,3293.333686,1378.604799,11641.551636
1208.859289,1684.961421,-229.767466,9573.644437
1208.859589,-382.945777,-2833.798753,11028.838392
1208.859888,-3982.636086,-1914.728887,9573.644437
1208.860185,-2374.263820,-689.302399,10262.946837
1208.860486,-5897.364973,-2067.907198,9880.001059
1208.860787,-6663.256528,-1914.728887,11641.551636
1208.861088,-5744.186662,-1914.728887,13556.280523
1208.861388,-689.302399,765.891555,9420.466126
1208.861689,4059.225241,612.713244,9880.001059
1208.861990,7888.683016,1531.783110,10645.892614
1208.862290,5973.954129,919.069866,9497.055282
1208.862595,3906.046930,-1302.015643,9573.644437
1208.862892,1531.783110,-1302.015643,8807.752882
1208.863189,-3676.279464,-842.480710,10262.946837
1208.863486,-5284.651729,-2680.620442,10262.946837
1208.863783,-10339.535992,-1608.372265,9726.822748
1208.864079,-7352.558928,-842.480710,11947.908258
1208.864376,-4825.116796,-1761.550576,12101.086569
1208.864673,-3523.101153,306.356622,13020.156435
1208.864985,2527.442131,1684.961421,13326.513057
1208.865287,7122.791461,3063.566220,10569.303459
1208.865590,11028.838392,6816.434839,8731.163727
1208.865893,11028.838392,7122.791461,8960.931193
1208.866196,3446.511997,2450.852976,7122.791461
1208.866499,-3829.457775,-76.589155,10722.481770
1208.866801,-4978.295107,-2067.907198,13096.745590
1208.867104,-6050.543284,-3752.868619,10339.535992
1208.867420,-3523.101153,-3293.333686,10109.768526
1208.867716,-2604.031287,-4825.116796,9573.644437
1208.868012,-1608.372265,-4212.403552,12024.497413
1208.868309,1991.318043,-3906.046930,13096.745590
1208.868605,1684.961421,-3752.868619,12024.497413
1208.868901,2297.674665,-3140.155375,9726.822748
1208.869197,4365.581863,-0.000000,7199.380617
1208.869493,3293.333686,-382.945777,6433.489062
1208.869808,1531.783110,-2067.907198,8118.450483
1208.870102,-4748.527641,-6433.489062,9880.001059
1208.870396,-6356.899906,-6280.310751,11335.195014
1208.870691,-6969.613150,-7658.915550,12101.086569
1208.870985,-5437.830040,-6893.023995,11182.016703
1208.871280,-4825.116796,-3599.690308,13632.869679
1208.871574,-76.589155,-689.302399,11641.551636
1208.871869,2986.977064,3982.636086,10109.768526
1208.872189,10109.768526,7735.504705,9420.466126
1208.872486,7582.326394,5744.186662,9573.644437
1208.872783,6586.667373,3676.279464,8654.574571
1208.873079,5667.597507,3063.566220,8577.985416
1208.873376,-689.302399,-1148.837332,9114.109504
1208.873673,-8118.450483,-4671.938485,13020.156435
1208.873970,-9880.001059,-2680.620442,15088.063633
1208.874266,-5744.186662,1072.248177,11411.784169
1208.874594,-1914.728887,459.534933,11411.784169
1208.874894,-1608.372265,612.713244,12254.264880
1208.875195,2144.496354,3369.922842,11794.729947
1208.875495,9114.109504,5437.830040,9497.055282
1208.875795,7735.504705,4595.349330,6663.256528
1208.876096,3906.046930,919.069866,8348.217949
1208.876396,-536.124088,-2833.798753,9880.001059
1208.876696,-4135.814397,-2067.907198,9343.876971
1208.876968,-6050.543284,-4365.581863,11182.016703
1208.877269,-6816.434839,-4212.403552,12254.264880
1208.877570,-3829.457775,-1608.372265,11411.784169
1208.877872,3140.155375,153.178311,11641.551636
1208.878173,4748.527641,1072.248177,9420.466126
1208.878474,1838.139732,-0.000000,11947.908258
1208.878776,3446.511997,1838.139732,11488.373325
1208.879077,2144.496354,2604.031287,7429.148083
1208.879391,-76.589155,1531.783110,9420.466126
1208.879692,-6663.256528,-1302.015643,10722.481770
1208.879992,-9190.698660,-842.480710,12330.854035
1208.880293,-5437.830040,-1761.550576,11488.373325
1208.880594,-3063.566220,-2833.798753,10875.660081
1208.880894,-3982.636086,-4671.938485,13479.691368
1208.881195,3906.046930,-4059.225241,10109.768526
1208.881495,7275.969772,-3752.868619,8118.450483
1208.881775,7888.683016,-2680.620442,9420.466126
1208.882077,7275.969772,-3599.690308,9114.109504
1208.882380,4671.938485,-2680.620442,10109.768526
1208.882683,4059.225241,-2221.085509,10339.535992
1208.882985,-1148.837332,-2833.798753,9650.233593
1208.883288,-3523.101153,-3446.511997,10416.125148
1208.883591,-3982.636086,-2067.907198,10339.535992
1208.883893,-5131.473418,-2067.907198,10109.768526
1208.884181,-6050.543284,-3293.333686,13249.923901
1208.884480,-5744.186662,-1302.015643,14551.939545
1208.884779,-4135.814397,-1608.372265,13249.923901
1208.885078,-229.767466,459.534933,12024.497413
1208.885377,4518.760174,3982.636086,7429.148083
1208.885676,7275.969772,6203.721595,7735.504705
1208.885975,9956.590215,7735.504705,8118.450483
1208.886275,7046.202306,10109.768526,5514.419196
1208.886558,1684.961421,6663.256528,9956.590215
1208.886860,-6356.899906,153.178311,11182.016703
1208.887162,-10645.892614,-1761.550576,15700.776877
1208.887463,-10339.535992,-3906.046930,15853.955188
1208.887765,-10492.714303,-5361.240885,11335.195014
1208.888067,-4135.814397,-4059.225241,11488.373325
1208.888369,2374.263820,-382.945777,9420.466126
1208.888671,6280.310751,2450.852976,8731.163727
1208.888975,9497.055282,3829.457775,8348.217949
1208.889275,10109.768526,3523.101153,6203.721595
1208.889575,5667.597507,2910.387909,7582.326394
1208.889875,459.534933,-1148.837332,9497.055282
1208.890174,-3523.101153,-4518.760174,11335.195014
1208.890474,-7122.791461,-9726.822748,12943.567279
1208.890774,-6969.613150,-11411.784169,13709.458834
1208.891074,-4978.295107,-6739.845684,12101.086569
1208.891368,-0.000000,-3752.868619,10645.892614
1208.891667,1225.426488,-3293.333686,10109.768526
1208.891967,-689.302399,-1455.193954,11871.319102
1208.892266,2297.674665,612.713244,10416.125148
1208.892566,2527.442131,1072.248177,6280.310751
1208.892865,2833.798753,-689.302399,8654.574571
1208.893165,3140.155375,-1608.372265,9650.233593
1208.893464,3752.868619,306.356622,10339.535992
1208.893757,5054.884263,-1761.550576,10799.070925
1208.894057,1838.139732,-2067.907198,12637.210657
1208.894357,-3523.101153,-995.659021,13173.334746
1208.894657,-5284.651729,-689.302399,12713.799813
1208.894957,-7199.380617,-842.480710,9803.411904
1208.895257,-6816.434839,-689.302399,9343.876971
1208.895557,-2374.263820,153.178311,9420.466126
1208.895858,-1914.728887,612.713244,9420.466126
1208.896167,3599.690308,3369.922842,10262.946837
1208.896464,4365.581863,1684.961421,10033.179370
1208.896762,2297.674665,1838.139732,9956.590215
1208.897059,1684.961421,-1914.728887,11947.908258
1208.897357,-1302.015643,-536.124088,8884.342038
1208.897654,-382.945777,-1761.550576,11182.016703
1208.897951,-1148.837332,-3446.511997,12943.567279
1208.898249,765.891555,-3293.333686,9803.411904
1208.898579,5667.597507,1225.426488,9573.644437
1208.898877,4212.403552,3216.744531,6510.078217
1208.899176,-536.124088,3676.279464,10722.481770
1208.899475,-4288.992708,3063.566220,11641.551636
1208.899773,-1914.728887,7429.148083,10416.125148
1208.900072,-1455.193954,5131.473418,10492.714303
1208.900371,-536.124088,1991.318043,12024.497413
1208.900669,2297.674665,1225.426488,11718.140791
1208.900974,4748.527641,1225.426488,9726.822748
1208.901272,2374.263820,-1148.837332,11028.838392
1208.901570,-995.659021,-3599.690308,10799.070925
1208.901868,-382.945777,-2833.798753,11641.551636
1208.902166,-4135.814397,-842.480710,9267.287815
1208.902465,-6663.256528,-2986.977064,10875.660081
1208.902763,-6050.543284,-3446.511997,12713.799813
1208.903061,-382.945777,-0.000000,9267.287815
1208.903374,4748.527641,-842.480710,10109.768526
1208.903673,3752.868619,-3599.690308,8731.163727
1208.903971,4518.760174,-4059.225241,9803.411904
1208.904270,2144.496354,-6127.132440,10569.303459
1208.904568,-1761.550576,-6586.667373,10569.303459
1208.904867,-3216.744531,-5973.954129,11794.729947
1208.905165,-3982.636086,-3140.155375,10875.660081
1208.905463,-3676.279464,-1455.193954,8118.450483
1208.905775,-536.124088,153.178311,8348.217949
1208.906074,-1455.193954,459.534933,11641.551636
1208.906373,3140.155375,765.891555,10875.660081
1208.906671,4748.527641,1684.961421,10339.535992
1208.906970,6739.845684,919.069866,10416.125148
1208.907269,2144.496354,-229.767466,11182.016703
1208.907568,-382.945777,-2221.085509,12330.854035
1208.907866,-2450.852976,1684.961421,10416.125148
1208.908117,-382.945777,1991.318043,10109.768526
1208.908422,-1608.372265,2604.031287,9497.055282
1208.908727,-1608.372265,3982.636086,10569.303459
1208.909032,-3523.101153,2757.209598,13249.923901
1208.909337,-1608.372265,3523.101153,9803.411904
1208.909642,-4748.527641,1991.318043,11794.729947
1208.909946,-4442.171019,-2067.907198,13173.334746
1208.910251,-3676.279464,-689.302399,10569.303459
1208.910548,306.356622,-689.302399,8501.396260
1208.910848,4059.225241,-1608.372265,10109.768526
1208.911147,4365.581863,-0.000000,9956.590215
1208.911446,5361.240885,1684.961421,10109.768526
1208.911745,2527.442131,-229.767466,8731.163727
1208.912045,-2604.031287,-536.124088,9880.001059
1208.912344,-4595.349330,-2221.085509,12407.443191
1208.912643,-5284.651729,-1302.015643,10033.179370
1208.912948,-4748.527641,-3140.155375,11947.908258
1208.913248,-1302.015643,-2221.085509,12254.264880
1208.913548,4671.938485,-229.767466,9497.055282
1208.913848,7429.148083,-842.480710,10799.070925
1208.914148,7046.202306,2450.852976,8807.752882
1208.914448,5054.884263,1684.961421,9497.055282
1208.914748,3446.511997,1991.318043,9726.822748
1208.915048,-76.589155,1838.139732,7888.683016
1208.915349,-3982.636086,-689.302399,11488.373325
1208.915653,-6050.543284,-4518.760174,11718.140791
1208.915956,-7122.791461,-7352.558928,13862.637145
1208.916260,-3676.279464,-9037.520349,13173.334746
1208.916564,-2374.263820,-6433.489062,10033.179370
1208.916867,2527.442131,-4365.581863,9726.822748
1208.917171,3446.511997,-2374.263820,9114.109504
1208.917474,3752.868619,-0.000000,8501.396260
1208.917791,2680.620442,1072.248177,9267.287815
1208.918083,-76.589155,-76.589155,9880.001059
1208.918375,-1914.728887,306.356622,11258.605858
1208.918668,-4442.171019,-76.589155,12101.086569
1208.918960,-1914.728887,459.534933,9343.876971
1208.919253,-2067.907198,-2374.263820,11182.016703
1208.919545,-2067.907198,-4825.116796,12943.567279
1208.919838,-1455.193954,-1455.193954,12790.388968
1208.920152,-1608.372265,765.891555,12254.264880
1208.920451,3599.690308,4595.349330,8118.450483
1208.920750,1378.604799,2450.852976,9497.055282
1208.921048,3752.868619,4748.527641,9650.233593
1208.921347,1531.783110,5131.473418,8884.342038
1208.921646,2374.263820,3369.922842,9267.287815
1208.921944,-1455.193954,-2067.907198,13479.691368
1208.922243,-2374.263820,-842.480710,14322.172078
1208.922540,612.713244,-229.767466,10875.660081
1208.922841,2833.798753,1838.139732,9343.876971
1208.923142,4059.225241,1225.426488,8271.628794
1208.923442,3140.155375,2450.852976,10722.481770
1208.923743,-536.124088,2297.674665,9037.520349
1208.924044,-1302.015643,-1148.837332,9573.644437
1208.924345,-3982.636086,-5514.419196,12101.086569
1208.924646,-4748.527641,-4518.760174,10875.660081
1208.924950,-4978.295107,-5208.062574,10799.070925
1208.925247,-2450.852976,-3752.868619,10875.660081
1208.925544,612.713244,-2680.620442,10109.768526
1208.925841,2527.442131,-2680.620442,11105.427547
1208.926138,3140.155375,-842.480710,10186.357681
1208.926435,5208.062574,1531.783110,9267.287815
1208.926732,2144.496354,459.534933,8960.931193
1208.927029,-76.589155,919.069866,8195.039638
1208.927334,-536.124088,-1302.015643,8960.931193
1208.927633,-6510.078217,-3752.868619,11335.195014
1208.927932,-6816.434839,-4825.116796,11488.373325
1208.928231,-4748.527641,-4059.225241,11794.729947
1208.928530,-1455.193954,-3140.155375,11028.838392
1208.928829,-0.000000,-3446.511997,11641.551636
1208.929127,4212.403552,-1761.550576,11182.016703
1208.929426,5973.954129,459.534933,7735.504705
1208.929741,4901.705952,-1914.728887,9573.644437
1208.930040,459.534933,-2986.977064,10569.303459
1208.930339,1072.248177,-2221.085509,10109.768526
1208.930638,919.069866,-1914.728887,10262.946837
1208.930937,-76.589155,-2680.620442,8271.628794
1208.931237,-382.945777,-2221.085509,11182.016703
1208.931536,-1608.372265,1072.248177,11718.140791
1208.931835,-382.945777,2910.387909,10722.481770
1208.932150,-995.659021,1991.318043,11871.319102
1208.932448,-1761.550576,919.069866,13096.745590
1208.932745,919.069866,1531.783110,11718.140791
1208.933043,3446.511997,4288.992708,9650.233593
1208.933341,5361.240885,4135.814397,7582.326394
1208.933639,2374.263820,2297.674665,9956.590215
1208.933937,-1148.837332,2297.674665,12101.086569
1208.934235,-2450.852976,3523.101153,9420.466126
1208.934532,-7352.558928,1684.961421,10645.892614
1208.934831,-10645.892614,-229.767466,12407.443191
1208.935130,-11871.319102,-1608.372265,14628.528700
1208.935429,-6356.899906,-842.480710,13020.156435
1208.935728,-1148.837332,-1148.837332,11028.838392
1208.936028,5514.419196,-229.767466,8960.931193
1208.936327,7582.326394,-995.659021,9114.109504
1208.936626,9420.466126,-689.302399,7275.969772
1208.936937,8654.574571,-1455.193954,7429.148083
1208.937236,1378.604799,-4518.760174,8501.396260
1208.937535,459.534933,-5361.240885,9114.109504
1208.937833,-2067.907198,-6127.132440,10952.249236
1208.938132,-1148.837332,-3599.690308,11028.838392
1208.938431,-229.767466,-3293.333686,10186.357681
1208.938729,1378.604799,-4671.938485,11488.373325
1208.939028,459.534933,-2833.798753,13173.334746
1208.939333,3140.155375,-689.302399,11182.016703
1208.939636,4518.760174,4288.992708,7812.093861
1208.939939,1991.318043,4442.171019,7812.093861
1208.940242,-689.302399,1991.318043,10339.535992
1208.940545,-5437.830040,1531.783110,10569.303459
1208.940848,-5131.473418,765.891555,9956.590215
1208.941151,-6663.256528,-2986.977064,12407.443191
1208.941454,-9190.698660,-5208.062574,14475.350389
1208.941735,-4442.171019,-5054.884263,14015.815456
1208.942035,1531.783110,-1455.193954,11488.373325
1208.942334,5667.597507,1072.248177,8960.931193
1208.942634,8195.039638,612.713244,8348.217949
1208.942934,2297.674665,612.713244,9956.590215
1208.943234,2527.442131,2297.674665,10262.946837
1208.943533,3906.046930,1531.783110,8577.985416
1208.943833,1991.318043,459.534933,6356.899906
1208.944125,-995.659021,-1914.728887,8577.985416
1208.944426,-6050.543284,-5361.240885,12484.032346
1208.944727,-5591.008351,-3906.046930,13709.458834
1208.945028,-2067.907198,-3293.333686,13096.745590
1208.945329,306.356622,-689.302399,11718.140791
1208.945630,2144.496354,2450.852976,11871.319102
1208.945930,4901.705952,5591.008351,8501.396260
1208.946231,2833.798753,8195.039638,7888.683016
1208.946517,-536.124088,5897.364973,10416.125148
1208.946818,-3216.744531,1838.139732,11182.016703
1208.947119,-5744.186662,-76.589155,11718.140791
1208.947419,-3369.922842,-2221.085509,11488.373325
1208.947720,-6663.256528,-3906.046930,12560.621502
1208.948021,-2374.263820,-3293.333686,11641.551636
1208.948322,3752.868619,-2833.798753,11335.195014
1208.948622,7046.202306,765.891555,10262.946837
1208.948929,11028.838392,1225.426488,8195.039638
1208.949229,9267.287815,459.534933,7888.683016
1208.949528,6586.667373,-0.000000,8731.163727
1208.949827,5054.884263,-689.302399,7275.969772
1208.950127,-2450.852976,-2986.977064,7735.504705
1208.950426,-9726.822748,-7505.737239,11564.962480
1208.950725,-13632.869679,-8731.163727,14934.885322
1208.951025,-14245.582923,-7505.737239,13556.280523
1208.951329,-7965.272172,-5361.240885,13096.745590
1208.951628,-3829.457775,-4518.760174,12713.799813
1208.951927,2986.977064,153.178311,9956.590215
1208.952226,10722.481770,2604.031287,6969.613150
1208.952525,8807.752882,3369.922842,7582.326394
1208.952824,6127.132440,306.356622,9420.466126
1208.953123,2986.977064,-689.302399,10492.714303
1208.953422,-1455.193954,-842.480710,8884.342038
1208.953716,-3982.636086,-3906.046930,10109.768526
1208.954019,-7505.737239,-4825.116796,11488.373325
1208.954321,-4442.171019,-1148.837332,12713.799813
1208.954624,1531.783110,-1148.837332,12713.799813
1208.954927,2986.977064,919.069866,11564.962480
1208.955230,5973.954129,4288.992708,9880.001059
1208.955533,5973.954129,3216.744531,9573.644437
1208.955836,3599.690308,5284.651729,10569.303459
1208.956128,2527.442131,5744.186662,8041.861327
1208.956429,-2757.209598,3523.101153,8960.931193
1208.956729,-5897.364973,2757.209598,10645.892614
1208.957029,-8118.450483,-536.124088,12790.388968
1208.957329,-5897.364973,-1761.550576,12254.264880
1208.957629,-3829.457775,-1914.728887,11182.016703
1208.957929,1378.604799,-2527.442131,13173.334746
1208.958229,2297.674665,-1302.015643,11335.195014
1208.958515,6739.845684,-536.124088,9803.411904
1208.958815,5054.884263,919.069866,8195.039638
1208.959115,7275.969772,3829.457775,8654.574571
1208.959415,3293.333686,2450.852976,9114.109504
1208.959715,-1455.193954,1225.426488,8960.931193
1208.960015,-5591.008351,-1608.372265,10569.303459
1208.960315,-8118.450483,-3752.868619,12407.443191
1208.960615,-9190.698660,-4518.760174,12790.388968
1208.960912,-5131.473418,-5973.954129,12254.264880
1208.961212,-3523.101153,-6127.132440,12177.675724
1208.961512,-229.767466,-5820.775818,12637.210657
1208.961812,4365.581863,-3906.046930,12254.264880
1208.962112,6893.023995,-229.767466,8501.396260
1208.962412,9267.287815,1991.318043,7352.558928
1208.962712,5973.954129,-842.480710,7888.683016
1208.963012,4671.938485,-536.124088,6127.132440
1208.963317,765.891555,-229.767466,8884.342038
1208.963618,-6050.543284,-4825.116796,11488.373325
1208.963918,-9190.698660,-7658.915550,13403.102212
1208.964219,-6510.078217,-6433.489062,15241.241944
1208.964520,-3523.101153,-2680.620442,12560.621502
1208.964820,1991.318043,306.356622,11794.729947
1208.965121,5361.240885,2604.031287,11488.373325
1208.965422,9956.590215,9267.287815,7582.326394
1208.965736,11641.551636,11182.016703,8041.861327
1208.966033,2986.977064,7888.683016,8807.752882
1208.966330,-4442.171019,6203.721595,9267.287815
1208.966627,-10492.714303,1072.248177,11488.373325
1208.966924,-16619.846743,-4518.760174,12790.388968
1208.967221,-13479.691368,-5208.062574,15394.420255
1208.967518,-6816.434839,-4365.581863,14015.815456
1208.967815,765.891555,-3293.333686,9497.055282
1208.968131,9497.055282,-1761.550576,10109.768526
1208.968429,12637.210657,919.069866,7812.093861
1208.968728,11794.729947,4135.814397,6586.667373
1208.969026,7429.148083,3063.566220,7505.737239
1208.969324,-689.302399,2450.852976,8960.931193
1208.969622,-3829.457775,1072.248177,10569.303459
1208.969920,-8118.450483,-1761.550576,11028.838392
1208.970219,-10492.714303,-2527.442131,11794.729947
1208.970529,-6816.434839,-4212.403552,13479.691368
1208.970825,-4978.295107,-4518.760174,13403.102212
1208.971121,1072.248177,-2067.907198,12101.086569
1208.971417,5514.419196,306.356622,11028.838392
1208.971713,7046.202306,1991.318043,9343.876971
1208.972009,9114.109504,4748.527641,6969.613150
1208.972305,7735.504705,3216.744531,7735.504705
1208.972601,1225.426488,-76.589155,9497.055282
1208.972898,-3523.101153,-3293.333686,11105.427547
1208.973198,-4978.295107,-5208.062574,10645.892614
1208.973498,-4135.814397,-5514.419196,11028.838392
1208.973798,-4135.814397,-9037.520349,13249.923901
1208.974098,-5131.473418,-10033.179370,13632.869679
1208.974398,-1148.837332,-5054.884263,11488.373325
1208.974698,5208.062574,-2067.907198,8807.752882
1208.974998,2297.674665,-1761.550576,9573.644437
1208.975303,153.178311,-536.124088,10186.357681
1208.975606,3293.333686,2297.674665,9267.287815
1208.975910,-382.945777,3829.457775,9650.233593
1208.976213,-3829.457775,-1302.015643,11718.140791
1208.976516,-7658.915550,-2221.085509,11794.729947
1208.976820,-3523.101153,306.356622,11641.551636
1208.977123,-842.480710,-2374.263820,12790.388968
1208.977426,-2604.031287,-3140.155375,10722.481770
1208.977744,612.713244,-1455.193954,11411.784169
1208.978041,4671.938485,-382.945777,9956.590215
1208.978337,6127.132440,1378.604799,9726.822748
1208.978633,7582.326394,4748.527641,10186.357681
1208.978929,4059.225241,5131.473418,8807.752882
1208.979225,2297.674665,6356.899906,8195.039638
1208.979522,459.534933,3676.279464,9726.822748
1208.979818,-4595.349330,-382.945777,10339.535992
1208.980134,-6510.078217,-3140.155375,12330.854035
1208.980430,-3523.101153,-4518.760174,11718.140791
1208.980726,-5591.008351,-6893.023995,11794.729947
1208.981022,-995.659021,-6127.132440,12637.210657
1208.981318,1225.426488,-3599.690308,10109.768526
1208.981614,6127.132440,1531.783110,7965.272172
1208.981910,8195.039638,2910.387909,7582.326394
1208.982206,3140.155375,3523.101153,7429.148083
1208.982521,919.069866,2910.387909,9573.644437
1208.982820,-1608.372265,1684.961421,9343.876971
1208.983118,-4978.295107,-1148.837332,9803.411904
1208.983417,-6663.256528,-5208.062574,14398.761234
1208.983715,-8884.342038,-8118.450483,13403.102212
1208.984014,-5437.830040,-6433.489062,13556.280523
1208.984313,612.713244,-3140.155375,11641.551636
1208.984611,919.069866,-3599.690308,9573.644437
1208.984909,5054.884263,-536.124088,10109.768526
1208.985206,4748.527641,1378.604799,8271.628794
1208.985503,4901.705952,2604.031287,7735.504705
1208.985801,2527.442131,153.178311,8960.931193
1208.986098,-3063.566220,-2986.977064,11028.838392
1208.986396,-4825.116796,-5973.954129,12560.621502
1208.986693,-1608.372265,-6127.132440,12101.086569
1208.986991,-3369.922842,-6280.310751,12560.621502
1208.987318,-689.302399,-5361.240885,11028.838392
1208.987615,-1148.837332,-1914.728887,12101.086569
1208.987912,4212.403552,4442.171019,9267.287815
1208.988209,8501.396260,6050.543284,9037.520349
1208.988506,2297.674665,4748.527641,9190.698660
1208.988803,1378.604799,5744.186662,9650.233593
1208.989100,-76.589155,5437.830040,10875.660081
1208.989397,-4288.992708,2297.674665,10186.357681
1208.989702,-4825.116796,-0.000000,12484.032346
1208.990002,-6969.613150,-1608.372265,12560.621502
1208.990302,-3829.457775,-1455.193954,10952.249236
1208.990602,-3369.922842,-2986.977064,13249.923901
1208.990902,-2374.263820,-689.302399,10339.535992
1208.991201,2374.263820,2910.387909,9803.411904
1208.991501,6586.667373,3982.636086,7812.093861
1208.991801,4059.225241,919.069866,7888.683016
1208.992115,2680.620442,765.891555,9956.590215
1208.992416,-842.480710,-842.480710,9114.109504
1208.992716,-1148.837332,-536.124088,10416.125148
1208.993017,-1302.015643,-3906.046930,12637.210657
1208.993318,-6050.543284,-4518.760174,11718.140791
1208.993618,-2221.085509,-3906.046930,11794.729947
1208.993919,612.713244,-995.659021,10952.249236
1208.994219,3446.511997,-229.767466,8577.985416
1208.994499,5973.954129,1991.318043,9114.109504
1208.994801,5208.062574,3829.457775,8577.985416
1208.995104,765.891555,459.534933,9803.411904
1208.995407,-1148.837332,-76.589155,10875.660081
1208.995709,-6510.078217,-2221.085509,11411.784169
1208.996012,-5284.651729,-3140.155375,12560.621502
1208.996315,-1302.015643,-842.480710,10569.303459
1208.996617,-1914.728887,-1914.728887,8654.574571
1208.996904,306.356622,-4212.403552,9956.590215
1208.997204,-842.480710,-5973.954129,11488.373325
1208.997503,-1302.015643,-4825.116796,10416.125148
1208.997802,2374.263820,-2680.620442,9267.287815
1208.998101,612.713244,-1608.372265,9956.590215
1208.998400,-689.302399,-995.659021,11641.551636
1208.998699,-1302.015643,-842.480710,12943.567279
1208.998998,-842.480710,2910.387909,8960.931193
1208.999309,2144.496354,1684.961421,9267.287815
1208.999605,-0.000000,-1914.728887,11028.838392
1208.999900,-995.659021,-689.302399,11335.195014
1209.000196,2986.977064,-76.589155,9803.411904
1209.000491,153.178311,-536.124088,9650.233593
1209.000787,1225.426488,-76.589155,11335.195014
1209.001082,612.713244,306.356622,10875.660081
1209.001377,-1761.550576,2757.209598,9650.233593
1209.001682,1072.248177,5591.008351,8960.931193
1209.001982,-4442.171019,2297.674665,11411.784169
1209.002283,-5131.473418,1531.783110,12713.799813
1209.002584,-229.767466,612.713244,10416.125148
1209.002884,-842.480710,-2221.085509,10799.070925
1209.003185,306.356622,-2986.977064,10109.768526
1209.003485,2297.674665,-4825.116796,11488.373325
1209.003786,2144.496354,-1302.015643,7812.093861
1209.004080,5820.775818,-382.945777,8195.039638
1209.004380,-536.124088,-995.659021,10799.070925
1209.004679,-1148.837332,1378.604799,10109.768526
1209.004979,-229.767466,1991.318043,10645.892614
1209.005278,-1761.550576,153.178311,10109.768526
1209.005578,765.891555,612.713244,10799.070925
1209.005877,4059.225241,-1608.372265,10033.179370
1209.006177,1531.783110,-1914.728887,9726.822748
1209.006502,-1302.015643,-4365.581863,11718.140791
1209.006801,-3063.566220,-3599.690308,10033.179370
1209.007101,-5131.473418,-2527.442131,11028.838392
1209.007400,-5131.473418,-2374.263820,12407.443191
1209.007700,-6050.543284,-2680.620442,10875.660081
1209.007999,-2910.387909,1225.426488,9420.466126
1209.008299,4365.581863,459.534933,8348.217949
1209.008598,2833.798753,-2067.907198,9573.644437
1209.008884,2986.977064,-3599.690308,12101.086569
1209.009185,3446.511997,-3906.046930,10186.357681
1209.009486,-536.124088,-4671.938485,10875.660081
1209.009786,612.713244,-5514.419196,12254.264880
1209.010087,-1455.193954,-4671.938485,9114.109504
1209.010388,-76.589155,-229.767466,9956.590215
1209.010689,5667.597507,919.069866,9190.698660
1209.010990,3752.868619,2757.209598,7199.380617
1209.011319,4212.403552,2910.387909,10186.357681
1209.011615,-1148.837332,-842.480710,12790.388968
1209.011910,-3216.744531,1225.426488,12713.799813
1209.012206,-76.589155,2604.031287,11641.551636
1209.012501,-3982.636086,2297.674665,12101.086569
1209.012796,-2604.031287,2757.209598,12713.799813
1209.013092,-2221.085509,4135.814397,11794.729947
1209.013387,2374.263820,4288.992708,8807.752882
1209.013692,1531.783110,3523.101153,9114.109504
1209.013990,919.069866,-842.480710,9650.233593
1209.014288,-2067.907198,-1302.015643,11947.908258
1209.014586,-2221.085509,-3599.690308,10645.892614
1209.014884,-2910.387909,-3293.333686,10416.125148
1209.015182,-1914.728887,-4059.225241,11564.962480
1209.015480,-76.589155,-3599.690308,11718.140791
1209.015778,1225.426488,-3140.155375,9956.590215
1209.016092,5514.419196,-0.000000,9114.109504
1209.016390,4901.705952,153.178311,8731.163727
1209.016689,2297.674665,1072.248177,7429.148083
1209.016987,-995.659021,1838.139732,10339.535992
1209.017286,-3982.636086,2910.387909,10262.946837
1209.017584,-4978.295107,2297.674665,11794.729947
1209.017883,-6356.899906,-1761.550576,11488.373325
1209.018181,-4748.527641,-1761.550576,11258.605858
1209.018493,-1455.193954,-3752.868619,12713.799813
1209.018791,3140.155375,-2067.907198,11794.729947
1209.019088,4901.705952,-995.659021,9650.233593
1209.019386,7735.504705,-382.945777,7429.148083
1209.019683,2680.620442,-1914.728887,8884.342038
1209.019981,765.891555,-2833.798753,9650.233593
1209.020279,-995.659021,-4671.938485,9114.109504
1209.020576,-5591.008351,-6280.310751,9650.233593
1209.020886,-4135.814397,-7199.380617,12177.675724
1209.021185,-5897.364973,-6586.667373,13173.334746
1209.021484,2680.620442,306.356622,11335.195014
1209.021783,9267.287815,3216.744531,9573.644437
1209.022082,4518.760174,1991.318043,10186.357681
1209.022381,7122.791461,5284.651729,10186.357681
1209.022680,1531.783110,4135.814397,10569.303459
1209.022979,-2450.852976,3829.457775,8960.931193
1209.023265,-5437.830040,2604.031287,10875.660081
1209.023566,-10645.892614,765.891555,12560.621502
1209.023868,-7505.737239,612.713244,11488.373325
1209.024170,-7352.558928,-1914.728887,11028.838392
1209.024471,-5284.651729,-2680.620442,11258.605858
1209.024773,-3369.922842,-4059.225241,12407.443191
1209.025074,3293.333686,-2374.263820,12024.497413
1209.025376,5361.240885,-76.589155,10262.946837
1209.025681,9956.590215,765.891555,8041.861327
1209.025980,7582.326394,306.356622,8195.039638
1209.026279,7046.202306,1378.604799,8577.985416
1209.026578,5361.240885,1838.139732,8960.931193
1209.026878,-76.589155,2604.031287,9037.520349
1209.027177,-4442.171019,919.069866,9267.287815
1209.027476,-7199.380617,-382.945777,12943.567279
1209.027775,-8424.807105,-2221.085509,12101.086569
1209.028093,-5284.651729,-1761.550576,13249.923901
1209.028390,-3216.744531,-1455.193954,11641.551636
1209.028687,-0.000000,-689.302399,12254.264880
1209.028984,4365.581863,765.891555,10569.303459
1209.029281,6893.023995,1838.139732,5744.186662
1209.029579,6893.023995,919.069866,8195.039638
1209.029876,919.069866,-4365.581863,8654.574571
1209.030173,-3676.279464,-4212.403552,10799.070925
1209.030489,-3216.744531,-4671.938485,9803.411904
1209.030786,-6510.078217,-6433.489062,10186.357681
1209.031082,-7122.791461,-9726.822748,13939.226301
1209.031379,-1455.193954,-6893.023995,12713.799813
1209.031676,2374.263820,-3599.690308,11488.373325
1209.031973,7122.791461,-689.302399,11028.838392
1209.032270,4518.760174,-0.000000,10339.535992
1209.032567,4518.760174,3982.636086,9190.698660
1209.032882,6586.667373,5897.364973,9114.109504
1209.033177,-76.589155,2910.387909,8807.752882
1209.033473,-4825.116796,2757.209598,9497.055282
1209.033769,-9880.001059,-76.589155,12866.978124
1209.034065,-11105.427547,-2221.085509,14015.815456
1209.034361,-5131.473418,-1608.372265,12943.567279
1209.034657,-2374.263820,-1455.193954,13249.923901
1209.034953,2297.674665,-76.589155,10722.481770
1209.035262,7735.504705,2910.387909,9803.411904
1209.035561,10262.946837,5437.830040,7429.148083
1209.035860,8654.574571,5897.364973,6280.310751
1209.036160,5361.240885,2910.387909,7888.683016
1209.036459,-2221.085509,-3293.333686,10262.946837
1209.036758,-5744.186662,-4212.403552,12024.497413
1209.037057,-6356.899906,-5514.419196,10799.070925
1209.037356,-5437.830040,-5208.062574,9497.055282
1209.037660,-4442.171019,-6739.845684,13020.156435
1209.037962,-2604.031287,-5514.419196,12790.388968
1209.038264,2986.977064,1991.318043,10262.946837
1209.038566,6739.845684,4978.295107,9114.109504
1209.038867,6586.667373,4288.992708,6739.845684
1209.039169,5054.884263,4748.527641,8348.217949
1209.039471,5208.062574,4135.814397,7582.326394
1209.039773,-1455.193954,-842.480710,7965.272172
1209.040084,-7658.915550,-5208.062574,13096.745590
1209.040383,-11718.140791,-8424.807105,12943.567279
1209.040683,-7352.558928,-5973.954129,12713.799813
1209.040982,-4748.527641,-8424.807105,12560.621502
1209.041282,-3216.744531,-7658.915550,13786.047990
1209.041581,2986.977064,-4518.760174,11028.838392
1209.041881,9803.411904,919.069866,8884.342038
1209.042180,7582.326394,2757.209598,9803.411904
1209.042496,8807.752882,3829.457775,7735.504705
1209.042791,5667.597507,2604.031287,8884.342038
1209.043087,2297.674665,5744.186662,9037.520349
1209.043382,-1914.728887,1531.783110,10569.303459
1209.043677,-9726.822748,-842.480710,13862.637145
1209.043972,-9726.822748,-2221.085509,14398.761234
1209.044267,-6510.078217,-2986.977064,14858.296167
1209.044563,-2910.387909,-995.659021,10186.357681
1209.044877,2527.442131,765.891555,10875.660081
1209.045176,4671.938485,612.713244,9956.590215
1209.045474,6127.132440,3676.279464,8884.342038
1209.045773,7888.683016,4135.814397,7965.272172
1209.046071,5054.884263,4825.116796,6127.132440
1209.046370,2144.496354,3216.744531,8807.752882
1209.046668,-4135.814397,-2680.620442,11028.838392
1209.046967,-7505.737239,-4671.938485,10952.249236
1209.047312,-8731.163727,-6893.023995,13786.047990
1209.047603,-7352.558928,-8884.342038,12101.086569
1209.047894,-3982.636086,-6893.023995,12407.443191
1209.048186,4671.938485,-2374.263820,11641.551636
1209.048477,9803.411904,3676.279464,4595.349330
1209.048768,10416.125148,7888.683016,7888.683016
1209.049059,4748.527641,6203.721595,9114.109504
1209.049350,-382.945777,6510.078217,9573.644437
1209.049661,-2604.031287,6510.078217,10492.714303
1209.049960,-7505.737239,1378.604799,10033.179370
1209.050259,-11718.140791,-4212.403552,13939.226301
1209.050557,-7352.558928,-5054.884263,14015.815456
1209.050856,1378.604799,-3599.690308,11028.838392
1209.051155,5820.775818,-1608.372265,10416.125148
1209.051454,5820.775818,-3906.046930,11641.551636
1209.051752,3293.333686,-4365.581863,11335.195014
1209.052057,6739.845684,1072.248177,9267.287815
1209.052361,4518.760174,2144.496354,7122.791461
1209.052665,-1608.372265,1531.783110,8501.396260
1209.052968,-4595.349330,-1302.015643,10339.535992
1209.053272,-5284.651729,-3140.155375,11028.838392
1209.053576,-2604.031287,-3599.690308,11641.551636
1209.053880,-1914.728887,-5820.775818,11488.373325
1209.054184,-3523.101153,-7352.558928,12407.443191
1209.054464,-2221.085509,-5667.597507,14092.404612
1209.054767,765.891555,-1608.372265,12407.443191
1209.055069,4212.403552,4595.349330,8807.752882
1209.055371,7275.969772,8654.574571,5514.419196
1209.055673,2297.674665,6663.256528,6510.078217
1209.055975,-76.589155,5591.008351,10875.660081
1209.056278,-3063.566220,1072.248177,11258.605858
1209.056580,-4135.814397,-1914.728887,9114.109504
1209.056859,-5437.830040,-7046.202306,11794.729947
1209.057158,-11411.784169,-13709.458834,16543.257588
1209.057458,-4978.295107,-5973.954129,14475.350389
1209.057757,4748.527641,1072.248177,7965.272172
1209.058057,8348.217949,3216.744531,5361.240885
1209.058357,7429.148083,4978.295107,11488.373325
1209.058656,7888.683016,7582.326394,8731.163727
1209.058956,5820.775818,9114.109504,7199.380617
1209.059241,306.356622,7582.326394,8041.861327
1209.059541,-6203.721595,-229.767466,10262.946837
1209.059841,-9573.644437,-1148.837332,13939.226301
1209.060141,-6816.434839,-2986.977064,12943.567279
1209.060441,-6816.434839,-2986.977064,11794.729947
1209.060741,-2450.852976,-4365.581863,12943.567279
1209.061042,-229.767466,-3599.690308,12943.567279
1209.061342,9267.287815,1991.318043,9114.109504
1209.061653,11488.373325,3369.922842,6280.310751
1209.061951,10262.946837,1225.426488,6280.310751
1209.062249,4901.705952,919.069866,6050.543284
1209.062546,-2067.907198,-3752.868619,10416.125148
1209.062844,-7965.272172,-8118.450483,11641.551636
1209.063142,-9726.822748,-7658.915550,14551.939545
1209.063440,-10186.357681,-11411.784169,14781.707011
1209.063738,-8271.628794,-8884.342038,14475.350389
1209.064042,-382.945777,-2221.085509,11258.605858
1209.064342,1991.318043,459.534933,9114.109504
1209.064642,3752.868619,2757.209598,9420.466126
1209.064941,5973.954129,2910.387909,9803.411904
1209.065241,5054.884263,5284.651729,8654.574571
1209.065541,5361.240885,4978.295107,6356.899906
1209.065841,-2221.085509,-536.124088,10645.892614
1209.066140,-2450.852976,-2986.977064,11641.551636
1209.066434,-1148.837332,-3752.868619,12330.854035
1209.066737,-2910.387909,-3906.046930,12790.388968
1209.067040,306.356622,-2374.263820,11641.551636
1209.067343,1225.426488,-3293.333686,10875.660081
1209.067646,2527.442131,-382.945777,7735.504705
1209.067949,3906.046930,1378.604799,10109.768526
1209.068252,459.534933,1838.139732,11028.838392
1209.068555,-1608.372265,3063.566220,10952.249236
1209.068847,1072.248177,4595.349330,9114.109504
1209.069147,-76.589155,3369.922842,8884.342038
1209.069447,-995.659021,2604.031287,11794.729947
1209.069747,-2450.852976,-2221.085509,12560.621502
1209.070048,-3676.279464,-689.302399,11794.729947
1209.070348,919.069866,-536.124088,12637.210657
1209.070648,612.713244,-689.302399,10799.070925
1209.070948,1991.318043,1225.426488,9956.590215
1209.071234,5361.240885,3063.566220,9037.520349
1209.071534,2680.620442,1378.604799,8424.807105
1209.071834,-1455.193954,153.178311,9650.233593
1209.072134,-4825.116796,-2680.620442,11335.195014
1209.072434,-3982.636086,-3293.333686,11335.195014
1209.072734,-2604.031287,-5820.775818,10569.303459
1209.073034,-3063.566220,-8424.807105,11258.605858
1209.073334,-3216.744531,-8118.450483,12790.388968
1209.073631,2297.674665,-5973.954129,10109.768526
1209.073931,6893.023995,-1455.193954,8654.574571
1209.074231,6739.845684,1991.318043,7812.093861
1209.074531,4671.938485,3216.744531,8960.931193
1209.074831,-536.124088,4442.171019,11488.373325
1209.075131,-3063.566220,5131.473418,9956.590215
1209.075431,-2910.387909,3982.636086,9420.466126
1209.075731,-8884.342038,1072.248177,10262.946837
1209.076036,-5897.364973,-2986.977064,12637.210657
1209.076338,-2757.209598,-4901.705952,12024.497413
1209.076640,1531.783110,-5514.419196,10262.946837
1209.076942,2527.442131,-5973.954129,11258.605858
1209.077244,-1455.193954,-5514.419196,10875.660081
1209.077547,4059.225241,-2221.085509,9573.644437
1209.077849,7046.202306,1838.139732,6510.078217
1209.078151,3906.046930,1531.783110,7505.737239
1209.078465,-1148.837332,-229.767466,12713.799813
1209.078759,-4135.814397,459.534933,12407.443191
1209.079052,-1302.015643,3523.101153,11488.373325
1209.079346,-2757.209598,-229.767466,9956.590215
1209.079640,-6816.434839,-3599.690308,12484.032346
1209.079933,-3523.101153,-1148.837332,13249.923901
1209.080227,1378.604799,3369.922842,10109.768526
1209.080521,2527.442131,6050.543284,8501.396260
1209.080837,-76.589155,3676.279464,10416.125148
1209.081135,459.534933,2297.674665,10722.481770
1209.081433,2297.674665,3063.566220,10033.179370
1209.081732,2527.442131,3369.922842,8577.985416
1209.082030,-2374.263820,-995.659021,9726.822748
1209.082328,-3369.922842,-3446.511997,12101.086569
1209.082626,-1761.550576,-6280.310751,14015.815456
1209.082924,765.891555,-3599.690308,11871.319102
1209.083235,2297.674665,-2221.085509,10569.303459
1209.083533,3446.511997,612.713244,8807.752882
1209.083832,3752.868619,3676.279464,9114.109504
1209.084130,4059.225241,4748.527641,8424.807105
1209.084429,-842.480710,3676.279464,9420.466126
1209.084727,-842.480710,3523.101153,9956.590215
1209.085026,-1302.015643,612.713244,10416.125148
1209.085324,-2450.852976,-382.945777,10569.303459
1209.085622,306.356622,-2680.620442,9267.287815
1209.085922,-1761.550576,-8271.628794,12713.799813
1209.086222,-2757.209598,-9190.698660,13173.334746
1209.086522,459.534933,-5208.062574,10416.125148
1209.086822,1531.783110,-2833.798753,7888.683016
1209.087122,-2221.085509,-2374.263820,9803.411904
1209.087422,-2067.907198,-2680.620442,10186.357681
1209.087722,-6510.078217,-3293.333686,11335.195014
1209.088026,-842.480710,-2221.085509,9803.411904
1209.088329,-76.589155,-3752.868619,9497.055282
1209.088633,612.713244,-4671.938485,12024.497413
1209.088936,1991.318043,-5208.062574,11641.551636
1209.089240,5208.062574,-4212.403552,11564.962480
1209.089543,3293.333686,-842.480710,10262.946837
1209.089846,4518.760174,765.891555,10722.481770
1209.090150,153.178311,4135.814397,11258.605858
1209.090468,919.069866,5131.473418,9956.590215
1209.090764,765.891555,5591.008351,8348.217949
1209.091060,-995.659021,6510.078217,10722.481770
1209.091356,-1914.728887,1072.248177,12254.264880
1209.091652,-1455.193954,-229.767466,10416.125148
1209.091948,-3216.744531,612.713244,12177.675724
1209.092245,-3369.922842,-3293.333686,14015.815456
1209.092541,-995.659021,-0.000000,11718.140791
1209.092857,-76.589155,4595.349330,11794.729947
1209.093153,3906.046930,4978.295107,7275.969772
1209.093449,459.534933,4442.171019,9190.698660
1209.093745,2527.442131,6510.078217,10186.357681
1209.094041,612.713244,3216.744531,8041.861327
1209.094338,-3676.279464,1072.248177,9956.590215
1209.094634,-2757.209598,-1608.372265,9956.590215
1209.094930,-5591.008351,-4825.116796,13020.156435
1209.095244,-4288.992708,-5054.884263,12560.621502
1209.095542,765.891555,-4365.581863,10722.481770
1209.095840,2680.620442,-1914.728887,9803.411904
1209.096138,5820.775818,-1455.193954,9114.109504
1209.096436,5208.062574,-1302.015643,9114.109504
1209.096734,2986.977064,-842.480710,9803.411904
1209.097032,1378.604799,-2374.263820,8577.985416
1209.097329,-2067.907198,-3446.511997,9343.876971
1209.097626,-4288.992708,-4518.760174,10416.125148
1209.097924,-5591.008351,-8118.450483,11182.016703
1209.098221,-6816.434839,-8577.985416,13249.923901
1209.098519,-3216.744531,-6893.023995,14628.528700
1209.098816,2986.977064,-5973.954129,10645.892614
1209.099113,5514.419196,-536.124088,10109.768526
1209.099411,7046.202306,1838.139732,9420.466126
1209.099708,5667.597507,4288.992708,8501.396260
1209.100036,2680.620442,5131.473418,9497.055282
1209.100333,-689.302399,4595.349330,10416.125148
1209.100630,-6969.613150,2604.031287,10952.249236
1209.100927,-8577.985416,919.069866,11718.140791
1209.101224,-8731.163727,-2527.442131,11794.729947
1209.101521,-3523.101153,-2680.620442,10262.946837
1209.101818,1991.318043,-3293.333686,11564.962480
1209.102115,1838.139732,-4825.116796,12101.086569
1209.102420,6586.667373,-382.945777,11411.784169
1209.102720,8960.931193,1531.783110,7505.737239
1209.103020,7046.202306,4135.814397,5284.651729
1209.103320,2297.674665,153.178311,9956.590215
1209.103619,-4825.116796,-1914.728887,11411.784169
1209.103919,-3063.566220,765.891555,10952.249236
1209.104219,-6203.721595,153.178311,10339.535992
1209.104519,-6969.613150,-2374.263820,11258.605858
1209.104833,-6816.434839,-3293.333686,14015.815456
1209.105134,-0.000000,-1302.015643,12637.210657
1209.105435,1531.783110,2450.852976,9880.001059
1209.105735,5054.884263,4595.349330,9420.466126
1209.106036,2527.442131,3063.566220,9803.411904
1209.106337,4901.705952,3369.922842,8041.861327
1209.106637,5667.597507,3063.566220,8501.396260
1209.106938,2833.798753,306.356622,8348.217949
1209.107217,-1608.372265,-3752.868619,10569.303459
1209.107520,-5897.364973,-8884.342038,12713.799813
1209.107823,-5284.651729,-6893.023995,13326.513057
1209.108125,-2910.387909,-7352.558928,13403.102212
1209.108428,-382.945777,-6280.310751,11105.427547
1209.108731,1838.139732,-1148.837332,11182.016703
1209.109033,9803.411904,3676.279464,8501.396260
1209.109336,5973.954129,5284.651729,6969.613150
1209.109600,4059.225241,5591.008351,9650.233593
1209.109902,-536.124088,3676.279464,10262.946837
1209.110205,-5591.008351,3829.457775,9650.233593
1209.110507,-8731.163727,-995.659021,10875.660081
1209.110810,-13786.047990,-5208.062574,12101.086569
1209.111112,-10492.714303,-5820.775818,13786.047990
1209.111415,-2221.085509,-7352.558928,13403.102212
1209.111717,1378.604799,-7352.558928,10875.660081
1209.112001,6280.310751,-3906.046930,11794.729947
1209.112303,10262.946837,-2527.442131,8424.807105
1209.112606,10262.946837,765.891555,5514.419196
1209.112909,10569.303459,1531.783110,5820.775818
1209.113211,-76.589155,-382.945777,8654.574571
1209.113514,-4748.527641,-1302.015643,11105.427547
1209.113817,-6356.899906,-842.480710,11641.551636
1209.114119,-7965.272172,-842.480710,9803.411904
1209.114424,-6663.256528,-4212.403552,13862.637145
1209.114724,-5131.473418,-3906.046930,14628.528700
1209.115024,306.356622,1991.318043,13173.334746
1209.115323,8654.574571,6663.256528,9114.109504
1209.115623,7122.791461,6203.721595,8195.039638
1209.115923,5973.954129,6969.613150,8884.342038
1209.116223,4365.581863,7429.148083,8271.628794
1209.116522,-2910.387909,4135.814397,9956.590215
1209.116817,-6203.721595,-76.589155,10875.660081
1209.117116,-10492.714303,-4825.116796,14322.172078
1209.117416,-8424.807105,-6586.667373,13556.280523
1209.117715,153.178311,-4671.938485,11718.140791
1209.118015,1072.248177,-5208.062574,11641.551636
1209.118315,6586.667373,-1302.015643,9880.001059
1209.118614,8960.931193,3063.566220,10109.768526
1209.118914,7429.148083,5591.008351,7965.272172
1209.119206,3906.046930,6816.434839,8577.985416
1209.119505,-2450.852976,4978.295107,9573.644437
1209.119804,-8577.985416,2144.496354,9037.520349
1209.120103,-8577.985416,-1455.193954,11641.551636
1209.120402,-10492.714303,-5054.884263,11641.551636
1209.120701,-7965.272172,-5820.775818,12254.264880
1209.121000,-2910.387909,-10033.179370,14398.761234
1209.121300,-689.302399,-9650.233593,11641.551636
1209.121609,9497.055282,-4365.581863,9420.466126
1209.121909,11335.195014,-2374.263820,7275.969772
1209.122210,9650.233593,-1761.550576,7122.791461
1209.122511,9114.109504,765.891555,7965.272172
1209.122812,4748.527641,1225.426488,6969.613150
1209.123113,1378.604799,2144.496354,7888.683016
1209.123413,-4825.116796,-2374.263820,10799.070925
1209.123714,-12866.978124,-4901.705952,13556.280523
1209.124021,-11947.908258,-5208.062574,15011.474478
1209.124319,-7658.915550,-5208.062574,12943.567279
1209.124618,-5131.473418,-2833.798753,12790.388968
1209.124917,1838.139732,919.069866,12101.086569
1209.125215,6127.132440,3063.566220,9267.287815
1209.125514,11028.838392,8654.574571,7199.380617
1209.125813,12484.032346,8195.039638,6739.845684
1209.126111,4518.760174,3982.636086,9420.466126
1209.126416,-382.945777,2910.387909,10186.357681
1209.126716,-5131.473418,-1302.015643,12866.978124
1209.127015,-8884.342038,-3752.868619,10033.179370
1209.127315,-10186.357681,-5208.062574,14015.815456
1209.127615,-10952.249236,-10952.249236,15471.009411
1209.127914,-3676.279464,-4518.760174,12254.264880
1209.128214,6127.132440,2450.852976,12177.675724
1209.128513,8041.861327,6203.721595,7352.558928
1209.128808,8960.931193,9420.466126,8501.396260
1209.129105,7735.504705,9114.109504,7735.504705
1209.129402,1838.139732,6663.256528,7275.969772
1209.129700,-4135.814397,1684.961421,10799.070925
1209.129997,-10033.179370,-5820.775818,10416.125148
1209.130295,-11871.319102,-8577.985416,12407.443191
1209.130592,-4825.116796,-10645.892614,13709.458834
1209.130889,-2221.085509,-11564.962480,11641.551636
1209.131201,5973.954129,-6893.023995,10875.660081
1209.131500,9956.590215,-3752.868619,10262.946837
1209.131799,10569.303459,2604.031287,5361.240885
1209.132097,13096.745590,7122.791461,7735.504705
1209.132396,4671.938485,5131.473418,6586.667373
1209.132695,-995.659021,3369.922842,8118.450483
1209.132994,-8731.163727,-1148.837332,12484.032346
1209.133292,-12101.086569,-5208.062574,12407.443191
1209.133602,-10033.179370,-6893.023995,12713.799813
1209.133901,-6050.543284,-10033.179370,13556.280523
1209.134200,-2604.031287,-7812.093861,12101.086569
1209.134499,5514.419196,-1914.728887,12560.621502
1209.134798,9114.109504,1531.783110,8118.450483
1209.135097,8195.039638,6663.256528,7965.272172
1209.135396,4901.705952,6050.543284,9267.287815
1209.135695,-382.945777,4748.527641,9420.466126
1209.135992,-3216.744531,4978.295107,10186.357681
1209.136292,-6663.256528,1225.426488,11641.551636
1209.136591,-11258.605858,-4518.760174,12943.567279
1209.136890,-8424.807105,-4212.403552,15241.241944
1209.137189,-4825.116796,-5054.884263,13020.156435
1209.137488,612.713244,-2527.442131,10109.768526
1209.137788,6739.845684,153.178311,13096.745590
1209.138087,10722.481770,4978.295107,7429.148083
1209.138392,12177.675724,9114.109504,5667.597507
1209.138692,7429.148083,6510.078217,7812.093861
1209.138992,919.069866,3216.744531,9114.109504
1209.139292,-1302.015643,2297.674665,13403.102212
1209.139592,-5897.364973,-382.945777,8884.342038
1209.139892,-7199.380617,-1761.550576,11794.729947
1209.140192,-8731.163727,-6433.489062,14092.404612
1209.140492,-6969.613150,-5973.954129,11794.729947
1209.140793,-2221.085509,-2833.798753,12560.621502
1209.141093,3446.511997,-1148.837332,8195.039638
1209.141394,6280.310751,-1914.728887,9114.109504
1209.141694,10875.660081,3063.566220,9037.520349
1209.141994,9267.287815,3829.457775,7888.683016
1209.142295,6280.310751,4288.992708,7812.093861
1209.142595,1072.248177,306.356622,9573.644437
1209.142895,-6969.613150,-3906.046930,11641.551636
1209.143211,-11564.962480,-5361.240885,13709.458834
1209.143510,-10339.535992,-7965.272172,13096.745590
1209.143808,-8884.342038,-8271.628794,12024.497413
1209.144106,-3676.279464,-5514.419196,12713.799813
1209.144404,612.713244,-4059.225241,10799.070925
1209.144702,4671.938485,306.356622,8960.931193
1209.145001,7888.683016,2450.852976,8195.039638
1209.145299,5054.884263,3523.101153,7429.148083
1209.145609,1684.961421,3369.922842,9650.233593
1209.145905,-1608.372265,-76.589155,11488.373325
1209.146201,-4288.992708,-1914.728887,10952.249236
1209.146497,-2450.852976,-3140.155375,12254.264880
1209.146793,-1761.550576,-5820.775818,10645.892614
1209.147089,-2374.263820,-6893.023995,12407.443191
1209.147385,5667.597507,-2221.085509,10875.660081
1209.147681,6280.310751,306.356622,7122.791461
1209.147978,4901.705952,3523.101153,9037.520349
1209.148279,3906.046930,3829.457775,10416.125148
1209.148580,-0.000000,6510.078217,9267.287815
1209.148881,-995.659021,6510.078217,9420.466126
1209.149181,-4595.349330,1684.961421,9267.287815
1209.149482,-5284.651729,-2067.907198,11258.605858
1209.149783,-3063.566220,-5054.884263,13709.458834
1209.150084,-4288.992708,-5514.419196,12713.799813
1209.150388,-0.000000,-2374.263820,11488.373325
1209.150689,1991.318043,-2374.263820,10492.714303
1209.150990,2144.496354,1378.604799,9726.822748
1209.151291,4212.403552,6050.543284,10262.946837
1209.151592,1684.961421,6203.721595,8041.861327
1209.151893,-229.767466,5284.651729,9114.109504
1209.152194,-2910.387909,765.891555,12254.264880
1209.152495,-6050.543284,-2221.085509,11182.016703
1209.152772,-2910.387909,-2374.263820,10722.481770
1209.153078,153.178311,-6893.023995,10952.249236
1209.153383,-2757.209598,-9497.055282,12330.854035
1209.153688,2297.674665,-5820.775818,13556.280523
1209.153993,1225.426488,-1608.372265,10339.535992
1209.154298,3140.155375,1838.139732,7888.683016
1209.154603,4059.225241,2910.387909,10569.303459
1209.154909,1378.604799,2757.209598,9497.055282
1209.155215,3446.511997,4748.527641,8348.217949
1209.155510,-995.659021,459.534933,10645.892614
1209.155805,-1608.372265,-2374.263820,9650.233593
1209.156100,-536.124088,-3293.333686,11028.838392
1209.156396,-2910.387909,-8577.985416,11028.838392
1209.156691,-4442.171019,-7965.272172,12101.086569
1209.156986,765.891555,-7658.915550,12101.086569
1209.157281,4059.225241,-2067.907198,8041.861327
1209.157586,7582.326394,612.713244,7122.791461
1209.157884,4212.403552,459.534933,8884.342038
1209.158182,765.891555,1378.604799,10722.481770
1209.158480,1531.783110,2450.852976,9497.055282
1209.158777,-3676.279464,-1148.837332,9037.520349
1209.159075,-9573.644437,-2986.977064,13249.923901
1209.159373,-10952.249236,-7046.202306,15317.831100
1209.159671,-8118.450483,-5054.884263,12943.567279
1209.159981,-689.302399,-1148.837332,11028.838392
1209.160281,2297.674665,-2067.907198,9650.233593
1209.160581,4901.705952,1225.426488,8960.931193
1209.160882,8501.396260,4135.814397,9956.590215
1209.161182,6893.023995,2604.031287,9190.698660
1209.161482,4901.705952,3216.744531,7735.504705
1209.161782,1225.426488,1225.426488,10952.249236
1209.162082,-4288.992708,-2680.620442,12560.621502
1209.162383,-7352.558928,-2374.263820,13249.923901
1209.162682,-5131.473418,-3906.046930,13249.923901
1209.162981,-1761.550576,-536.124088,10186.357681
1209.163279,5514.419196,3523.101153,11105.427547
1209.163578,2374.263820,3982.636086,9267.287815
1209.163877,153.178311,3676.279464,9956.590215
1209.164175,-1302.015643,4288.992708,13249.923901
1209.164474,-689.302399,3829.457775,9650.233593
1209.164769,-2221.085509,2297.674665,9650.233593
1209.165073,-1914.728887,-2221.085509,10339.535992
1209.165378,-2604.031287,-3446.511997,10262.946837
1209.165683,3446.511997,-3906.046930,11488.373325
1209.165987,2297.674665,-5514.419196,9726.822748
1209.166292,2833.798753,-5208.062574,9573.644437
1209.166597,1378.604799,-5208.062574,11641.551636
1209.166901,1225.426488,-2833.798753,8501.396260
1209.167172,3752.868619,612.713244,7122.791461
1209.167472,1225.426488,-229.767466,8960.931193
1209.167771,-4288.992708,-2833.798753,11028.838392
1209.168071,-3369.922842,-1761.550576,13556.280523
1209.168371,-2604.031287,-1302.015643,10033.179370
1209.168670,-2450.852976,-3752.868619,10416.125148
1209.168970,-2374.263820,-4901.705952,12560.621502
1209.169270,-2221.085509,-3446.511997,11182.016703
1209.169584,2527.442131,-229.767466,10262.946837
1209.169881,612.713244,-1761.550576,9497.055282
1209.170177,-536.124088,-842.480710,10416.125148
1209.170473,306.356622,1838.139732,10569.303459
1209.170769,306.356622,306.356622,9573.644437
1209.171066,1072.248177,1991.318043,10109.768526
1209.171362,-229.767466,-229.767466,11258.605858
1209.171658,612.713244,-689.302399,10416.125148
1209.171981,1378.604799,2297.674665,10875.660081
1209.172278,2144.496354,-842.480710,12407.443191
1209.172575,919.069866,919.069866,10492.714303
1209.172873,1991.318043,3676.279464,10186.357681
1209.173170,2374.263820,2297.674665,9420.466126
1209.173468,-842.480710,3523.101153,10109.768526
1209.173765,612.713244,4288.992708,11718.140791
1209.174063,-76.589155,5284.651729,7735.504705
1209.174360,-842.480710,2910.387909,8884.342038
1209.174661,-4825.116796,-1455.193954,13173.334746
1209.174963,-8424.807105,-2680.620442,13249.923901
1209.175265,-5131.473418,-2374.263820,13786.047990
1209.175567,-1455.193954,-2986.977064,9803.411904
1209.175868,-76.589155,-5054.884263,10569.303459
1209.176170,5361.240885,-3293.333686,10875.660081
1209.176472,6739.845684,-76.589155,7888.683016
1209.176767,7275.969772,919.069866,6663.256528
1209.177066,3599.690308,306.356622,8041.861327
1209.177366,-1914.728887,-995.659021,9343.876971
1209.177666,-3216.744531,-3293.333686,11028.838392
1209.177965,-7352.558928,-5361.240885,13096.745590
1209.178265,-2910.387909,-4901.705952,9880.001059
1209.178565,-76.589155,-4825.116796,10416.125148
1209.178864,1378.604799,-6433.489062,11641.551636
1209.179182,919.069866,-6127.132440,13249.923901
1209.179480,4518.760174,-1302.015643,9880.001059
1209.179778,5667.597507,1531.783110,6280.310751
1209.180076,-76.589155,1991.318043,9956.590215
1209.180374,-2221.085509,2450.852976,9343.876971
1209.180672,-5591.008351,5131.473418,9726.822748
1209.180971,-3829.457775,1838.139732,10569.303459
1209.181269,-4978.295107,-3140.155375,11488.373325
1209.181551,-7965.272172,-5820.775818,14934.885322
1209.181851,-2604.031287,-4825.116796,12177.675724
1209.182151,-1608.372265,-382.945777,10645.892614
1209.182452,-76.589155,3216.744531,10416.125148
1209.182752,-8271.628794,2757.209598,9573.644437
1209.183052,-14475.350389,4978.295107,10722.481770
1209.183352,-20449.304518,4288.992708,12790.388968
1209.183652,-26499.847803,1991.318043,11182.016703
1209.183951,-30099.538111,1378.604799,12560.621502
1209.184251,-28720.933312,-2527.442131,15700.776877
1209.184551,-23742.638205,-5820.775818,13249.923901
1209.184851,-13939.226301,-1608.372265,15547.598566
1209.185151,-3523.101153,-995.659021,10109.768526
1209.185451,7582.326394,1838.139732,4748.527641
1209.185751,6586.667373,765.891555,8884.342038
1209.186051,-536.124088,-1608.372265,6663.256528
1209.186361,-10645.892614,1991.318043,8424.807105
1209.186660,-23972.405671,919.069866,9114.109504
1209.186960,-34388.530819,-3140.155375,7199.380617
1209.187259,-45111.012589,-6280.310751,15547.598566
1209.187558,-44804.655967,-6280.310751,14934.885322
1209.187857,-32626.980243,-3906.046930,10033.179370
1209.188156,-14322.172078,-1148.837332,7965.272172
1209.188456,2527.442131,459.534933,3676.279464
1209.188750,10569.303459,-1455.193954,4671.938485
1209.189053,13096.745590,-2833.798753,5208.062574
1209.189355,3752.868619,-4365.581863,5591.008351
1209.189657,-13632.869679,-4212.403552,8195.039638
1209.189959,-37681.864506,-5361.240885,11488.373325
1209.190262,-52616.749828,-3140.155375,13556.280523
1209.190564,-57671.634091,153.178311,13326.513057
1209.190866,-55910.083515,2757.209598,12790.388968
1209.191170,-44804.655967,5591.008351,12560.621502
1209.191467,-28567.755001,5591.008351,13096.745590
1209.191764,-8577.985416,3982.636086,10645.892614
1209.192061,9803.411904,1684.961421,8731.163727
1209.192358,18611.164786,-2680.620442,6663.256528
1209.192655,16926.203365,-5820.775818,4671.938485
1209.192952,5667.597507,-4365.581863,5820.775818
1209.193249,-12407.443191,-3140.155375,8654.574571
1209.193555,-34235.352508,765.891555,14781.707011
1209.193853,-50855.199252,4595.349330,19147.288875
1209.194152,-56216.440137,10569.303459,20372.715363
1209.194450,-49246.826986,16619.846743,19760.002119
1209.194748,-33622.639264,21598.141851,17921.862387
1209.195046,-10952.249236,24125.583982,14628.528700
1209.195344,14858.296167,25810.545403,9650.233593
1209.195643,37988.221128,24585.118915,4365.581863
1209.195943,48404.346276,24048.994827,689.302399
1209.196245,40515.663259,24278.762293,1148.837332
1209.196547,15777.366033,22364.033406,6816.434839
1209.196849,-15547.598566,21751.320162,14322.172078
1209.197151,-41358.143970,24738.297226,17615.505765
1209.197452,-57365.277469,27801.863446,18075.040698
1209.197754,-59892.719601,29716.592334,15471.009411
1209.198056,-48174.578809,29103.879090,14168.993767
1209.198343,-26653.026114,28261.398379,12407.443191
1209.198643,3752.868619,27035.971891,8654.574571
1209.198943,33852.406731,22364.033406,3829.457775
1209.199243,55067.602804,14781.707011,1072.248177
1209.199544,59509.773823,9267.287815,1455.193954
1209.199844,49476.594453,7429.148083,3829.457775
1209.200144,26423.258647,7122.791461,7658.915550
1209.200444,-2221.085509,9114.109504,13709.458834
1209.200739,-29027.289934,13020.156435,16390.079277
1209.201042,-45953.493300,20066.358741,16696.435899
1209.201345,-56216.440137,22670.390028,18534.575631
1209.201649,-56369.618448,25657.367092,20372.715363
1209.201952,-44345.121034,28874.111623,21598.141851
1209.202255,-19683.412963,32933.336865,18917.521408
1209.202559,14551.939545,36379.848862,10416.125148
1209.202862,46642.795699,37298.918728,2757.209598
1209.203170,68164.348395,35154.422374,-1838.139732
1209.203471,69466.364038,26423.258647,-2604.031287
1209.203771,47485.276410,16007.133499,2833.798753
1209.204071,13556.280523,1991.318043,11028.838392
1209.204372,-19836.591274,-7658.915550,17155.970832
1209.204672,-39749.771704,-8118.450483,19147.288875
1209.204973,-47868.222187,-6127.132440,18994.110564
1209.205273,-43272.872857,2757.209598,18151.629853
1209.205562,-28567.755001,12866.978124,17462.327454
1209.205862,-11718.140791,26116.902025,12330.854035
1209.206161,9114.109504,34082.174197,6969.613150
1209.206460,23895.816516,39213.647616,1838.139732
1209.206760,26729.615269,36379.848862,76.589155
1209.207059,21981.087628,24585.118915,3752.868619
1209.207358,12943.567279,8348.217949,6816.434839
1209.207658,5820.775818,-4901.705952,10569.303459
1209.207963,-5897.364973,-20296.126207,11028.838392
1209.208261,-18687.753942,-31478.142910,13249.923901
1209.208560,-28337.987535,-35231.011530,20908.839451
1209.208858,-25197.832159,-29793.181489,15700.776877
1209.209157,-15700.776877,-19147.288875,10339.535992
1209.209455,-6510.078217,-6893.023995,8654.574571
1209.209754,1684.961421,-76.589155,9343.876971
1209.210052,7735.504705,6203.721595,9267.287815
1209.210340,16926.203365,12101.086569,7046.202306
1209.210640,21138.606918,7582.326394,4901.705952
1209.210940,20372.715363,-4059.225241,6050.543284
1209.211240,17232.559987,-12943.567279,11182.016703
1209.211540,12024.497413,-17768.684076,10109.768526
1209.211840,3446.511997,-10492.714303,10416.125148
1209.212140,-9343.876971,-4059.225241,12637.210657
1209.212440,-23819.227360,-2374.263820,16313.490121
1209.212758,-31095.197133,5591.008351,17538.916609
1209.213055,-29946.359800,13020.156435,12713.799813
1209.213352,-26653.026114,14245.582923,9190.698660
1209.213649,-13939.226301,10416.125148,10416.125148
1209.213946,-2604.031287,153.178311,12637.210657
1209.214243,12943.567279,-8577.985416,12330.854035
1209.214540,28261.398379,-17615.505765,12101.086569
1209.214836,37605.275350,-24508.529760,6510.078217
1209.215132,41281.554814,-19377.056341,3752.868619
1209.215432,34005.585042,-8884.342038,4135.814397
1209.215732,13249.923901,3523.101153,6280.310751
1209.216031,-7505.737239,11794.729947,13556.280523
1209.216331,-26193.491181,21904.498473,14551.939545
1209.216631,-38217.988594,30022.948956,16543.257588
1209.216931,-37069.151262,32014.266999,14322.172078
1209.217231,-33316.282642,23589.459894,14551.939545
1209.217535,-20755.661140,13173.334746,16313.490121
1209.217838,-2374.263820,2604.031287,13939.226301
1209.218140,16773.025054,-9726.822748,8577.985416
1209.218443,36839.383795,-15624.187722,6280.310751
1209.218745,38907.290994,-20142.947896,4135.814397
1209.219048,33239.693487,-14322.172078,4595.349330
1209.219350,20679.071985,-4518.760174,7888.683016
1209.219653,1378.604799,6663.256528,6050.543284
1209.219958,-9726.822748,15394.420255,8807.752882
1209.220257,-21751.320162,17845.273231,9956.590215
1209.220555,-29640.003178,13173.334746,13096.745590
1209.220854,-27418.917669,8807.752882,17079.381676
1209.221153,-19836.591274,2757.209598,14245.582923
1209.221452,-9497.055282,-4825.116796,13173.334746
1209.221751,5208.062574,-15624.187722,12254.264880
1209.222050,14398.761234,-20602.482829,11794.729947
1209.222361,24661.708071,-17921.862387,9956.590215
1209.222657,26423.258647,-9880.001059,5744.186662
1209.222953,14705.117856,-4901.705952,6203.721595
1209.223248,10262.946837,3369.922842,7965.272172
1209.223544,765.891555,6816.434839,8195.039638
1209.223840,-8577.985416,7888.683016,11028.838392
1209.224136,-16619.846743,1991.318043,12713.799813
1209.224432,-24431.940604,-4212.403552,15930.544344
1209.224743,-19836.591274,-6586.667373,17768.684076
1209.225041,-11411.784169,-8577.985416,15088.063633
1209.225339,-995.659021,-9880.001059,11564.962480
1209.225637,11182.016703,-8884.342038,12790.388968
1209.225934,16543.257588,-4671.938485,9420.466126
1209.226232,20066.358741,2910.387909,5208.062574
1209.226530,17538.916609,4748.527641,6739.845684
1209.226828,5973.954129,459.534933,7735.504705
1209.227133,-1761.550576,-229.767466,9573.644437
1209.227432,-8884.342038,-382.945777,10875.660081
1209.227732,-17768.684076,-2680.620442,10262.946837
1209.228032,-16619.846743,-2221.085509,13556.280523
1209.228331,-15700.776877,-2221.085509,12790.388968
1209.228631,-9037.520349,2144.496354,12101.086569
1209.228931,306.356622,4748.527641,12254.264880
1209.229231,5361.240885,5744.186662,8807.752882
1209.229525,15317.831100,8807.752882,6586.667373
1209.229824,19606.823808,9420.466126,3982.636086
1209.230124,15624.187722,4442.171019,6586.667373
1209.230424,10875.660081,-995.659021,8348.217949
1209.230723,2144.496354,-7658.915550,8348.217949
1209.231023,-9037.520349,-8118.450483,12790.388968
1209.231322,-11258.605858,-7199.380617,11564.962480
1209.231622,-18687.753942,-7505.737239,13326.513057
1209.231947,-14934.885322,-536.124088,14934.885322
1209.232242,-8271.628794,4135.814397,14168.993767
1209.232538,-2067.907198,6356.899906,11182.016703
1209.232833,9497.055282,12866.978124,7658.915550
1209.233129,17079.381676,9803.411904,5667.597507
1209.233424,17232.559987,4288.992708,6816.434839
1209.233720,17079.381676,-1148.837332,9114.109504
1209.234015,7429.148083,-9190.698660,10262.946837
1209.234371,-1148.837332,-9650.233593,12407.443191
1209.234665,-8424.807105,-9650.233593,13326.513057
1209.234959,-19377.056341,-10339.535992,12177.675724
1209.235253,-22364.033406,-7658.915550,16236.900966
1209.235547,-21215.196073,-6433.489062,15011.474478
1209.235841,-13479.691368,-995.659021,13326.513057
1209.236135,1838.139732,3523.101153,9880.001059
1209.236429,9956.590215,2757.209598,6816.434839
1209.236736,18917.521408,3523.101153,8348.217949
1209.237036,24968.064693,2910.387909,5667.597507
1209.237335,22134.265939,612.713244,5361.240885
1209.237634,14398.761234,-229.767466,7505.737239
1209.237934,1072.248177,-2067.907198,7046.202306
1209.238233,-14781.707011,-3140.155375,12637.210657
1209.238533,-22976.746650,-2680.620442,15700.776877
1209.238832,-28184.809224,-4059.225241,16236.900966
1209.239136,-20142.947896,765.891555,15164.652789
1209.239436,-8118.450483,3676.279464,11641.551636
1209.239736,5361.240885,4825.116796,7735.504705
1209.240036,18304.808164,6050.543284,7429.148083
1209.240335,24661.708071,1684.961421,4901.705952
1209.240635,24968.064693,153.178311,4748.527641
1209.240935,19760.002119,-995.659021,7735.504705
1209.241234,6586.667373,-3752.868619,8501.396260
1209.241529,-5744.186662,-995.659021,12177.675724
1209.241826,-15853.955188,-382.945777,15700.776877
1209.242123,-22823.568339,-229.767466,14322.172078
1209.242421,-17768.684076,5744.186662,14628.528700
1209.242718,-15241.241944,5591.008351,12637.210657
1209.243015,-8271.628794,4748.527641,11947.908258
1209.243313,2527.442131,3216.744531,12101.086569
1209.243610,8807.752882,-1148.837332,9114.109504
1209.243922,14245.582923,-3140.155375,9114.109504
1209.244221,14015.815456,-6739.845684,7965.272172
1209.244519,6893.023995,-9650.233593,7888.683016
1209.244818,2374.263820,-8118.450483,10262.946837
1209.245117,-4442.171019,-10186.357681,11028.838392
1209.245415,-10492.714303,-7352.558928,13709.458834
1209.245714,-6663.256528,-1302.015643,12407.443191
1209.246013,-6816.434839,1531.783110,9573.644437
1209.246311,-0.000000,5591.008351,8807.752882
1209.246611,4518.760174,7429.148083,10109.768526
1209.246912,2374.263820,3369.922842,10875.660081
1209.247213,5667.597507,4825.116796,9267.287815
1209.247513,1531.783110,2910.387909,9114.109504
1209.247814,-3829.457775,-2221.085509,9956.590215
1209.248115,-5131.473418,-6739.845684,12101.086569
1209.248416,-8884.342038,-8577.985416,12254.264880
