#time,accel_x,accel_y,accel_z
1185.473499,153.178311,-689.302399,10109.768526
1185.473798,153.178311,-536.124088,10262.946837
1185.474096,-76.589155,-842.480710,10339.535992
1185.474395,-0.000000,-536.124088,10262.946837
1185.474683,-229.767466,-536.124088,10416.125148
1185.474983,306.356622,-536.124088,10416.125148
1185.475283,4059.225241,-382.945777,9956.590215
1185.475583,5973.954129,-229.767466,10262.946837
1185.475883,11641.551636,153.178311,9114.109504
1185.476183,15164.652789,153.178311,9420.466126
1185.476483,19147.288875,-0.000000,9267.287815
1185.476783,22287.444250,612.713244,8960.931193
1185.477082,21827.909317,1684.961421,9803.411904
1185.477382,22593.800872,2757.209598,8424.807105
1185.477681,20066.358741,2450.852976,9267.287815
1185.477980,16926.203365,1991.318043,9956.590215
1185.478280,14551.939545,1072.248177,10262.946837
1185.478579,14245.582923,765.891555,11258.605858
1185.478878,17845.273231,306.356622,10416.125148
1185.479177,23512.870738,1072.248177,10109.768526
1185.479485,27955.041757,459.534933,9420.466126
1185.479787,25274.421315,-1608.372265,9573.644437
1185.480090,20219.537052,-4212.403552,12790.388968
1185.480392,13403.102212,-5208.062574,15930.544344
1185.480695,10875.660081,-2374.263820,14245.582923
1185.480998,10262.946837,1072.248177,12866.978124
1185.481300,7275.969772,765.891555,11488.373325
1185.481603,2680.620442,153.178311,13862.637145
1185.481923,765.891555,-1302.015643,17155.970832
1185.482220,3446.511997,-842.480710,15547.598566
1185.482517,12484.032346,1838.139732,12101.086569
1185.482815,21674.731006,4135.814397,7965.272172
1185.483112,27648.685135,919.069866,6356.899906
1185.483409,32244.034465,-76.589155,6356.899906
1185.483706,36992.562106,-2986.977064,5973.954129
1185.484003,39366.825927,-5361.240885,4978.295107
1185.484241,38294.577750,-8731.163727,4825.116796
1185.484546,30176.127267,-8884.342038,8807.752882
1185.484851,20525.893674,-7505.737239,12330.854035
1185.485156,13403.102212,-3140.155375,15088.063633
1185.485461,10109.768526,1991.318043,14015.815456
1185.485766,3446.511997,5131.473418,13020.156435
1185.486071,-3829.457775,4748.527641,13096.745590
1185.486377,-5744.186662,2144.496354,13249.923901
1185.486694,-4442.171019,-382.945777,11411.784169
1185.486992,-2450.852976,-2680.620442,11641.551636
1185.487291,-1148.837332,-3599.690308,12254.264880
1185.487589,4059.225241,-229.767466,11182.016703
1185.487888,9650.233593,3829.457775,9114.109504
1185.488187,13249.923901,6969.613150,7735.504705
1185.488485,15624.187722,6816.434839,8654.574571
1185.488784,15930.544344,2604.031287,9420.466126
1185.489084,16619.846743,-3140.155375,10033.179370
1185.489381,16083.722655,-6127.132440,11411.784169
1185.489679,15317.831100,-10186.357681,8501.396260
1185.489976,8501.396260,-10799.070925,9420.466126
1185.490273,-1302.015643,-10952.249236,11488.373325
1185.490571,-13020.156435,-6739.845684,14015.815456
1185.490868,-23742.638205,-2221.085509,16083.722655
1185.491166,-21444.963540,5437.830040,13862.637145
1185.491506,-17615.505765,10416.125148,11794.729947
1185.491803,-13632.869679,14628.528700,12560.621502
1185.492100,-5897.364973,13020.156435,14475.350389
1185.492397,11794.729947,13786.047990,9267.287815
1185.492694,27801.863446,10722.481770,2833.798753
1185.492991,31784.499532,-0.000000,4442.171019
1185.493288,29869.770645,-9650.233593,5131.473418
1185.493585,25274.421315,-14858.296167,4595.349330
1185.493870,17079.381676,-19989.769585,6356.899906
1185.494171,2833.798753,-22593.800872,8807.752882
1185.494471,-13173.334746,-20296.126207,13173.334746
1185.494772,-27878.452602,-16696.435899,18840.932253
1185.495073,-32933.336865,-6586.667373,17155.970832
1185.495373,-28720.933312,6816.434839,12713.799813
1185.495674,-22210.855095,12866.978124,11488.373325
1185.495975,-11411.784169,13020.156435,9343.876971
1185.496292,1225.426488,15088.063633,7735.504705
1185.496591,14168.993767,13020.156435,7429.148083
1185.496890,19760.002119,4442.171019,6280.310751
1185.497189,20679.071985,-995.659021,7582.326394
1185.497488,18917.521408,-6127.132440,8807.752882
1185.497788,15317.831100,-10186.357681,7429.148083
1185.498087,5667.597507,-10339.535992,9037.520349
1185.498386,-4595.349330,-14475.350389,12407.443191
1185.498658,-14475.350389,-15317.831100,14475.350389
1185.498961,-16619.846743,-7658.915550,14628.528700
1185.499264,-13020.156435,-3752.868619,13403.102212
1185.499568,-6816.434839,-536.124088,11182.016703
1185.499871,3293.333686,8041.861327,10416.125148
1185.500174,11335.195014,13479.691368,8654.574571
1185.500477,15624.187722,17692.094920,7582.326394
1185.500780,18304.808164,20372.715363,8195.039638
1185.501070,13556.280523,18917.521408,10875.660081
1185.501369,7735.504705,11488.373325,10952.249236
1185.501668,-1914.728887,6816.434839,13020.156435
1185.501967,-10033.179370,-689.302399,16083.722655
1185.502267,-14322.172078,-7812.093861,15930.544344
1185.502566,-17462.327454,-9037.520349,13862.637145
1185.502865,-15088.063633,-11411.784169,13173.334746
1185.503164,-13173.334746,-14475.350389,12790.388968
1185.503478,-5131.473418,-9650.233593,10569.303459
1185.503776,5054.884263,-2527.442131,7735.504705
1185.504075,14858.296167,4442.171019,4595.349330
1185.504374,17079.381676,10416.125148,5208.062574
1185.504673,13249.923901,11335.195014,9650.233593
1185.504971,8654.574571,12101.086569,10262.946837
1185.505270,2374.263820,11028.838392,9803.411904
1185.505569,-5437.830040,5284.651729,12407.443191
1185.505876,-11718.140791,-4825.116796,13403.102212
1185.506173,-13326.513057,-7505.737239,13556.280523
1185.506470,-9343.876971,-10952.249236,11641.551636
1185.506768,-4135.814397,-15011.474478,9343.876971
1185.507065,-0.000000,-15777.366033,7888.683016
1185.507362,2986.977064,-14475.350389,7505.737239
1185.507659,5054.884263,-12177.675724,7888.683016
1185.507956,5361.240885,-6586.667373,7582.326394
1185.508253,5514.419196,-1148.837332,9497.055282
1185.508553,4059.225241,2910.387909,9650.233593
1185.508854,2144.496354,7582.326394,10416.125148
1185.509154,-1608.372265,9573.644437,12101.086569
1185.509454,-3063.566220,8501.396260,11105.427547
1185.509755,-3829.457775,5591.008351,12024.497413
1185.510055,-8424.807105,-2067.907198,14168.993767
1185.510355,-8731.163727,-7658.915550,13249.923901
1185.510650,-842.480710,-9037.520349,7965.272172
1185.510951,3446.511997,-8731.163727,7199.380617
1185.511252,7888.683016,-11411.784169,5667.597507
1185.511553,5054.884263,-7046.202306,8348.217949
1185.511854,4748.527641,-2374.263820,10416.125148
1185.512155,4518.760174,1838.139732,9650.233593
1185.512455,-382.945777,5437.830040,10262.946837
1185.512756,-3676.279464,8041.861327,13249.923901
1185.513068,-7352.558928,6969.613150,13403.102212
1185.513366,-6356.899906,8960.931193,12866.978124
1185.513663,-2910.387909,8654.574571,11794.729947
1185.513960,-2374.263820,3829.457775,10339.535992
1185.514258,-689.302399,-382.945777,9190.698660
1185.514555,-1148.837332,-2833.798753,11564.962480
1185.514853,612.713244,-6280.310751,9114.109504
1185.515150,1225.426488,-4365.581863,7888.683016
1185.515459,153.178311,-4365.581863,9726.822748
1185.515758,-842.480710,-6127.132440,12407.443191
1185.516056,-842.480710,-2833.798753,12866.978124
1185.516355,1378.604799,3216.744531,11794.729947
1185.516653,-76.589155,2144.496354,12101.086569
1185.516952,765.891555,5284.651729,10722.481770
1185.517250,2374.263820,6816.434839,12254.264880
1185.517549,1225.426488,2910.387909,10339.535992
1185.517856,2986.977064,1072.248177,9497.055282
1185.518156,1991.318043,-1302.015643,9573.644437
1185.518457,1838.139732,-5973.954129,9114.109504
1185.518757,-689.302399,-8424.807105,9037.520349
1185.519058,-1455.193954,-5973.954129,10033.179370
1185.519358,-2374.263820,-7965.272172,11105.427547
1185.519658,-2067.907198,-6127.132440,12330.854035
1185.519959,-76.589155,-382.945777,12790.388968
1185.520255,2297.674665,153.178311,10875.660081
1185.520554,2680.620442,1531.783110,10033.179370
1185.520852,1838.139732,3369.922842,9497.055282
1185.521150,919.069866,-0.000000,9803.411904
1185.521448,153.178311,-2986.977064,9650.233593
1185.521746,-1302.015643,-2680.620442,9420.466126
1185.522044,1991.318043,-3599.690308,7735.504705
1185.522342,2833.798753,-536.124088,5514.419196
1185.522657,-1302.015643,-382.945777,8807.752882
1185.522955,-6816.434839,-6127.132440,12637.210657
1185.523254,-10186.357681,-6280.310751,16083.722655
1185.523553,-8731.163727,-4365.581863,13862.637145
1185.523851,-3676.279464,-3599.690308,12254.264880
1185.524150,1531.783110,-1148.837332,9190.698660
1185.524449,5514.419196,4135.814397,8654.574571
1185.524747,8960.931193,4442.171019,9420.466126
1185.525059,9956.590215,4442.171019,7658.915550
1185.525359,6127.132440,3523.101153,8577.985416
1185.525659,459.534933,-1148.837332,9650.233593
1185.525959,-3982.636086,-2221.085509,10569.303459
1185.526259,-5131.473418,1991.318043,9880.001059
1185.526559,-3982.636086,612.713244,11794.729947
1185.526859,-4825.116796,-229.767466,13632.869679
1185.527159,-5744.186662,1991.318043,15777.366033
1185.527491,-1608.372265,3063.566220,15088.063633
1185.527786,3599.690308,5744.186662,9650.233593
1185.528080,6586.667373,5591.008351,9726.822748
1185.528375,6127.132440,1531.783110,9420.466126
1185.528670,6586.667373,-382.945777,7275.969772
1185.528964,5514.419196,-229.767466,8501.396260
1185.529259,-2221.085509,-4825.116796,10339.535992
1185.529553,-5437.830040,-3906.046930,11028.838392
1185.529860,-5897.364973,1838.139732,9956.590215
1185.530157,-6816.434839,1225.426488,11335.195014
1185.530454,-10645.892614,-1455.193954,14168.993767
1185.530750,-7122.791461,2450.852976,13862.637145
1185.531047,-76.589155,2757.209598,11182.016703
1185.531344,4748.527641,-689.302399,9267.287815
1185.531640,6586.667373,-2986.977064,9190.698660
1185.531937,7735.504705,-5973.954129,8348.217949
1185.532257,9650.233593,-8577.985416,7582.326394
1185.532554,7888.683016,-8577.985416,8195.039638
1185.532851,1072.248177,-8577.985416,9343.876971
1185.533148,-2450.852976,-7352.558928,9650.233593
1185.533445,-6050.543284,-3140.155375,9650.233593
1185.533742,-10186.357681,-3293.333686,11641.551636
1185.534039,-11411.784169,-2833.798753,13709.458834
1185.534336,-9726.822748,1684.961421,14092.404612
1185.534655,-8271.628794,2297.674665,14322.172078
1185.534953,-1455.193954,1378.604799,12790.388968
1185.535252,6893.023995,5744.186662,9880.001059
1185.535550,12637.210657,1531.783110,7275.969772
1185.535848,11335.195014,-3293.333686,8960.931193
1185.536146,9956.590215,-3906.046930,9420.466126
1185.536444,9497.055282,-2680.620442,6816.434839
1185.536743,5820.775818,-4365.581863,7735.504705
1185.537056,-1914.728887,-2374.263820,9573.644437
1185.537354,-8884.342038,-1914.728887,12943.567279
1185.537653,-10186.357681,1225.426488,13709.458834
1185.537951,-7352.558928,7735.504705,12254.264880
1185.538250,-7658.915550,6663.256528,13249.923901
1185.538548,-8118.450483,4135.814397,13786.047990
1185.538847,-2067.907198,6203.721595,12713.799813
1185.539145,5208.062574,7582.326394,8731.163727
1185.539445,10875.660081,4288.992708,6510.078217
1185.539745,12484.032346,2450.852976,6127.132440
1185.540046,7582.326394,-689.302399,8654.574571
1185.540347,3906.046930,-5820.775818,9114.109504
1185.540648,-2067.907198,-4365.581863,8577.985416
1185.540948,-7352.558928,-5054.884263,10569.303459
1185.541249,-11411.784169,-7199.380617,11488.373325
1185.541550,-13479.691368,-4365.581863,13709.458834
1185.541857,-8884.342038,-842.480710,13862.637145
1185.542154,-5437.830040,-229.767466,13403.102212
1185.542451,3293.333686,1531.783110,11335.195014
1185.542748,10875.660081,4288.992708,8807.752882
1185.543044,12330.854035,919.069866,8807.752882
1185.543341,10262.946837,-995.659021,7735.504705
1185.543638,7735.504705,-1608.372265,8195.039638
1185.543935,3599.690308,-6433.489062,8960.931193
1185.544249,-6356.899906,-7046.202306,10109.768526
1185.544546,-11105.427547,-5514.419196,12713.799813
1185.544842,-12713.799813,-6893.023995,14475.350389
1185.545139,-10186.357681,-2833.798753,13479.691368
1185.545435,-3676.279464,1225.426488,12943.567279
1185.545732,-76.589155,1378.604799,12330.854035
1185.546028,7275.969772,2604.031287,10722.481770
1185.546325,11028.838392,5591.008351,9650.233593
1185.546641,15164.652789,2757.209598,6816.434839
1185.546940,14398.761234,1225.426488,6510.078217
1185.547238,8041.861327,-1455.193954,8654.574571
1185.547537,765.891555,-4901.705952,10109.768526
1185.547835,-6356.899906,-2221.085509,9114.109504
1185.548133,-10952.249236,2910.387909,10109.768526
1185.548432,-14475.350389,-1761.550576,12560.621502
1185.548730,-18994.110564,-995.659021,16083.722655
1185.549047,-13326.513057,1838.139732,15394.420255
1185.549345,-5284.651729,1531.783110,12254.264880
1185.549643,5361.240885,3982.636086,8501.396260
1185.549941,11335.195014,3829.457775,8577.985416
1185.550239,15777.366033,459.534933,6816.434839
1185.550537,17385.738298,459.534933,5361.240885
1185.550834,11871.319102,-995.659021,6510.078217
1185.551132,2527.442131,-8577.985416,8501.396260
1185.551432,-9037.520349,-8271.628794,12407.443191
1185.551732,-10186.357681,-4671.938485,10722.481770
1185.552032,-10645.892614,-3752.868619,10722.481770
1185.552332,-13173.334746,-2986.977064,15088.063633
1185.552632,-10339.535992,459.534933,15164.652789
1185.552932,-6816.434839,1378.604799,16390.079277
1185.553232,2680.620442,6816.434839,11564.962480
1185.553532,10109.768526,9650.233593,7582.326394
1185.553863,13556.280523,4135.814397,6893.023995
1185.554160,15011.474478,1531.783110,6739.845684
1185.554456,12024.497413,-2067.907198,8195.039638
1185.554753,3906.046930,-7965.272172,9880.001059
1185.555050,-3982.636086,-10033.179370,12101.086569
1185.555347,-7199.380617,-5820.775818,11564.962480
1185.555644,-10186.357681,-4671.938485,13096.745590
1185.555941,-12866.978124,-2680.620442,14322.172078
1185.556249,-10186.357681,4288.992708,12943.567279
1185.556549,-3523.101153,6510.078217,11105.427547
1185.556849,2680.620442,4978.295107,9803.411904
1185.557149,6280.310751,5744.186662,9114.109504
1185.557448,10722.481770,2757.209598,8118.450483
1185.557748,11794.729947,-536.124088,6280.310751
1185.558048,9114.109504,-2221.085509,7888.683016
1185.558348,1684.961421,-6586.667373,8654.574571
1185.558631,-5131.473418,-8271.628794,10186.357681
1185.558934,-9497.055282,-5208.062574,10799.070925
1185.559237,-10799.070925,-6893.023995,10645.892614
1185.559540,-11718.140791,-5820.775818,13096.745590
1185.559843,-9497.055282,-1148.837332,12790.388968
1185.560145,-3523.101153,919.069866,12330.854035
1185.560448,3906.046930,1531.783110,10109.768526
1185.560751,8960.931193,3982.636086,7658.915550
1185.561033,10875.660081,1684.961421,8807.752882
1185.561335,8654.574571,-2374.263820,8960.931193
1185.561637,7735.504705,-536.124088,9190.698660
1185.561939,2527.442131,-1761.550576,9114.109504
1185.562240,-2910.387909,-2680.620442,10339.535992
1185.562542,-7812.093861,-536.124088,11488.373325
1185.562844,-10952.249236,-1455.193954,13403.102212
1185.563146,-10033.179370,-1761.550576,13479.691368
1185.563436,-9190.698660,1072.248177,14245.582923
1185.563735,-5591.008351,-0.000000,14322.172078
1185.564034,459.534933,-0.000000,12254.264880
1185.564333,9114.109504,4595.349330,8195.039638
1185.564632,14398.761234,4288.992708,8348.217949
1185.564932,15164.652789,1531.783110,7429.148083
1185.565231,13096.745590,1531.783110,7888.683016
1185.565530,6893.023995,306.356622,9343.876971
1185.565858,-536.124088,-2067.907198,9420.466126
1185.566154,-6969.613150,-842.480710,10033.179370
1185.566449,-13173.334746,-2374.263820,13096.745590
1185.566745,-15241.241944,-3446.511997,13862.637145
1185.567040,-12866.978124,-76.589155,13326.513057
1185.567335,-10033.179370,153.178311,13556.280523
1185.567631,-4135.814397,-1608.372265,12101.086569
1185.567926,4748.527641,1378.604799,8960.931193
1185.568233,12637.210657,2297.674665,5820.775818
1185.568533,15164.652789,-1302.015643,5208.062574
1185.568833,11335.195014,-4365.581863,6280.310751
1185.569133,5973.954129,-5208.062574,8501.396260
1185.569432,-842.480710,-8424.807105,9956.590215
1185.569732,-7505.737239,-7658.915550,10262.946837
1185.570032,-12101.086569,-5054.884263,12330.854035
1185.570332,-13173.334746,-4365.581863,13403.102212
1185.570628,-11718.140791,-1302.015643,14628.528700
1185.570927,-7199.380617,2297.674665,14781.707011
1185.571226,-689.302399,4288.992708,12254.264880
1185.571525,8195.039638,5591.008351,9573.644437
1185.571823,11871.319102,4978.295107,6663.256528
1185.572122,14245.582923,612.713244,7429.148083
1185.572421,12330.854035,-2221.085509,8501.396260
1185.572720,9267.287815,-3293.333686,9420.466126
1185.573015,2374.263820,-4059.225241,10109.768526
1185.573315,-5591.008351,-2833.798753,10722.481770
1185.573615,-11258.605858,-76.589155,13556.280523
1185.573915,-16160.311810,-2833.798753,15547.598566
1185.574215,-14092.404612,1991.318043,15853.955188
1185.574515,-8884.342038,5284.651729,14551.939545
1185.574815,-995.659021,5897.364973,11488.373325
1185.575116,8195.039638,8501.396260,8577.985416
1185.575427,15317.831100,9650.233593,5897.364973
1185.575725,17232.559987,4748.527641,6050.543284
1185.576022,12943.567279,-0.000000,6356.899906
1185.576320,4671.938485,-2833.798753,8501.396260
1185.576617,-5437.830040,-7199.380617,9956.590215
1185.576915,-12254.264880,-6586.667373,10262.946837
1185.577212,-16313.490121,-4825.116796,12024.497413
1185.577509,-16696.435899,-6893.023995,13249.923901
1185.577865,-14475.350389,-2680.620442,14781.707011
1185.578157,-8271.628794,459.534933,14245.582923
1185.578449,-229.767466,1684.961421,11335.195014
1185.578741,9420.466126,2144.496354,8807.752882
1185.579033,16390.079277,4825.116796,6280.310751
1185.579325,20066.358741,1378.604799,4442.171019
1185.579617,17385.738298,-2833.798753,5054.884263
1185.579909,7582.326394,-5820.775818,8195.039638
1185.580216,-2757.209598,-9190.698660,10875.660081
1185.580514,-11871.319102,-7046.202306,13249.923901
1185.580813,-16619.846743,-4212.403552,12560.621502
1185.581111,-16696.435899,-3293.333686,14475.350389
1185.581409,-14628.528700,306.356622,15394.420255
1185.581707,-8271.628794,4135.814397,13862.637145
1185.582005,-76.589155,3369.922842,14168.993767
1185.582303,9420.466126,3523.101153,11028.838392
1185.582619,18151.629853,5284.651729,6356.899906
1185.582920,21291.785229,1838.139732,5973.954129
1185.583221,16619.846743,-3140.155375,6280.310751
1185.583523,10569.303459,-2833.798753,8960.931193
1185.583824,459.534933,-4059.225241,9267.287815
1185.584125,-8577.985416,-2221.085509,9803.411904
1185.584426,-17768.684076,-536.124088,13173.334746
1185.584727,-20602.482829,-382.945777,15394.420255
1185.585041,-19530.234652,1838.139732,15547.598566
1185.585337,-12101.086569,5744.186662,14781.707011
1185.585634,-3676.279464,5591.008351,12560.621502
1185.585930,6127.132440,2910.387909,7888.683016
1185.586226,15317.831100,3829.457775,6510.078217
1185.586522,17845.273231,-2067.907198,5973.954129
1185.586819,16236.900966,-7199.380617,6356.899906
1185.587115,9114.109504,-7352.558928,7122.791461
1185.587403,1531.783110,-8271.628794,7812.093861
1185.587703,-6050.543284,-6893.023995,8118.450483
1185.588003,-11871.319102,-3906.046930,9956.590215
1185.588303,-14092.404612,-1914.728887,13249.923901
1185.588603,-16849.614210,-1761.550576,16849.614210
1185.588903,-12713.799813,2757.209598,15547.598566
1185.589203,-6203.721595,5284.651729,14092.404612
1185.589502,1684.961421,4595.349330,11182.016703
1185.589858,10569.303459,3523.101153,8424.807105
1185.590150,14705.117856,459.534933,8041.861327
1185.590442,17692.094920,-3752.868619,6510.078217
1185.590734,15777.366033,-4825.116796,6280.310751
1185.591026,9420.466126,-5667.597507,8041.861327
1185.591318,306.356622,-7505.737239,10186.357681
1185.591610,-8271.628794,-4059.225241,12560.621502
1185.591902,-13326.513057,-1302.015643,14628.528700
1185.592209,-14092.404612,1072.248177,13479.691368
1185.592508,-13786.047990,3982.636086,14168.993767
1185.592807,-10952.249236,5284.651729,15777.366033
1185.593107,-536.124088,4135.814397,12560.621502
1185.593406,12024.497413,7429.148083,8501.396260
1185.593705,18151.629853,5897.364973,6280.310751
1185.594004,17998.451542,-1148.837332,6816.434839
1185.594304,12637.210657,-1608.372265,6969.613150
1185.594624,8041.861327,-1761.550576,6663.256528
1185.594924,-3063.566220,-6280.310751,8041.861327
1185.595225,-13786.047990,-7658.915550,10799.070925
1185.595525,-18840.932253,-6433.489062,14475.350389
1185.595825,-19377.056341,-5208.062574,14322.172078
1185.596126,-16619.846743,-1302.015643,15241.241944
1185.596426,-10492.714303,306.356622,14168.993767
1185.596726,-382.945777,1378.604799,11871.319102
1185.596965,10416.125148,4135.814397,8960.931193
1185.597270,18611.164786,4748.527641,5973.954129
1185.597575,21674.731006,-536.124088,4595.349330
1185.597880,19453.645497,-2221.085509,5361.240885
1185.598185,12484.032346,-3446.511997,7352.558928
1185.598490,306.356622,-6586.667373,9573.644437
1185.598795,-9573.644437,-4901.705952,10416.125148
1185.599100,-14475.350389,-2374.263820,13403.102212
1185.599417,-19836.591274,-3293.333686,15241.241944
1185.599713,-18381.397320,-229.767466,14628.528700
1185.600009,-16160.311810,2604.031287,18228.219009
1185.600305,-6969.613150,612.713244,15930.544344
1185.600601,8654.574571,4595.349330,10416.125148
1185.600897,19300.467186,6816.434839,7965.272172
1185.601193,25121.243004,2757.209598,5820.775818
1185.601489,24508.529760,-536.124088,4442.171019
1185.601789,18917.521408,1072.248177,5208.062574
1185.602090,5514.419196,-4671.938485,8501.396260
1185.602390,-9190.698660,-4518.760174,10875.660081
1185.602691,-17615.505765,-382.945777,13862.637145
1185.602992,-22976.746650,-2067.907198,14092.404612
1185.603293,-24738.297226,306.356622,15547.598566
1185.603593,-21444.963540,2450.852976,18228.219009
1185.603894,-9190.698660,3676.279464,13862.637145
1185.604201,4212.403552,4442.171019,11028.838392
1185.604502,15777.366033,5437.830040,6893.023995
1185.604803,24355.351449,612.713244,3676.279464
1185.605104,24814.886382,-3293.333686,3982.636086
1185.605405,19453.645497,-5514.419196,5514.419196
1185.605706,5361.240885,-10339.535992,8501.396260
1185.606007,-5897.364973,-8424.807105,10033.179370
1185.606308,-12407.443191,-4365.581863,9956.590215
1185.606622,-18534.575631,-4825.116796,12407.443191
1185.606922,-22517.211717,-3599.690308,15394.420255
1185.607222,-20449.304518,153.178311,17232.559987
1185.607523,-11411.784169,2297.674665,16390.079277
1185.607823,1684.961421,4442.171019,12713.799813
1185.608123,12024.497413,7275.969772,8960.931193
1185.608424,21674.731006,4595.349330,5820.775818
1185.608724,25887.134559,1225.426488,3906.046930
1185.609043,22287.444250,-1914.728887,4901.705952
1185.609335,9114.109504,-8271.628794,9267.287815
1185.609628,-2910.387909,-8884.342038,10109.768526
1185.609921,-12713.799813,-6433.489062,12024.497413
1185.610213,-18534.575631,-5973.954129,14934.885322
1185.610506,-21904.498473,-4059.225241,15547.598566
1185.610799,-19530.234652,3523.101153,17462.327454
1185.611091,-12713.799813,6050.543284,15624.187722
1185.611409,-1148.837332,7582.326394,11871.319102
1185.611706,13709.458834,12254.264880,7888.683016
1185.612004,20679.071985,7888.683016,6510.078217
1185.612302,22900.157494,1991.318043,5514.419196
1185.612600,18611.164786,612.713244,5744.186662
1185.612898,9420.466126,-3140.155375,7735.504705
1185.613196,-1608.372265,-6127.132440,8041.861327
1185.613493,-10799.070925,-5054.884263,9803.411904
1185.613793,-17002.792521,-7199.380617,13249.923901
1185.614092,-20296.126207,-7199.380617,14015.815456
1185.614392,-18840.932253,-3446.511997,14475.350389
1185.614691,-15241.241944,-2221.085509,14628.528700
1185.614990,-5744.186662,-1455.193954,13862.637145
1185.615289,4901.705952,3829.457775,9956.590215
1185.615588,16773.025054,4595.349330,6280.310751
1185.615887,20679.071985,1531.783110,4901.705952
1185.616201,18764.343097,-1455.193954,5973.954129
1185.616500,12943.567279,-1608.372265,8271.628794
1185.616798,6127.132440,-2221.085509,6586.667373
1185.617097,-3523.101153,-382.945777,8195.039638
1185.617396,-13326.513057,-4671.938485,12637.210657
1185.617694,-20449.304518,-4901.705952,14322.172078
1185.617993,-20602.482829,-2986.977064,15700.776877
1185.618292,-18075.040698,-1761.550576,17462.327454
1185.618599,-8577.985416,-1302.015643,15547.598566
1185.618896,6739.845684,4288.992708,10799.070925
1185.619193,19453.645497,5131.473418,7275.969772
1185.619491,23359.692427,1072.248177,6127.132440
1185.619788,20525.893674,-76.589155,7582.326394
1185.620085,16619.846743,153.178311,6816.434839
1185.620382,8807.752882,-2221.085509,6816.434839
1185.620680,-3829.457775,-536.124088,9956.590215
1185.620976,-13479.691368,-76.589155,12866.978124
1185.621277,-19530.234652,-229.767466,12637.210657
1185.621578,-21904.498473,2144.496354,14475.350389
1185.621879,-21904.498473,459.534933,16849.614210
1185.622180,-16160.311810,-1148.837332,15853.955188
1185.622482,-2221.085509,1225.426488,11641.551636
1185.622783,12790.388968,1838.139732,6816.434839
1185.623084,19300.467186,-4059.225241,6356.899906
1185.623411,22593.800872,-4059.225241,6280.310751
1185.623707,17998.451542,-4518.760174,6280.310751
1185.624004,9114.109504,-6739.845684,8807.752882
1185.624300,-1455.193954,-5208.062574,7888.683016
1185.624596,-10492.714303,-2067.907198,10722.481770
1185.624892,-15853.955188,-3293.333686,11794.729947
1185.625188,-18687.753942,-0.000000,14168.993767
1185.625484,-17155.970832,1838.139732,16390.079277
1185.625773,-11105.427547,459.534933,13326.513057
1185.626073,-1455.193954,4135.814397,11794.729947
1185.626374,9267.287815,5437.830040,9420.466126
1185.626675,17845.273231,1991.318043,6663.256528
1185.626976,20832.250296,459.534933,6050.543284
1185.627277,18917.521408,-1914.728887,6203.721595
1185.627578,11641.551636,-7046.202306,8654.574571
1185.627878,2144.496354,-6893.023995,9573.644437
1185.628192,-6663.256528,-4901.705952,10875.660081
1185.628491,-11718.140791,-5820.775818,12790.388968
1185.628790,-18228.219009,-2527.442131,13403.102212
1185.629088,-17921.862387,2144.496354,15853.955188
1185.629387,-14092.404612,3369.922842,13632.869679
1185.629686,-6510.078217,5897.364973,12407.443191
1185.629984,3293.333686,6816.434839,10109.768526
1185.630283,11488.373325,3523.101153,9956.590215
1185.630590,18304.808164,1991.318043,7429.148083
1185.630890,21368.374384,1684.961421,4901.705952
1185.631189,15624.187722,-2527.442131,7582.326394
1185.631489,6586.667373,-2986.977064,8041.861327
1185.631789,-5591.008351,-2986.977064,10262.946837
1185.632088,-13479.691368,-6127.132440,12637.210657
1185.632388,-20142.947896,-6739.845684,15241.241944
1185.632688,-20142.947896,-1914.728887,14781.707011
1185.632984,-15547.598566,-2527.442131,13632.869679
1185.633282,-8731.163727,-689.302399,13096.745590
1185.633579,2986.977064,2604.031287,11718.140791
1185.633877,14015.815456,3982.636086,9190.698660
1185.634174,22287.444250,2757.209598,5667.597507
1185.634471,19300.467186,3216.744531,5744.186662
1185.634769,15011.474478,1838.139732,8348.217949
1185.635066,6127.132440,1072.248177,8195.039638
1185.635381,-3523.101153,-1302.015643,10033.179370
1185.635679,-10952.249236,-5054.884263,12790.388968
1185.635978,-15088.063633,-5514.419196,14398.761234
1185.636277,-15853.955188,-1608.372265,14015.815456
1185.636575,-13939.226301,-1608.372265,13403.102212
1185.636874,-8271.628794,-1302.015643,13709.458834
1185.637173,-229.767466,612.713244,10416.125148
1185.637471,6127.132440,-1761.550576,9956.590215
1185.637783,13403.102212,-2067.907198,8271.628794
1185.638083,18994.110564,-229.767466,6663.256528
1185.638383,18611.164786,-76.589155,6663.256528
1185.638683,12484.032346,612.713244,6356.899906
1185.638983,2833.798753,2450.852976,8654.574571
1185.639283,-4978.295107,2144.496354,9803.411904
1185.639583,-14475.350389,-1608.372265,12330.854035
1185.639883,-18840.932253,153.178311,14015.815456
1185.640182,-21215.196073,-3599.690308,14705.117856
1185.640482,-16696.435899,-6127.132440,15777.366033
1185.640781,-6203.721595,-4059.225241,12254.264880
1185.641080,4748.527641,-5054.884263,9650.233593
1185.641379,16619.846743,-4212.403552,6510.078217
1185.641679,19606.823808,-2067.907198,5514.419196
1185.641978,16543.257588,-1761.550576,7888.683016
1185.642277,10109.768526,-995.659021,7888.683016
1185.642584,3293.333686,3216.744531,9650.233593
1185.642881,-6203.721595,1531.783110,12790.388968
1185.643177,-11871.319102,-229.767466,12943.567279
1185.643474,-14781.707011,3829.457775,14475.350389
1185.643771,-14092.404612,1838.139732,14015.815456
1185.644067,-9726.822748,-0.000000,13403.102212
1185.644364,-2221.085509,3523.101153,12254.264880
1185.644660,6739.845684,2297.674665,9650.233593
1185.644981,10416.125148,-1148.837332,9267.287815
1185.645278,15164.652789,1378.604799,7735.504705
1185.645575,17385.738298,2450.852976,6356.899906
1185.645872,9803.411904,-2833.798753,5667.597507
1185.646169,153.178311,-3293.333686,9650.233593
1185.646466,-5897.364973,-3906.046930,12790.388968
1185.646763,-7965.272172,-3140.155375,12713.799813
1185.647060,-9343.876971,1684.961421,12637.210657
1185.647379,-10952.249236,2450.852976,13709.458834
1185.647677,-8884.342038,1531.783110,13249.923901
1185.647975,-4748.527641,3523.101153,10875.660081
1185.648274,-1148.837332,919.069866,10109.768526
1185.648572,1225.426488,-3446.511997,9573.644437
1185.648870,7429.148083,-2221.085509,6586.667373
1185.649168,12024.497413,-2527.442131,6586.667373
1185.649467,12024.497413,-3906.046930,7582.326394
1185.649779,9497.055282,-689.302399,8195.039638
1185.650078,3140.155375,919.069866,10186.357681
1185.650376,-2450.852976,-842.480710,11794.729947
1185.650675,-10492.714303,-536.124088,13249.923901
1185.650973,-13632.869679,-1302.015643,13862.637145
1185.651272,-14322.172078,-4901.705952,13403.102212
1185.651570,-10645.892614,-6280.310751,12943.567279
1185.651869,-3216.744531,-4518.760174,12101.086569
1185.652168,7888.683016,-3906.046930,9267.287815
1185.652469,12943.567279,-229.767466,8577.985416
1185.652770,14398.761234,2910.387909,7735.504705
1185.653070,12943.567279,3523.101153,5514.419196
1185.653371,7582.326394,6356.899906,6969.613150
1185.653672,-1608.372265,2604.031287,11258.605858
1185.653973,-10645.892614,-4671.938485,14628.528700
1185.654273,-13939.226301,-4671.938485,15011.474478
1185.654580,-11871.319102,-3599.690308,14168.993767
1185.654877,-8577.985416,-6433.489062,12484.032346
1185.655174,-5437.830040,-3906.046930,11335.195014
1185.655471,1378.604799,459.534933,8960.931193
1185.655768,7275.969772,-1302.015643,8348.217949
1185.656065,9803.411904,-1302.015643,7275.969772
1185.656362,12177.675724,-0.000000,6739.845684
1185.656658,9803.411904,153.178311,7122.791461
1185.656972,7122.791461,2297.674665,7352.558928
1185.657275,3446.511997,3982.636086,9803.411904
1185.657578,-2374.263820,459.534933,12177.675724
1185.657881,-7505.737239,459.534933,13096.745590
1185.658183,-11564.962480,1378.604799,13249.923901
1185.658486,-11947.908258,-1608.372265,12560.621502
1185.658789,-10186.357681,-1455.193954,11794.729947
1185.659092,-6050.543284,-995.659021,12407.443191
1185.659393,3140.155375,-1455.193954,9114.109504
1185.659689,8960.931193,612.713244,6969.613150
1185.659985,9650.233593,765.891555,7735.504705
1185.660281,7046.202306,-1148.837332,8960.931193
1185.660577,5054.884263,2757.209598,10109.768526
1185.660873,1991.318043,3676.279464,11641.551636
1185.661169,-2757.209598,459.534933,12407.443191
1185.661465,-6203.721595,3063.566220,13709.458834
1185.661783,-5437.830040,3982.636086,13403.102212
1185.662081,-5437.830040,-1761.550576,12560.621502
1185.662379,-6510.078217,-3599.690308,12790.388968
1185.662677,-3216.744531,-2374.263820,10569.303459
1185.662975,2144.496354,-3906.046930,9573.644437
1185.663273,5514.419196,-3446.511997,8195.039638
1185.663571,8960.931193,-995.659021,8041.861327
1185.663869,8501.396260,-2221.085509,8118.450483
1185.664169,5820.775818,153.178311,9803.411904
1185.664466,3446.511997,1072.248177,9420.466126
1185.664762,-1608.372265,-842.480710,11182.016703
1185.665059,-5897.364973,-1914.728887,13403.102212
1185.665356,-5591.008351,-76.589155,11488.373325
1185.665652,-7658.915550,-3293.333686,11718.140791
1185.665949,-6203.721595,-4671.938485,9650.233593
1185.666246,-4135.814397,-3599.690308,9497.055282
1185.666576,306.356622,-5054.884263,10492.714303
1185.666873,1072.248177,-9880.001059,10262.946837
1185.667170,3293.333686,-6280.310751,10033.179370
1185.667467,5208.062574,-2221.085509,8271.628794
1185.667764,5361.240885,1838.139732,6203.721595
1185.668061,3140.155375,6050.543284,8195.039638
1185.668358,-842.480710,7275.969772,12024.497413
1185.668655,-3063.566220,8195.039638,12713.799813
1185.668963,-5131.473418,7122.791461,11794.729947
1185.669262,-7122.791461,2297.674665,12254.264880
1185.669562,-6663.256528,-3446.511997,13479.691368
1185.669862,-3216.744531,-3752.868619,12790.388968
1185.670162,4671.938485,-4212.403552,9726.822748
1185.670462,8501.396260,-4825.116796,8501.396260
1185.670761,7429.148083,-1761.550576,9267.287815
1185.671061,6127.132440,-1148.837332,8960.931193
1185.671344,4671.938485,2757.209598,8501.396260
1185.671649,919.069866,5437.830040,10339.535992
1185.671954,-4288.992708,3982.636086,11028.838392
1185.672259,-4595.349330,5131.473418,11488.373325
1185.672563,-5897.364973,5437.830040,12101.086569
1185.672868,-7122.791461,-689.302399,13249.923901
1185.673173,-6969.613150,-4059.225241,15547.598566
1185.673478,-1302.015643,-1761.550576,10722.481770
1185.673750,5361.240885,-2986.977064,9650.233593
1185.674054,8195.039638,-4901.705952,8654.574571
1185.674358,8195.039638,-1761.550576,6663.256528
1185.674662,8041.861327,-2221.085509,5514.419196
1185.674966,1072.248177,-5054.884263,7888.683016
1185.675269,-5284.651729,-3752.868619,11182.016703
1185.675573,-9037.520349,-2833.798753,12101.086569
1185.675877,-8577.985416,-1608.372265,12790.388968
1185.676167,-5591.008351,306.356622,12943.567279
1185.676463,-5744.186662,153.178311,13939.226301
1185.676759,-689.302399,1531.783110,12713.799813
1185.677054,4518.760174,2910.387909,8807.752882
1185.677350,6280.310751,1684.961421,9420.466126
1185.677646,7122.791461,-3752.868619,8654.574571
1185.677942,5514.419196,-1148.837332,7429.148083
1185.678238,4518.760174,-842.480710,7888.683016
1185.678547,-536.124088,-3446.511997,9573.644437
1185.678845,-4978.295107,-1455.193954,11488.373325
1185.679144,-7199.380617,-536.124088,13249.923901
1185.679442,-7965.272172,-0.000000,13556.280523
1185.679741,-6816.434839,2450.852976,11794.729947
1185.680039,-4288.992708,3829.457775,12484.032346
1185.680338,-1302.015643,-382.945777,10875.660081
1185.680636,1531.783110,-689.302399,10875.660081
1185.680943,1838.139732,-4059.225241,11028.838392
1185.681244,3906.046930,-8424.807105,10875.660081
1185.681544,7735.504705,-6433.489062,7199.380617
1185.681845,8807.752882,-2986.977064,5054.884263
1185.682146,5667.597507,-2986.977064,7275.969772
1185.682446,-689.302399,-382.945777,9650.233593
1185.682747,-1914.728887,4288.992708,10416.125148
1185.683047,-3829.457775,1991.318043,11335.195014
1185.683344,-8424.807105,306.356622,14168.993767
1185.683643,-8118.450483,1378.604799,13556.280523
1185.683943,-3063.566220,-229.767466,12560.621502
1185.684242,1072.248177,-382.945777,10645.892614
1185.684542,5054.884263,-842.480710,9267.287815
1185.684842,6127.132440,-2374.263820,9573.644437
1185.685141,6586.667373,153.178311,8348.217949
1185.685441,5361.240885,2757.209598,7888.683016
1185.685735,-382.945777,1531.783110,9420.466126
1185.686036,-3829.457775,2757.209598,9573.644437
1185.686336,-9343.876971,4288.992708,10799.070925
1185.686636,-10339.535992,1531.783110,14398.761234
1185.686936,-10033.179370,1225.426488,14781.707011
1185.687236,-5131.473418,2910.387909,14015.815456
1185.687536,1378.604799,1378.604799,11641.551636
1185.687837,7046.202306,306.356622,11028.838392
1185.688148,8195.039638,765.891555,9650.233593
1185.688446,11794.729947,-1608.372265,6356.899906
1185.688743,8960.931193,-4365.581863,7812.093861
1185.689041,3906.046930,-7199.380617,8348.217949
1185.689338,-382.945777,-8271.628794,9190.698660
1185.689635,-2757.209598,-5973.954129,8960.931193
1185.689933,-6816.434839,-3752.868619,10416.125148
1185.690230,-9573.644437,-4212.403552,13556.280523
1185.690539,-10952.249236,153.178311,15011.474478
1185.690839,-7122.791461,3216.744531,13326.513057
1185.691138,-2757.209598,2297.674665,11718.140791
1185.691437,-0.000000,-1455.193954,11182.016703
1185.691737,5361.240885,-1914.728887,9114.109504
1185.692036,12024.497413,-4518.760174,7735.504705
1185.692336,14398.761234,-7199.380617,7275.969772
1185.692635,10875.660081,-7199.380617,6893.023995
1185.692942,5208.062574,-6280.310751,7965.272172
1185.693240,-1761.550576,-1148.837332,9650.233593
1185.693538,-9497.055282,-689.302399,11182.016703
1185.693836,-14322.172078,-0.000000,13020.156435
1185.694135,-16466.668432,3676.279464,15394.420255
1185.694433,-10952.249236,6969.613150,13556.280523
1185.694731,-6510.078217,5591.008351,12560.621502
1185.695029,3140.155375,5437.830040,12254.264880
1185.695345,11335.195014,5437.830040,8348.217949
1185.695644,16619.846743,3982.636086,7275.969772
1185.695942,15777.366033,-842.480710,7199.380617
1185.696240,8501.396260,-3906.046930,8118.450483
1185.696539,1531.783110,-5667.597507,8654.574571
1185.696837,-4978.295107,-5054.884263,9420.466126
1185.697136,-9497.055282,-4212.403552,11028.838392
1185.697434,-13020.156435,-1148.837332,13020.156435
1185.697748,-12407.443191,1072.248177,13632.869679
1185.698047,-9190.698660,5591.008351,13096.745590
1185.698346,-5744.186662,5131.473418,13403.102212
1185.698645,-76.589155,3676.279464,12101.086569
1185.698943,5361.240885,2450.852976,9114.109504
1185.699242,10262.946837,-2221.085509,8195.039638
1185.699541,13862.637145,-5514.419196,8195.039638
1185.699839,12484.032346,-6280.310751,7505.737239
1185.700151,7582.326394,-8271.628794,7199.380617
1185.700449,306.356622,-8424.807105,9573.644437
1185.700746,-7352.558928,-7046.202306,11794.729947
1185.701043,-10799.070925,-4671.938485,12713.799813
1185.701341,-10645.892614,-536.124088,12484.032346
1185.701638,-9343.876971,2297.674665,13709.458834
1185.701936,-6510.078217,3216.744531,13249.923901
1185.702233,1531.783110,3982.636086,12790.388968
1185.702533,7122.791461,6203.721595,10492.714303
1185.702832,12637.210657,3216.744531,8348.217949
1185.703131,13096.745590,1684.961421,8654.574571
1185.703430,10416.125148,612.713244,7429.148083
1185.703730,5514.419196,-995.659021,7275.969772
1185.704029,-2450.852976,-3140.155375,9420.466126
1185.704328,-8731.163727,-1914.728887,10416.125148
1185.704628,-13939.226301,-2680.620442,11947.908258
1185.704935,-14628.528700,-2067.907198,13862.637145
1185.705234,-11871.319102,306.356622,12713.799813
1185.705533,-9037.520349,1991.318043,12790.388968
1185.705832,-2757.209598,-76.589155,11182.016703
1185.706132,2680.620442,-76.589155,11028.838392
1185.706431,8807.752882,-3906.046930,10109.768526
1185.706730,14398.761234,-6586.667373,7122.791461
1185.707029,16543.257588,-4825.116796,8041.861327
1185.707350,13249.923901,-4671.938485,4212.403552
1185.707650,7122.791461,-3293.333686,6816.434839
1185.707950,-2910.387909,-0.000000,9650.233593
1185.708251,-7812.093861,-842.480710,9267.287815
1185.708551,-15547.598566,-2221.085509,13709.458834
1185.708851,-17462.327454,-1608.372265,16543.257588
1185.709152,-15088.063633,-1148.837332,15853.955188
1185.709452,-7505.737239,-229.767466,14705.117856
1185.709771,1991.318043,153.178311,12943.567279
1185.710065,11182.016703,1378.604799,9650.233593
1185.710360,18611.164786,1991.318043,7888.683016
1185.710655,20066.358741,2910.387909,6127.132440
1185.710950,14168.993767,1531.783110,5208.062574
1185.711245,6739.845684,459.534933,9267.287815
1185.711540,-2221.085509,765.891555,9037.520349
1185.711835,-9726.822748,919.069866,11105.427547
1185.712148,-17309.149143,-2527.442131,15088.063633
1185.712444,-18687.753942,153.178311,15853.955188
1185.712740,-13786.047990,3063.566220,13786.047990
1185.713036,-7352.558928,3676.279464,12560.621502
1185.713332,-1148.837332,3216.744531,12790.388968
1185.713628,7122.791461,3829.457775,9726.822748
1185.713924,15011.474478,2144.496354,7046.202306
1185.714220,15317.831100,-842.480710,5131.473418
1185.714520,11641.551636,-3446.511997,5667.597507
1185.714821,2986.977064,-5667.597507,8348.217949
1185.715121,-2221.085509,-5820.775818,8424.807105
1185.715422,-8424.807105,-5361.240885,11182.016703
1185.715723,-13020.156435,-6433.489062,12024.497413
1185.716023,-12713.799813,-3752.868619,14015.815456
1185.716324,-10339.535992,-1455.193954,13556.280523
1185.716625,-6510.078217,-2374.263820,12790.388968
1185.716932,-995.659021,-689.302399,12024.497413
1185.717229,5208.062574,-229.767466,9573.644437
1185.717526,13862.637145,-842.480710,7658.915550
1185.717823,16390.079277,-1608.372265,7582.326394
1185.718120,14245.582923,-2374.263820,7505.737239
1185.718416,10722.481770,-1608.372265,6433.489062
1185.718713,1991.318043,919.069866,9267.287815
1185.719010,-7122.791461,459.534933,11564.962480
1185.719318,-15700.776877,-1761.550576,14628.528700
1185.719617,-18381.397320,306.356622,17615.505765
1185.719916,-12254.264880,2757.209598,13709.458834
1185.720215,-7658.915550,2297.674665,11488.373325
1185.720514,-76.589155,2757.209598,12560.621502
1185.720813,8041.861327,3216.744531,10109.768526
1185.721112,14168.993767,2604.031287,7888.683016
1185.721411,16083.722655,919.069866,7275.969772
1185.721728,10569.303459,-1761.550576,7429.148083
1185.722026,3906.046930,-4365.581863,8501.396260
1185.722324,-2221.085509,-2833.798753,8654.574571
1185.722623,-6969.613150,-1455.193954,9956.590215
1185.722921,-10799.070925,-2221.085509,12101.086569
1185.723220,-13020.156435,306.356622,12790.388968
1185.723518,-9880.001059,3829.457775,12943.567279
1185.723816,-8731.163727,3369.922842,13020.156435
1185.724134,-4825.116796,459.534933,12101.086569
1185.724431,153.178311,1072.248177,10416.125148
1185.724729,7429.148083,-2374.263820,7965.272172
1185.725027,13096.745590,-2986.977064,7352.558928
1185.725325,14168.993767,-4901.705952,6969.613150
1185.725623,9803.411904,-6127.132440,7965.272172
1185.725921,3752.868619,-4671.938485,9573.644437
1185.726218,-1761.550576,-1302.015643,10109.768526
1185.726541,-10645.892614,-1608.372265,12101.086569
1185.726838,-13173.334746,-995.659021,12713.799813
1185.727135,-12866.978124,1838.139732,13939.226301
1185.727431,-9190.698660,1378.604799,13709.458834
1185.727728,-1914.728887,612.713244,11641.551636
1185.728025,6280.310751,1225.426488,10875.660081
1185.728322,14168.993767,-536.124088,9114.109504
1185.728618,17232.559987,-3140.155375,8960.931193
1185.728909,15317.831100,-1148.837332,8041.861327
1185.729207,12024.497413,-1455.193954,5973.954129
1185.729506,2297.674665,-2221.085509,8195.039638
1185.729805,-6969.613150,-1455.193954,10952.249236
1185.730104,-13786.047990,-2833.798753,11794.729947
1185.730402,-16696.435899,-1608.372265,14015.815456
1185.730701,-17615.505765,153.178311,14934.885322
1185.731000,-13020.156435,765.891555,12637.210657
1185.731307,-2910.387909,3676.279464,12101.086569
1185.731611,2374.263820,3523.101153,10109.768526
1185.731916,5667.597507,-2067.907198,10262.946837
1185.732221,12790.388968,-1608.372265,9114.109504
1185.732525,14245.582923,-2680.620442,6356.899906
1185.732830,11641.551636,-5514.419196,5820.775818
1185.733135,3599.690308,-6739.845684,8501.396260
1185.733439,-2221.085509,-2833.798753,10339.535992
1185.733723,-5284.651729,-1148.837332,9880.001059
1185.734025,-8271.628794,-229.767466,11641.551636
1185.734327,-11258.605858,1531.783110,14092.404612
1185.734629,-10492.714303,1225.426488,14781.707011
1185.734931,-4595.349330,2450.852976,11641.551636
1185.735233,-382.945777,2297.674665,12254.264880
1185.735535,5514.419196,765.891555,10722.481770
1185.735837,10416.125148,-0.000000,8807.752882
1185.736119,11641.551636,1684.961421,7735.504705
1185.736419,10569.303459,-0.000000,8501.396260
1185.736718,5667.597507,-1302.015643,9420.466126
1185.737018,612.713244,-382.945777,8807.752882
1185.737317,-4978.295107,-1148.837332,11028.838392
1185.737617,-9497.055282,-3752.868619,12943.567279
1185.737916,-11564.962480,-1455.193954,15088.063633
1185.738216,-10186.357681,-1608.372265,13709.458834
1185.738528,-5897.364973,-229.767466,11718.140791
1185.738825,-0.000000,919.069866,10952.249236
1185.739122,5820.775818,1072.248177,8884.342038
1185.739420,9650.233593,-382.945777,8118.450483
1185.739717,12024.497413,-76.589155,8501.396260
1185.740015,9267.287815,-995.659021,7429.148083
1185.740312,5820.775818,-1302.015643,8041.861327
1185.740610,-1761.550576,-1761.550576,9497.055282
1185.740895,-8271.628794,-1914.728887,11182.016703
1185.741197,-12560.621502,-3752.868619,13326.513057
1185.741499,-13173.334746,-1302.015643,14628.528700
1185.741801,-10492.714303,-995.659021,13862.637145
1185.742103,-4978.295107,-842.480710,11488.373325
1185.742404,-536.124088,-1148.837332,13096.745590
1185.742706,5973.954129,-76.589155,9650.233593
1185.743008,11335.195014,-382.945777,7735.504705
1185.743315,13096.745590,-76.589155,8041.861327
1185.743615,9650.233593,-0.000000,7122.791461
1185.743914,4518.760174,-842.480710,8654.574571
1185.744214,2144.496354,2450.852976,8807.752882
1185.744514,-3676.279464,459.534933,10109.768526
1185.744813,-9726.822748,-2527.442131,14092.404612
1185.745113,-10492.714303,-689.302399,14551.939545
1185.745413,-7122.791461,765.891555,12560.621502
1185.745709,-6663.256528,-1608.372265,12790.388968
1185.746008,-3063.566220,-2680.620442,12943.567279
1185.746307,3140.155375,765.891555,9267.287815
1185.746606,11794.729947,1378.604799,6356.899906
1185.746905,14015.815456,-76.589155,7582.326394
1185.747203,11335.195014,-1148.837332,8501.396260
1185.747502,6739.845684,153.178311,8118.450483
1185.747801,2833.798753,1225.426488,8118.450483
1185.748096,-5437.830040,153.178311,11641.551636
1185.748395,-12101.086569,-2374.263820,14168.993767
1185.748694,-18228.219009,-1455.193954,15088.063633
1185.748994,-15547.598566,459.534933,14322.172078
1185.749293,-10033.179370,-382.945777,13249.923901
1185.749592,-3676.279464,-842.480710,13249.923901
1185.749891,4365.581863,765.891555,8501.396260
1185.750191,13862.637145,-0.000000,6050.543284
1185.750503,16543.257588,-1761.550576,7275.969772
1185.750802,13709.458834,-3599.690308,8654.574571
1185.751102,7735.504705,-1914.728887,7735.504705
1185.751402,2297.674665,-1148.837332,8041.861327
1185.751702,-5284.651729,-2374.263820,10875.660081
1185.752002,-11564.962480,-1608.372265,13862.637145
1185.752302,-13326.513057,153.178311,15088.063633
1185.752602,-9573.644437,1684.961421,12407.443191
1185.752902,-7505.737239,153.178311,13020.156435
1185.753202,-1761.550576,306.356622,12790.388968
1185.753502,4748.527641,1378.604799,8807.752882
1185.753802,8654.574571,-1148.837332,7735.504705
1185.754102,12024.497413,-3446.511997,8654.574571
1185.754402,9956.590215,-4825.116796,7965.272172
1185.754702,7582.326394,-4901.705952,7429.148083
1185.755002,765.891555,-4059.225241,8654.574571
1185.755309,-5897.364973,-4671.938485,11335.195014
1185.755605,-9726.822748,-3599.690308,13173.334746
1185.755901,-8577.985416,153.178311,13249.923901
1185.756197,-7505.737239,2757.209598,12790.388968
1185.756493,-5897.364973,2604.031287,11794.729947
1185.756789,-0.000000,3829.457775,10262.946837
1185.757085,4365.581863,3216.744531,9650.233593
1185.757381,5667.597507,-0.000000,9880.001059
1185.757701,8960.931193,-3293.333686,9573.644437
1185.757998,8807.752882,-2986.977064,8807.752882
1185.758295,8348.217949,-3293.333686,8195.039638
1185.758592,3140.155375,-1455.193954,8654.574571
1185.758889,-2374.263820,1378.604799,9650.233593
1185.759186,-6203.721595,1684.961421,11028.838392
1185.759483,-10033.179370,3676.279464,13862.637145
1185.759780,-13326.513057,2910.387909,15164.652789
1185.760099,-13326.513057,612.713244,14475.350389
1185.760397,-6203.721595,919.069866,12943.567279
1185.760696,919.069866,-1455.193954,10875.660081
1185.760994,7735.504705,-2374.263820,9573.644437
1185.761292,13556.280523,-3599.690308,8501.396260
1185.761590,14245.582923,-2221.085509,7275.969772
1185.761888,12024.497413,-842.480710,6280.310751
1185.762187,5208.062574,-1455.193954,7735.504705
1185.762500,-3829.457775,-689.302399,9956.590215
1185.762797,-6969.613150,-689.302399,9803.411904
1185.763095,-9343.876971,-229.767466,11641.551636
1185.763393,-12254.264880,-2221.085509,13096.745590
1185.763691,-12866.978124,-3906.046930,14168.993767
1185.763989,-6969.613150,-3752.868619,14934.885322
1185.764287,2297.674665,-2067.907198,11794.729947
1185.764585,8654.574571,-1302.015643,10033.179370
1185.764850,13556.280523,-689.302399,8195.039638
1185.765156,16543.257588,-76.589155,4671.938485
1185.765461,12637.210657,-536.124088,4978.295107
1185.765767,3752.868619,-2527.442131,7429.148083
1185.766073,-6356.899906,-2067.907198,10262.946837
1185.766378,-11411.784169,-1455.193954,12560.621502
1185.766684,-14322.172078,-229.767466,12943.567279
1185.766990,-15088.063633,2604.031287,15394.420255
1185.767297,-13326.513057,2757.209598,15853.955188
1185.767594,-5897.364973,4135.814397,13709.458834
1185.767891,4748.527641,4288.992708,11182.016703
1185.768187,10875.660081,2297.674665,8654.574571
1185.768484,15471.009411,-1455.193954,6356.899906
1185.768781,16619.846743,-2221.085509,6356.899906
1185.769078,11794.729947,-2374.263820,6356.899906
1185.769375,6127.132440,-1761.550576,7812.093861
1185.769689,-2450.852976,-1302.015643,9573.644437
1185.769986,-11258.605858,-995.659021,12101.086569
1185.770284,-16466.668432,-2067.907198,14781.707011
1185.770581,-20602.482829,-995.659021,16849.614210
1185.770879,-16619.846743,-995.659021,15853.955188
1185.771176,-10033.179370,306.356622,13249.923901
1185.771473,1531.783110,1225.426488,10722.481770
1185.771771,10262.946837,2144.496354,8960.931193
1185.772087,17538.916609,-536.124088,7429.148083
1185.772387,20832.250296,-1455.193954,6127.132440
1185.772686,17845.273231,-2374.263820,4518.760174
1185.772985,9497.055282,-3599.690308,6969.613150
1185.773285,1072.248177,-2680.620442,8654.574571
1185.773584,-8118.450483,-3293.333686,10339.535992
1185.773883,-14628.528700,-5054.884263,14781.707011
1185.774182,-19530.234652,-2986.977064,16543.257588
1185.774500,-16619.846743,306.356622,15088.063633
1185.774798,-10033.179370,2144.496354,14628.528700
1185.775097,-0.000000,6050.543284,14015.815456
1185.775396,11028.838392,8195.039638,8118.450483
1185.775694,18457.986475,6969.613150,4901.705952
1185.775993,18304.808164,4135.814397,4901.705952
1185.776291,13709.458834,-1148.837332,6050.543284
1185.776590,3140.155375,-3293.333686,9420.466126
1185.776890,-1914.728887,-3293.333686,8960.931193
1185.777187,-9190.698660,-4825.116796,10033.179370
1185.777483,-17002.792521,-3906.046930,14934.885322
1185.777780,-20142.947896,-2374.263820,16390.079277
1185.778077,-16007.133499,1684.961421,15088.063633
1185.778373,-8731.163727,612.713244,13249.923901
1185.778670,-842.480710,459.534933,11794.729947
1185.778967,7046.202306,459.534933,8960.931193
1185.779297,15624.187722,-1761.550576,5973.954129
1185.779594,22287.444250,-2833.798753,7275.969772
1185.779891,17079.381676,-5820.775818,5514.419196
1185.780188,10262.946837,-4365.581863,6280.310751
1185.780485,1531.783110,-3752.868619,7735.504705
1185.780782,-8884.342038,-3752.868619,9956.590215
1185.781079,-16619.846743,-5514.419196,15547.598566
1185.781376,-21215.196073,-2680.620442,16849.614210
1185.781683,-16696.435899,1378.604799,14781.707011
1185.781983,-8424.807105,1684.961421,12713.799813
1185.782283,-382.945777,2910.387909,12407.443191
1185.782583,8041.861327,2297.674665,10952.249236
1185.782883,14551.939545,1378.604799,8807.752882
1185.783183,22746.979183,-76.589155,5820.775818
1185.783482,19453.645497,-1455.193954,5973.954129
1185.783782,11871.319102,-2833.798753,7582.326394
1185.784066,4518.760174,-995.659021,6816.434839
1185.784370,-6356.899906,1531.783110,9726.822748
1185.784675,-14781.707011,-1761.550576,13403.102212
1185.784980,-21215.196073,765.891555,14934.885322
1185.785285,-22364.033406,3369.922842,15700.776877
1185.785589,-16849.614210,2450.852976,14628.528700
1185.785894,-8271.628794,2604.031287,14322.172078
1185.786199,4518.760174,4748.527641,10875.660081
1185.786471,15624.187722,2757.209598,7582.326394
1185.786775,23053.335805,-1455.193954,6356.899906
1185.787079,21521.552695,-3446.511997,4365.581863
1185.787383,15011.474478,-4365.581863,5437.830040
1185.787687,4059.225241,-6586.667373,6739.845684
1185.787990,-6663.256528,-5208.062574,9573.644437
1185.788294,-17309.149143,-5514.419196,13096.745590
1185.788598,-22210.855095,-4901.705952,14781.707011
1185.788911,-23129.924961,-2680.620442,15547.598566
1185.789204,-17768.684076,-1455.193954,16849.614210
1185.789496,-5284.651729,1838.139732,13173.334746
1185.789789,7429.148083,4595.349330,9956.590215
1185.790081,18151.629853,3676.279464,7735.504705
1185.790374,24355.351449,153.178311,6127.132440
1185.790666,22900.157494,-842.480710,5054.884263
1185.790959,17385.738298,-3599.690308,5131.473418
1185.791273,5054.884263,-6586.667373,8960.931193
1185.791570,-3982.636086,-5667.597507,10722.481770
1185.791868,-11871.319102,-4825.116796,11335.195014
1185.792166,-18534.575631,-3906.046930,13326.513057
1185.792464,-21215.196073,-842.480710,17309.149143
1185.792762,-18994.110564,2144.496354,16160.311810
1185.793059,-7352.558928,5591.008351,12407.443191
1185.793357,612.713244,7582.326394,12637.210657
1185.793664,8960.931193,5131.473418,10875.660081
1185.793965,20219.537052,3063.566220,6280.310751
1185.794266,24661.708071,1684.961421,3140.155375
1185.794566,18611.164786,-2374.263820,5973.954129
1185.794867,8501.396260,-6739.845684,7199.380617
1185.795167,1225.426488,-2067.907198,6969.613150
1185.795468,-8884.342038,-3140.155375,9650.233593
1185.795768,-21062.017762,-8424.807105,14475.350389
1185.796065,-28184.809224,-5514.419196,17768.684076
1185.796365,-23589.459894,-1608.372265,17768.684076
1185.796664,-13632.869679,-382.945777,13403.102212
1185.796964,-2374.263820,1838.139732,12177.675724
1185.797263,9956.590215,3982.636086,10262.946837
1185.797563,24048.994827,3523.101153,6127.132440
1185.797862,30482.483889,4748.527641,3140.155375
1185.798162,23742.638205,-229.767466,5897.364973
1185.798457,10109.768526,-4059.225241,8960.931193
1185.798757,-0.000000,-2833.798753,8424.807105
1185.799057,-10645.892614,-2527.442131,10109.768526
1185.799357,-20602.482829,-7812.093861,13862.637145
1185.799657,-27112.561047,-5208.062574,17155.970832
1185.799957,-20908.839451,612.713244,15700.776877
1185.800257,-10799.070925,2450.852976,13403.102212
1185.800557,-1455.193954,2757.209598,14781.707011
1185.800858,8960.931193,3829.457775,10875.660081
1185.801157,22440.622561,4748.527641,6739.845684
1185.801456,26882.793580,2757.209598,2910.387909
1185.801755,23053.335805,-2833.798753,3676.279464
1185.802054,12637.210657,-4825.116796,8041.861327
1185.802353,4901.705952,-2680.620442,7505.737239
1185.802652,-6203.721595,-4212.403552,9037.520349
1185.802951,-17768.684076,-5514.419196,14934.885322
1185.803261,-26116.902025,-3906.046930,15547.598566
1185.803560,-25504.188781,-76.589155,16390.079277
1185.803859,-20449.304518,153.178311,14628.528700
1185.804159,-11947.908258,1225.426488,13403.102212
1185.804458,1072.248177,3982.636086,11488.373325
1185.804758,15624.187722,1991.318043,7735.504705
1185.805057,25580.777937,2144.496354,5208.062574
1185.805356,25121.243004,-229.767466,6280.310751
1185.805663,18457.986475,-995.659021,5514.419196
1185.805962,9803.411904,-995.659021,7505.737239
1185.806260,-4595.349330,-2833.798753,9956.590215
1185.806558,-14475.350389,-4825.116796,11794.729947
1185.806856,-23436.281583,-5973.954129,14475.350389
1185.807154,-24738.297226,-3293.333686,15853.955188
1185.807452,-18381.397320,-2067.907198,15930.544344
1185.807750,-7965.272172,-0.000000,12254.264880
1185.808066,2833.798753,2757.209598,11488.373325
1185.808364,9267.287815,1225.426488,10186.357681
1185.808662,18994.110564,2144.496354,7582.326394
1185.808960,22900.157494,765.891555,5361.240885
1185.809257,18917.521408,-3140.155375,4901.705952
1185.809555,12484.032346,-4518.760174,5897.364973
1185.809853,4212.403552,-1761.550576,6969.613150
1185.810151,-5591.008351,-6280.310751,11794.729947
1185.810465,-14628.528700,-5973.954129,13939.226301
1185.810764,-19989.769585,-1608.372265,14628.528700
1185.811062,-21215.196073,-1761.550576,15088.063633
1185.811361,-16696.435899,-2067.907198,14934.885322
1185.811660,-7812.093861,2144.496354,14858.296167
1185.811958,4365.581863,5284.651729,10569.303459
1185.812257,17385.738298,4825.116796,6969.613150
1185.812556,23359.692427,6050.543284,5667.597507
1185.812856,21291.785229,2910.387909,6356.899906
1185.813157,14551.939545,1378.604799,7888.683016
1185.813457,3293.333686,1991.318043,8807.752882
1185.813758,-7352.558928,-1302.015643,10569.303459
1185.814059,-13939.226301,-1148.837332,11641.551636
1185.814360,-22517.211717,-1761.550576,13249.923901
1185.814660,-21904.498473,-5973.954129,15394.420255
1185.814961,-15853.955188,-5361.240885,17002.792521
1185.815261,-3982.636086,-1455.193954,13862.637145
1185.815560,8195.039638,919.069866,9573.644437
1185.815859,15624.187722,2144.496354,8960.931193
1185.816158,20679.071985,3676.279464,5514.419196
1185.816458,17538.916609,1225.426488,4901.705952
1185.816757,8960.931193,-2374.263820,6816.434839
1185.817056,-76.589155,-3906.046930,8348.217949
1185.817355,-5744.186662,-5667.597507,10109.768526
1185.817662,-11718.140791,-7199.380617,11105.427547
1185.817962,-16696.435899,-5667.597507,14781.707011
1185.818261,-16696.435899,-4518.760174,15547.598566
1185.818560,-10339.535992,-382.945777,12407.443191
1185.818859,-2910.387909,1225.426488,11641.551636
1185.819158,2374.263820,612.713244,12637.210657
1185.819458,12943.567279,-1608.372265,9037.520349
1185.819757,20219.537052,153.178311,5897.364973
1185.820078,21674.731006,-2221.085509,5973.954129
1185.820375,13709.458834,-4059.225241,6663.256528
1185.820672,7046.202306,-229.767466,7352.558928
1185.820969,-1455.193954,765.891555,9726.822748
1185.821266,-10799.070925,-842.480710,12101.086569
1185.821563,-19683.412963,459.534933,15088.063633
1185.821860,-22210.855095,306.356622,15853.955188
1185.822157,-18381.397320,1072.248177,13862.637145
1185.822475,-8884.342038,1838.139732,13862.637145
1185.822774,-2221.085509,1531.783110,13403.102212
1185.823072,9420.466126,2604.031287,9880.001059
1185.823370,18764.343097,4595.349330,5437.830040
1185.823668,16543.257588,1991.318043,7275.969772
1185.823967,8807.752882,-2527.442131,8884.342038
1185.824265,4059.225241,-689.302399,8041.861327
1185.824563,-995.659021,-0.000000,8807.752882
1185.824841,-3523.101153,-4518.760174,9650.233593
1185.825142,-11105.427547,-5820.775818,13326.513057
1185.825443,-11105.427547,-3293.333686,12407.443191
1185.825744,-7812.093861,-3906.046930,13249.923901
1185.826044,-6050.543284,-2374.263820,13709.458834
1185.826345,-1455.193954,-689.302399,13556.280523
1185.826646,6893.023995,2297.674665,8884.342038
1185.826947,11871.319102,3829.457775,5361.240885
1185.827246,13556.280523,1531.783110,7275.969772
1185.827547,7122.791461,-2374.263820,9573.644437
1185.827848,8195.039638,-229.767466,8041.861327
1185.828149,3906.046930,-689.302399,7735.504705
1185.828449,-3523.101153,-3293.333686,12713.799813
1185.828750,-10645.892614,-2680.620442,13556.280523
1185.829051,-13479.691368,1378.604799,13249.923901
1185.829352,-13326.513057,-1302.015643,13096.745590
1185.829659,-13020.156435,-382.945777,14475.350389
1185.829955,-5437.830040,2604.031287,13403.102212
1185.830251,4212.403552,3982.636086,8884.342038
1185.830547,12330.854035,4135.814397,6816.434839
1185.830844,12484.032346,2757.209598,8195.039638
1185.831140,11028.838392,-1302.015643,7275.969772
1185.831436,9267.287815,1072.248177,6663.256528
1185.831732,1838.139732,-842.480710,10109.768526
1185.832040,-5591.008351,-4901.705952,12713.799813
1185.832339,-9726.822748,-3446.511997,11641.551636
1185.832638,-9880.001059,-995.659021,11182.016703
1185.832937,-12254.264880,-5361.240885,14168.993767
1185.833236,-9573.644437,-4518.760174,14168.993767
1185.833535,-3829.457775,-536.124088,11488.373325
1185.833834,2527.442131,-76.589155,10033.179370
1185.834133,5667.597507,-689.302399,9956.590215
1185.834449,8960.931193,2144.496354,8884.342038
1185.834748,9956.590215,612.713244,6510.078217
1185.835046,7888.683016,306.356622,5820.775818
1185.835344,5361.240885,459.534933,8041.861327
1185.835643,-76.589155,-2680.620442,11335.195014
1185.835941,-3063.566220,-4059.225241,11794.729947
1185.836240,-7658.915550,-4825.116796,13020.156435
1185.836538,-8884.342038,-7505.737239,13479.691368
1185.836855,-7658.915550,-4825.116796,11182.016703
1185.837153,-2450.852976,-382.945777,9573.644437
1185.837451,306.356622,306.356622,10492.714303
1185.837749,5667.597507,1531.783110,9650.233593
1185.838047,9114.109504,4288.992708,9114.109504
1185.838344,8960.931193,3982.636086,8195.039638
1185.838642,6893.023995,1531.783110,8960.931193
1185.838940,1991.318043,2604.031287,9573.644437
1185.839240,-3369.922842,306.356622,11488.373325
1185.839540,-5744.186662,765.891555,11947.908258
1185.839840,-9037.520349,919.069866,11794.729947
1185.840140,-9726.822748,459.534933,13632.869679
1185.840440,-6816.434839,-842.480710,13249.923901
1185.840740,-3676.279464,-0.000000,12254.264880
1185.841040,-0.000000,-1302.015643,10645.892614
1185.841340,6586.667373,-2067.907198,9573.644437
1185.841631,8195.039638,-536.124088,8424.807105
1185.841934,9650.233593,-1608.372265,7582.326394
1185.842237,7429.148083,-1608.372265,7582.326394
1185.842541,3599.690308,919.069866,9114.109504
1185.842844,765.891555,1991.318043,10875.660081
1185.843148,-6203.721595,-689.302399,12560.621502
1185.843451,-8271.628794,1378.604799,13403.102212
1185.843755,-9726.822748,459.534933,13326.513057
1185.844063,-6969.613150,-1914.728887,11335.195014
1185.844362,-4595.349330,-3140.155375,11182.016703
1185.844662,-1914.728887,-4059.225241,12713.799813
1185.844962,4518.760174,-4901.705952,10033.179370
1185.845262,8041.861327,-3599.690308,8041.861327
1185.845561,8807.752882,-3599.690308,7965.272172
1185.845861,6127.132440,-3293.333686,7812.093861
1185.846161,4059.225241,-382.945777,8807.752882
1185.846444,459.534933,-842.480710,10569.303459
1185.846747,-2757.209598,-2527.442131,10569.303459
1185.847050,-3982.636086,612.713244,10416.125148
1185.847353,-4748.527641,1225.426488,11488.373325
1185.847656,-3369.922842,-842.480710,11641.551636
1185.847959,-1455.193954,-0.000000,10645.892614
1185.848261,-1761.550576,-2221.085509,12254.264880
1185.848564,-0.000000,-3140.155375,12943.567279
1185.848844,2527.442131,-2221.085509,10186.357681
1185.849146,5514.419196,153.178311,8195.039638
1185.849448,5973.954129,-842.480710,6050.543284
1185.849750,3293.333686,1684.961421,6127.132440
1185.850052,-76.589155,2604.031287,10262.946837
1185.850354,-1608.372265,459.534933,12254.264880
1185.850657,-7352.558928,1378.604799,14628.528700
1185.850959,-6969.613150,3063.566220,14015.815456
1185.851248,-6816.434839,1991.318043,12101.086569
1185.851545,-4135.814397,612.713244,11641.551636
1185.851842,-536.124088,-0.000000,12101.086569
1185.852139,459.534933,-3293.333686,11182.016703
1185.852435,5667.597507,-1148.837332,9497.055282
1185.852732,9114.109504,-0.000000,7275.969772
1185.853029,9420.466126,-536.124088,6280.310751
1185.853325,2986.977064,-1148.837332,7888.683016
1185.853634,-2757.209598,-1302.015643,10645.892614
1185.853933,-3369.922842,-995.659021,12330.854035
1185.854231,-3676.279464,-229.767466,11028.838392
1185.854530,-2221.085509,2297.674665,12790.388968
1185.854828,-2067.907198,-76.589155,12713.799813
1185.855127,-995.659021,153.178311,11182.016703
1185.855425,1225.426488,-1148.837332,12024.497413
1185.855724,-382.945777,-4365.581863,11794.729947
1185.856031,306.356622,-3140.155375,11105.427547
1185.856330,4901.705952,-229.767466,7735.504705
1185.856629,6127.132440,-842.480710,5208.062574
1185.856927,4059.225241,-229.767466,7122.791461
1185.857226,-1455.193954,459.534933,8654.574571
1185.857525,-4135.814397,-842.480710,11182.016703
1185.857824,-4288.992708,1378.604799,12024.497413
1185.858123,-7505.737239,-76.589155,13786.047990
1185.858452,-8731.163727,-1608.372265,14934.885322
1185.858751,-3523.101153,-536.124088,10416.125148
1185.859049,2680.620442,459.534933,11182.016703
1185.859347,4365.581863,-4212.403552,10339.535992
1185.859645,6893.023995,-3140.155375,10186.357681
1185.859943,7735.504705,765.891555,7429.148083
1185.860241,7582.326394,-842.480710,3829.457775
1185.860540,-995.659021,-2986.977064,8501.396260
1185.860834,-7658.915550,-2374.263820,10645.892614
1185.861134,-11105.427547,-2986.977064,14015.815456
1185.861435,-11718.140791,-3599.690308,14322.172078
1185.861735,-7199.380617,-995.659021,12943.567279
1185.862035,-3216.744531,-995.659021,13556.280523
1185.862335,3599.690308,306.356622,9650.233593
1185.862635,6280.310751,306.356622,9956.590215
1185.862935,7735.504705,-2067.907198,10722.481770
1185.863304,9114.109504,-3140.155375,9573.644437
1185.863592,9267.287815,-689.302399,8118.450483
1185.863881,8195.039638,-382.945777,7199.380617
1185.864170,1531.783110,-2986.977064,6663.256528
1185.864459,-4442.171019,-995.659021,9267.287815
1185.864748,-7658.915550,-1302.015643,12637.210657
1185.865036,-10645.892614,-229.767466,14015.815456
1185.865325,-10492.714303,3523.101153,14475.350389
1185.865625,-8577.985416,2604.031287,14705.117856
1185.865925,-3982.636086,3063.566220,12943.567279
1185.866225,4059.225241,4825.116796,9803.411904
1185.866525,7046.202306,3829.457775,9573.644437
1185.866825,10262.946837,1531.783110,9573.644437
1185.867125,12637.210657,1225.426488,6280.310751
1185.867425,11794.729947,919.069866,5667.597507
1185.867725,6280.310751,-1302.015643,5208.062574
1185.868032,-3523.101153,-4212.403552,8960.931193
1185.868330,-11105.427547,-5667.597507,11641.551636
1185.868627,-13173.334746,-5208.062574,14015.815456
1185.868924,-15394.420255,-4518.760174,14475.350389
1185.869222,-11411.784169,-1148.837332,15241.241944
1185.869519,-5437.830040,1072.248177,12713.799813
1185.869816,3752.868619,3216.744531,10416.125148
1185.870114,8807.752882,3216.744531,10033.179370
1185.870430,11871.319102,919.069866,8807.752882
1185.870727,11871.319102,-382.945777,6356.899906
1185.871024,8041.861327,-2374.263820,7122.791461
1185.871321,2986.977064,-5973.954129,8424.807105
1185.871618,-6510.078217,-6739.845684,11335.195014
1185.871915,-11105.427547,-5208.062574,13403.102212
1185.872212,-9880.001059,-2527.442131,12101.086569
1185.872509,-10339.535992,-382.945777,12177.675724
1185.872828,-6663.256528,919.069866,13862.637145
1185.873126,-3829.457775,-76.589155,14628.528700
1185.873424,3446.511997,153.178311,11794.729947
1185.873723,12330.854035,-689.302399,9420.466126
1185.874021,13249.923901,-2067.907198,9114.109504
1185.874319,15624.187722,-1914.728887,6510.078217
1185.874617,11794.729947,-1761.550576,6280.310751
1185.874915,5361.240885,-3140.155375,7275.969772
1185.875228,-3523.101153,-3293.333686,8654.574571
1185.875527,-12866.978124,-1914.728887,11794.729947
1185.875825,-11718.140791,-0.000000,11335.195014
1185.876124,-14781.707011,1225.426488,13403.102212
1185.876422,-12866.978124,2450.852976,14628.528700
1185.876721,-5284.651729,4442.171019,11564.962480
1185.877019,765.891555,4595.349330,11182.016703
1185.877318,6280.310751,3369.922842,11641.551636
1185.877617,8654.574571,-229.767466,9650.233593
1185.877917,13249.923901,1684.961421,8348.217949
1185.878216,13709.458834,-76.589155,5361.240885
1185.878515,6127.132440,-2221.085509,6356.899906
1185.878814,-689.302399,-1455.193954,8501.396260
1185.879113,-8424.807105,-382.945777,9420.466126
1185.879413,-15088.063633,-2986.977064,14628.528700
1185.879712,-19530.234652,-1761.550576,16083.722655
1185.880019,-14245.582923,3216.744531,14551.939545
1185.880316,-7199.380617,3829.457775,12637.210657
1185.880613,-382.945777,2450.852976,12560.621502
1185.880910,5667.597507,919.069866,12790.388968
1185.881207,17232.559987,919.069866,8118.450483
1185.881504,22593.800872,459.534933,4595.349330
1185.881801,17998.451542,-4059.225241,6816.434839
1185.882097,10262.946837,-5208.062574,7429.148083
1185.882412,1991.318043,-4365.581863,7888.683016
1185.882715,-8424.807105,-6433.489062,9037.520349
1185.883019,-17615.505765,-8884.342038,13862.637145
1185.883322,-20602.482829,-4901.705952,16236.900966
1185.883626,-14322.172078,-842.480710,13326.513057
1185.883930,-9343.876971,-76.589155,14934.885322
1185.884233,-1455.193954,1072.248177,13403.102212
1185.884537,9803.411904,4748.527641,11335.195014
1185.884856,17998.451542,3829.457775,6050.543284
1185.885149,21674.731006,4135.814397,4518.760174
1185.885443,15471.009411,-689.302399,6280.310751
1185.885736,5820.775818,-3446.511997,7122.791461
1185.886030,919.069866,-2067.907198,7888.683016
1185.886323,-9880.001059,-3446.511997,9343.876971
1185.886617,-15394.420255,-4671.938485,11411.784169
1185.886911,-21062.017762,-3446.511997,15011.474478
1185.887228,-19836.591274,-76.589155,15241.241944
1185.887526,-16466.668432,-2221.085509,16007.133499
1185.887823,-9343.876971,-536.124088,14322.172078
1185.888121,3293.333686,2144.496354,10569.303459
1185.888419,15317.831100,1684.961421,8807.752882
1185.888717,20525.893674,459.534933,4748.527641
1185.889015,22134.265939,1225.426488,6969.613150
1185.889313,16390.079277,-689.302399,5897.364973
1185.889612,9267.287815,-842.480710,4595.349330
1185.889910,-2374.263820,-4212.403552,8960.931193
1185.890207,-14628.528700,-5361.240885,13249.923901
1185.890504,-20296.126207,-6280.310751,14015.815456
1185.890802,-19223.878030,-2374.263820,15547.598566
1185.891099,-17462.327454,-3599.690308,17002.792521
1185.891397,-8118.450483,-1455.193954,15700.776877
1185.891694,4748.527641,4288.992708,12713.799813
1185.892024,15471.009411,4135.814397,7812.093861
1185.892321,21521.552695,4135.814397,6816.434839
1185.892618,19453.645497,4442.171019,7505.737239
1185.892915,15624.187722,1991.318043,5820.775818
1185.893212,8654.574571,-536.124088,4748.527641
1185.893509,-3369.922842,-689.302399,7965.272172
1185.893806,-15547.598566,-7199.380617,12790.388968
1185.894103,-20908.839451,-5361.240885,13939.226301
1185.894411,-21062.017762,-995.659021,15164.652789
1185.894711,-17768.684076,-3140.155375,15471.009411
1185.895011,-7965.272172,-382.945777,14781.707011
1185.895311,4901.705952,5284.651729,12101.086569
1185.895610,18151.629853,5591.008351,6433.489062
1185.895910,21827.909317,1991.318043,5131.473418
1185.896210,16619.846743,-536.124088,7658.915550
1185.896510,10262.946837,-3446.511997,8271.628794
1185.896826,1684.961421,-5820.775818,7122.791461
1185.897126,-5131.473418,-5361.240885,8501.396260
1185.897425,-13479.691368,-8731.163727,11641.551636
1185.897724,-18381.397320,-7658.915550,14322.172078
1185.898023,-14934.885322,-2680.620442,13403.102212
1185.898322,-9497.055282,459.534933,14475.350389
1185.898621,-4442.171019,-1302.015643,14858.296167
1185.898921,5361.240885,2910.387909,11028.838392
1185.899238,13249.923901,4135.814397,8731.163727
1185.899535,16773.025054,1225.426488,7429.148083
1185.899833,14858.296167,-2067.907198,9267.287815
1185.900130,12484.032346,-2527.442131,8195.039638
1185.900428,9803.411904,-2680.620442,5284.651729
1185.900725,153.178311,-3140.155375,9267.287815
1185.901023,-10952.249236,-4212.403552,12713.799813
1185.901320,-16466.668432,-4212.403552,13020.156435
1185.901552,-18075.040698,765.891555,13709.458834
1185.901859,-15088.063633,2910.387909,13403.102212
1185.902167,-9497.055282,2910.387909,13786.047990
1185.902474,919.069866,5284.651729,11794.729947
1185.902782,9497.055282,4748.527641,10033.179370
1185.903089,17232.559987,1838.139732,8041.861327
1185.903397,21827.909317,2757.209598,6739.845684
1185.903704,17538.916609,-382.945777,4595.349330
1185.903990,8348.217949,-2680.620442,6816.434839
1185.904292,-4595.349330,-2986.977064,9343.876971
1185.904593,-13173.334746,-4518.760174,10262.946837
1185.904895,-19530.234652,-6127.132440,13249.923901
1185.905197,-22976.746650,-3599.690308,15700.776877
1185.905499,-18994.110564,-1914.728887,15547.598566
1185.905801,-7199.380617,612.713244,12790.388968
1185.906103,2833.798753,4748.527641,11335.195014
1185.906410,11794.729947,4595.349330,11947.908258
1185.906707,16619.846743,3063.566220,8195.039638
1185.907004,19453.645497,4748.527641,5667.597507
1185.907301,14168.993767,-842.480710,7275.969772
1185.907599,3446.511997,-5667.597507,9803.411904
1185.907896,1072.248177,-3293.333686,7275.969772
1185.908193,-4442.171019,-2833.798753,8195.039638
1185.908490,-12407.443191,-8424.807105,13403.102212
1185.908787,-15394.420255,-5361.240885,14781.707011
1185.909087,-11947.908258,-1148.837332,13939.226301
1185.909388,-8424.807105,-1608.372265,13709.458834
1185.909688,-3829.457775,306.356622,12407.443191
1185.909988,5208.062574,2450.852976,12101.086569
1185.910289,12024.497413,2144.496354,8041.861327
1185.910589,16773.025054,2450.852976,5667.597507
1185.910889,15011.474478,-0.000000,7275.969772
1185.911184,9114.109504,-1761.550576,8348.217949
1185.911484,3140.155375,-995.659021,9114.109504
1185.911784,-4595.349330,-689.302399,9573.644437
1185.912085,-12407.443191,-2986.977064,11794.729947
1185.912385,-17462.327454,-229.767466,13556.280523
1185.912685,-16313.490121,1838.139732,14322.172078
1185.912985,-11411.784169,3216.744531,13403.102212
1185.913285,-3369.922842,4825.116796,11028.838392
1185.913597,3752.868619,3982.636086,10875.660081
1185.913894,10569.303459,765.891555,10722.481770
1185.914192,13249.923901,-382.945777,8348.217949
1185.914489,12637.210657,153.178311,7965.272172
1185.914787,5667.597507,-2833.798753,6816.434839
1185.915084,2144.496354,-689.302399,8195.039638
1185.915382,-2910.387909,612.713244,9650.233593
1185.915679,-9880.001059,-536.124088,10416.125148
1185.915988,-13020.156435,-2067.907198,12713.799813
1185.916287,-11718.140791,-1608.372265,12407.443191
1185.916587,-8424.807105,-3446.511997,13632.869679
1185.916886,-4135.814397,-4059.225241,13020.156435
1185.917185,3140.155375,-536.124088,11794.729947
1185.917485,10875.660081,-382.945777,9343.876971
1185.917784,12330.854035,-1455.193954,7582.326394
1185.918084,12943.567279,765.891555,8195.039638
1185.918391,11182.016703,-0.000000,6663.256528
1185.918689,7046.202306,-0.000000,6356.899906
1185.918987,612.713244,-995.659021,8654.574571
1185.919285,-9037.520349,-5054.884263,11794.729947
1185.919583,-13479.691368,-6433.489062,13786.047990
1185.919881,-15241.241944,-1608.372265,14475.350389
1185.920179,-13173.334746,-1608.372265,16083.722655
1185.920477,-7658.915550,153.178311,13862.637145
1185.920794,2680.620442,6510.078217,10186.357681
1185.921092,8654.574571,4825.116796,9037.520349
1185.921391,10569.303459,2144.496354,9420.466126
1185.921689,12484.032346,3216.744531,8041.861327
1185.921988,11871.319102,1991.318043,6356.899906
1185.922286,7122.791461,-1914.728887,6969.613150
1185.922585,-536.124088,-2833.798753,10109.768526
1185.922883,-6203.721595,-4518.760174,9650.233593
1185.923197,-9880.001059,-4518.760174,10875.660081
1185.923496,-13632.869679,-2833.798753,13249.923901
1185.923795,-11871.319102,-3752.868619,14322.172078
1185.924093,-7658.915550,-2833.798753,13326.513057
1185.924392,-689.302399,306.356622,11564.962480
1185.924691,4059.225241,-995.659021,11871.319102
1185.924989,9267.287815,-995.659021,9037.520349
1185.925288,12943.567279,1838.139732,6586.667373
1185.925576,10416.125148,765.891555,6816.434839
1185.925876,5514.419196,-1455.193954,7199.380617
1185.926176,-689.302399,-689.302399,9267.287815
1185.926476,-5897.364973,-2374.263820,10262.946837
1185.926776,-9573.644437,-3293.333686,12101.086569
1185.927076,-12407.443191,-1302.015643,12560.621502
1185.927376,-9190.698660,-2067.907198,14015.815456
1185.927676,-6816.434839,-995.659021,12713.799813
1185.927976,306.356622,1072.248177,12254.264880
1185.928275,7275.969772,1838.139732,11488.373325
1185.928574,11488.373325,1684.961421,9573.644437
1185.928873,14245.582923,2450.852976,7658.915550
1185.929173,12484.032346,612.713244,5820.775818
1185.929472,6893.023995,-229.767466,8577.985416
1185.929771,2680.620442,-0.000000,7888.683016
1185.930071,-3216.744531,-1148.837332,9573.644437
1185.930378,-10186.357681,-4365.581863,11335.195014
1185.930677,-14781.707011,-2067.907198,14168.993767
1185.930976,-18534.575631,-2986.977064,17615.505765
1185.931275,-11411.784169,612.713244,12943.567279
1185.931575,-4288.992708,4135.814397,12407.443191
1185.931874,2297.674665,3216.744531,11028.838392
1185.932173,8348.217949,1684.961421,9956.590215
1185.932472,14168.993767,4978.295107,8195.039638
1185.932793,13096.745590,2757.209598,5973.954129
1185.933090,6127.132440,-3293.333686,8424.807105
1185.933387,1225.426488,-3140.155375,7888.683016
1185.933684,-6203.721595,-2986.977064,10109.768526
1185.933981,-11258.605858,-6127.132440,12943.567279
1185.934278,-15394.420255,-4901.705952,15241.241944
1185.934575,-8731.163727,-689.302399,14705.117856
1185.934872,-842.480710,2910.387909,9803.411904
1185.935174,2833.798753,3676.279464,10645.892614
1185.935475,5208.062574,1838.139732,11028.838392
1185.935777,9420.466126,306.356622,9114.109504
1185.936078,10722.481770,1072.248177,9190.698660
1185.936379,8348.217949,-1455.193954,6663.256528
1185.936681,5667.597507,-5054.884263,6816.434839
1185.936982,1531.783110,-2833.798753,7888.683016
1185.937284,-3369.922842,-4212.403552,8807.752882
1185.937597,-8884.342038,-7046.202306,13786.047990
1185.937893,-14092.404612,-4901.705952,14475.350389
1185.938189,-10645.892614,-1455.193954,13862.637145
1185.938485,-7122.791461,1225.426488,12484.032346
1185.938781,-1914.728887,3982.636086,11182.016703
1185.939077,4212.403552,3523.101153,11182.016703
1185.939373,10722.481770,4595.349330,9114.109504
1185.939669,12484.032346,3523.101153,8501.396260
1185.939968,12637.210657,1531.783110,6816.434839
1185.940269,7429.148083,153.178311,8118.450483
1185.940570,4365.581863,919.069866,6816.434839
1185.940871,-5437.830040,-2374.263820,9650.233593
1185.941171,-13020.156435,-3446.511997,13403.102212
1185.941472,-17309.149143,-2833.798753,13709.458834
1185.941773,-15241.241944,-76.589155,14628.528700
1185.942074,-9726.822748,-1761.550576,13249.923901
1185.942381,-3982.636086,-1608.372265,12943.567279
1185.942678,4212.403552,-229.767466,12254.264880
1185.942974,11641.551636,459.534933,7888.683016
1185.943271,13403.102212,-1608.372265,7582.326394
1185.943568,10262.946837,-1148.837332,9726.822748
1185.943865,7275.969772,-2680.620442,7122.791461
1185.944162,3293.333686,459.534933,5973.954129
1185.944459,-3369.922842,-1608.372265,7582.326394
1185.944773,-9497.055282,-4518.760174,12254.264880
1185.945076,-12866.978124,-4212.403552,14015.815456
1185.945378,-7658.915550,612.713244,12407.443191
1185.945681,-4442.171019,765.891555,14015.815456
1185.945984,-229.767466,153.178311,11411.784169
1185.946287,8807.752882,3829.457775,9573.644437
1185.946590,9267.287815,1838.139732,9267.287815
1185.946892,8960.931193,-995.659021,9573.644437
1185.947211,8654.574571,-2221.085509,9420.466126
1185.947507,6893.023995,-689.302399,6969.613150
1185.947803,4748.527641,-382.945777,6739.845684
1185.948099,-1455.193954,1991.318043,8195.039638
1185.948395,-10033.179370,-382.945777,11028.838392
1185.948691,-14322.172078,-1302.015643,14398.761234
1185.948987,-17921.862387,-76.589155,16236.900966
1185.949283,-11947.908258,1378.604799,14475.350389
1185.949584,-3216.744531,306.356622,10952.249236
1185.949881,2833.798753,-0.000000,11028.838392
1185.950179,12024.497413,153.178311,10109.768526
1185.950477,17692.094920,-995.659021,7505.737239
1185.950774,18151.629853,-229.767466,5361.240885
1185.951072,11794.729947,-1914.728887,6816.434839
1185.951370,2833.798753,-2986.977064,7352.558928
1185.951667,-6050.543284,-2833.798753,8041.861327
1185.951967,-14934.885322,-4671.938485,12713.799813
1185.952267,-17309.149143,-5667.597507,14628.528700
1185.952567,-15241.241944,-1761.550576,13556.280523
1185.952867,-9190.698660,765.891555,14015.815456
1185.953167,-4442.171019,-382.945777,13862.637145
1185.953467,-842.480710,-382.945777,14781.707011
1185.953767,6127.132440,1684.961421,11718.140791
1185.954067,12484.032346,1684.961421,7888.683016
1185.954358,15624.187722,3829.457775,4671.938485
1185.954656,12484.032346,919.069866,5437.830040
1185.954955,5054.884263,-3140.155375,7429.148083
1185.955254,1072.248177,-3599.690308,8654.574571
1185.955552,-4748.527641,-4671.938485,9880.001059
1185.955851,-10492.714303,-9343.876971,11641.551636
1185.956150,-15088.063633,-7965.272172,15853.955188
1185.956449,-12407.443191,-3446.511997,15853.955188
1185.956755,-4748.527641,-0.000000,12637.210657
1185.957060,2527.442131,4595.349330,10722.481770
1185.957365,9267.287815,6510.078217,10645.892614
1185.957670,14168.993767,5437.830040,8195.039638
1185.957974,17998.451542,6510.078217,4901.705952
1185.958279,11028.838392,3676.279464,7888.683016
1185.958584,4212.403552,-2374.263820,9114.109504
1185.958888,-1761.550576,-1608.372265,7352.558928
1185.959172,-9037.520349,-1608.372265,8884.342038
1185.959468,-17462.327454,-7199.380617,13939.226301
1185.959764,-23436.281583,-6280.310751,18228.219009
1185.960061,-13939.226301,1378.604799,14934.885322
1185.960357,-4595.349330,2604.031287,10722.481770
1185.960653,1378.604799,3216.744531,12254.264880
1185.960950,6280.310751,1378.604799,12407.443191
1185.961246,15624.187722,1378.604799,8654.574571
1185.961573,18764.343097,1991.318043,5131.473418
1185.961870,13709.458834,-2067.907198,5514.419196
1185.962166,8041.861327,-6586.667373,7965.272172
1185.962462,-0.000000,-4365.581863,7735.504705
1185.962758,-9726.822748,-3906.046930,9803.411904
1185.963054,-18075.040698,-6893.023995,15241.241944
1185.963351,-21444.963540,-2986.977064,16236.900966
1185.963647,-13020.156435,1378.604799,14398.761234
1185.964015,-7658.915550,3216.744531,12101.086569
1185.964307,919.069866,5284.651729,11182.016703
1185.964600,11028.838392,3369.922842,12101.086569
1185.964892,20219.537052,-382.945777,8807.752882
1185.965184,23359.692427,-229.767466,5973.954129
1185.965476,20066.358741,-2221.085509,4901.705952
1185.965768,8960.931193,-4518.760174,7735.504705
1185.966060,459.534933,-3599.690308,7888.683016
1185.966369,-11947.908258,-1761.550576,9956.590215
1185.966667,-21215.196073,-3293.333686,13709.458834
1185.966965,-25504.188781,-1608.372265,14934.885322
1185.967263,-19836.591274,2910.387909,15011.474478
1185.967561,-10492.714303,3523.101153,14015.815456
1185.967858,-995.659021,3829.457775,12177.675724
1185.968156,11488.373325,5284.651729,10262.946837
1185.968454,21368.374384,2910.387909,6663.256528
1185.968761,20985.428607,-995.659021,6663.256528
1185.969061,14551.939545,-2680.620442,9190.698660
1185.969362,5973.954129,-5208.062574,7199.380617
1185.969662,1378.604799,-3293.333686,6280.310751
1185.969963,-9343.876971,-4518.760174,9880.001059
1185.970264,-17309.149143,-4671.938485,12560.621502
1185.970564,-19989.769585,-3906.046930,13709.458834
1185.970865,-16619.846743,765.891555,14475.350389
1185.971161,-10952.249236,1378.604799,16083.722655
1185.971460,-3982.636086,1378.604799,14475.350389
1185.971759,5973.954129,6356.899906,11028.838392
1185.972058,14245.582923,3676.279464,8501.396260
1185.972357,16773.025054,919.069866,7888.683016
1185.972656,15011.474478,306.356622,8271.628794
1185.972955,12943.567279,-2680.620442,6510.078217
1185.973253,5973.954129,-2680.620442,6663.256528
1185.973548,-995.659021,-4671.938485,8424.807105
1185.973848,-9726.822748,-5514.419196,10875.660081
1185.974148,-13632.869679,-5054.884263,12407.443191
1185.974449,-16313.490121,-2527.442131,13173.334746
1185.974749,-15088.063633,-1148.837332,15853.955188
1185.975049,-5284.651729,1072.248177,12560.621502
1185.975349,4365.581863,5744.186662,11335.195014
1185.975649,12484.032346,4442.171019,10109.768526
1185.975937,15164.652789,2604.031287,8731.163727
1185.976238,15164.652789,3216.744531,8654.574571
1185.976539,13862.637145,1378.604799,7429.148083
1185.976840,5820.775818,-3140.155375,5514.419196
1185.977140,-4288.992708,-2374.263820,9267.287815
1185.977441,-13020.156435,-4059.225241,11028.838392
1185.977742,-16849.614210,-4518.760174,12101.086569
1185.978043,-19223.878030,-689.302399,14551.939545
1185.978342,-16007.133499,-0.000000,14322.172078
1185.978643,-8884.342038,-229.767466,13403.102212
1185.978943,1378.604799,4135.814397,12177.675724
1185.979243,9650.233593,612.713244,11641.551636
1185.979543,14551.939545,-0.000000,9267.287815
1185.979843,18994.110564,1378.604799,5361.240885
1185.980143,17538.916609,-689.302399,5514.419196
1185.980443,9420.466126,-4518.760174,5973.954129
1185.980750,-382.945777,-3293.333686,8960.931193
1185.981048,-8884.342038,-4365.581863,10416.125148
1185.981346,-15700.776877,-5208.062574,11028.838392
1185.981644,-21215.196073,-5054.884263,15394.420255
1185.981942,-19377.056341,-2527.442131,16390.079277
1185.982240,-11258.605858,-1148.837332,13556.280523
1185.982538,-1148.837332,3523.101153,12866.978124
1185.982837,9956.590215,3829.457775,11182.016703
1185.983153,18917.521408,1684.961421,9573.644437
1185.983451,26576.436958,4595.349330,5514.419196
1185.983750,24968.064693,4288.992708,3829.457775
1185.984048,12943.567279,-1761.550576,7582.326394
1185.984347,1225.426488,-2680.620442,8348.217949
1185.984645,-9573.644437,-2986.977064,10722.481770
1185.984943,-18687.753942,-5514.419196,11794.729947
1185.985242,-27112.561047,-5208.062574,14781.707011
1185.985556,-23436.281583,-2067.907198,17002.792521
1185.985856,-11411.784169,2604.031287,12790.388968
1185.986156,-3063.566220,4748.527641,13479.691368
1185.986455,7122.791461,4978.295107,12560.621502
1185.986755,15317.831100,4135.814397,8654.574571
1185.987054,20525.893674,4748.527641,6969.613150
1185.987354,18151.629853,153.178311,4748.527641
1185.987654,12484.032346,-2221.085509,6356.899906
1185.987942,3752.868619,-5361.240885,5514.419196
1185.988242,-7122.791461,-6433.489062,10416.125148
1185.988542,-14092.404612,-8884.342038,13096.745590
1185.988841,-20908.839451,-6433.489062,13709.458834
1185.989141,-19070.699719,-2221.085509,15930.544344
1185.989441,-13173.334746,-1148.837332,13403.102212
1185.989741,-6969.613150,2604.031287,12713.799813
1185.990041,3752.868619,4595.349330,12713.799813
1185.990341,12177.675724,3216.744531,8960.931193
1185.990640,19147.288875,2297.674665,7352.558928
1185.990939,20679.071985,-76.589155,5973.954129
1185.991238,17232.559987,-2527.442131,5820.775818
1185.991537,9114.109504,-3446.511997,6433.489062
1185.991837,-2450.852976,-5973.954129,9343.876971
1185.992136,-11871.319102,-7812.093861,13173.334746
1185.992435,-17921.862387,-4365.581863,13403.102212
1185.992742,-16696.435899,919.069866,13096.745590
1185.993039,-13786.047990,919.069866,13326.513057
1185.993336,-8577.985416,1838.139732,12790.388968
1185.993633,765.891555,3523.101153,13862.637145
1185.993930,10569.303459,3523.101153,9573.644437
1185.994227,17845.273231,3829.457775,6356.899906
1185.994524,16773.025054,765.891555,8654.574571
1185.994821,12177.675724,-2374.263820,8195.039638
1185.995135,7046.202306,-382.945777,6739.845684
1185.995438,-1455.193954,-536.124088,7812.093861
1185.995742,-8731.163727,-2986.977064,10875.660081
1185.996046,-16696.435899,-2680.620442,13249.923901
1185.996349,-17002.792521,459.534933,14628.528700
1185.996653,-15700.776877,153.178311,13862.637145
1185.996956,-9037.520349,459.534933,13632.869679
1185.997260,-2221.085509,1991.318043,15088.063633
1185.997533,8807.752882,2297.674665,10416.125148
1185.997833,14858.296167,1991.318043,6203.721595
1185.998133,17232.559987,459.534933,6663.256528
1185.998433,11794.729947,-3599.690308,8654.574571
1185.998733,7735.504705,-3446.511997,8884.342038
1185.999034,919.069866,-2374.263820,7429.148083
1185.999334,-5591.008351,-3906.046930,9650.233593
1185.999634,-13632.869679,-5361.240885,12407.443191
1185.999979,-17002.792521,-3752.868619,14015.815456
1186.000272,-13479.691368,-2067.907198,13709.458834
1186.000565,-7122.791461,-1148.837332,11182.016703
1186.000857,1378.604799,1684.961421,12713.799813
1186.001150,9114.109504,-0.000000,12407.443191
1186.001443,17232.559987,1225.426488,7735.504705
1186.001735,20219.537052,3676.279464,6969.613150
1186.002028,16390.079277,612.713244,5820.775818
1186.002328,5667.597507,-3140.155375,8041.861327
1186.002629,-2604.031287,-1914.728887,9267.287815
1186.002929,-9037.520349,-2833.798753,9267.287815
1186.003230,-18228.219009,-6586.667373,13403.102212
1186.003531,-20296.126207,-4671.938485,15777.366033
1186.003831,-13173.334746,-995.659021,15471.009411
1186.004132,-5131.473418,2910.387909,9880.001059
1186.004433,4748.527641,6203.721595,9956.590215
1186.004740,6893.023995,1531.783110,12407.443191
1186.005037,10262.946837,459.534933,10569.303459
1186.005334,13249.923901,2910.387909,8195.039638
1186.005631,11182.016703,1991.318043,5897.364973
1186.005928,4901.705952,-2374.263820,7888.683016
1186.006225,612.713244,-1455.193954,9114.109504
1186.006522,-5131.473418,-2067.907198,10569.303459
1186.006819,-5131.473418,-1455.193954,10109.768526
1186.007127,-13786.047990,-2680.620442,12407.443191
1186.007426,-14475.350389,-4365.581863,16390.079277
1186.007726,-10186.357681,-2833.798753,14015.815456
1186.008026,-2910.387909,2910.387909,11488.373325
1186.008326,4748.527641,2144.496354,10492.714303
1186.008626,7735.504705,1378.604799,10109.768526
1186.008925,12790.388968,2450.852976,9267.287815
1186.009225,16543.257588,3523.101153,5514.419196
1186.009542,13709.458834,1072.248177,4518.760174
1186.009841,5361.240885,-1761.550576,8424.807105
1186.010140,-3676.279464,-5361.240885,11182.016703
1186.010440,-8118.450483,-5514.419196,10952.249236
1186.010739,-13632.869679,-2986.977064,11411.784169
1186.011038,-16849.614210,-4671.938485,15394.420255
1186.011337,-13786.047990,-4671.938485,14475.350389
1186.011636,-4442.171019,3676.279464,13249.923901
1186.011902,5973.954129,7735.504705,10109.768526
1186.012207,9114.109504,4135.814397,8118.450483
1186.012511,11028.838392,4288.992708,9420.466126
1186.012816,12943.567279,5284.651729,7582.326394
1186.013121,10262.946837,1378.604799,5514.419196
1186.013426,3752.868619,-76.589155,7275.969772
1186.013731,-4748.527641,-4365.581863,10875.660081
1186.014036,-11105.427547,-7812.093861,12943.567279
1186.014326,-14628.528700,-5820.775818,14168.993767
1186.014625,-12713.799813,-3599.690308,14475.350389
1186.014924,-8118.450483,-2833.798753,12713.799813
1186.015223,-1148.837332,2144.496354,11794.729947
1186.015522,3446.511997,3982.636086,11335.195014
1186.015821,6127.132440,2910.387909,10262.946837
1186.016121,8654.574571,2604.031287,8195.039638
1186.016420,9956.590215,306.356622,7429.148083
1186.016733,9650.233593,-1608.372265,6050.543284
1186.017032,5667.597507,-2221.085509,6969.613150
1186.017331,-842.480710,-3446.511997,9573.644437
1186.017630,-6203.721595,-8424.807105,12254.264880
1186.017928,-11718.140791,-5973.954129,15317.831100
1186.018227,-10339.535992,-1148.837332,14015.815456
1186.018526,-7505.737239,-1148.837332,11488.373325
1186.018824,-3523.101153,1991.318043,11335.195014
1186.019131,1531.783110,4135.814397,11794.729947
1186.019429,7582.326394,2297.674665,9956.590215
1186.019726,13096.745590,6203.721595,6127.132440
1186.020023,12943.567279,4135.814397,5820.775818
1186.020320,5973.954129,-2680.620442,9573.644437
1186.020618,-382.945777,-3446.511997,10416.125148
1186.020915,-4825.116796,-2374.263820,10262.946837
1186.021212,-8731.163727,-4518.760174,10722.481770
1186.021509,-13786.047990,-5054.884263,14858.296167
1186.021810,-9343.876971,-536.124088,15241.241944
1186.022111,-2450.852976,2910.387909,10416.125148
1186.022412,2986.977064,5284.651729,8960.931193
1186.022713,7275.969772,3829.457775,12254.264880
1186.023014,9420.466126,2297.674665,9573.644437
1186.023315,7735.504705,1991.318043,6663.256528
1186.023616,4671.938485,306.356622,7735.504705
1186.023909,-1302.015643,-4518.760174,10186.357681
1186.024210,-2374.263820,-4365.581863,10109.768526
1186.024511,-5437.830040,-4212.403552,11028.838392
1186.024812,-7352.558928,-4901.705952,12254.264880
1186.025113,-7199.380617,-3752.868619,11641.551636
1186.025415,-6356.899906,-0.000000,13326.513057
1186.025716,-4442.171019,-536.124088,12713.799813
1186.026017,-842.480710,765.891555,9803.411904
1186.026305,4212.403552,2297.674665,10569.303459
1186.026606,5514.419196,-382.945777,9420.466126
1186.026907,7122.791461,-2833.798753,8577.985416
1186.027207,7429.148083,-536.124088,9573.644437
1186.027508,5054.884263,-3446.511997,6816.434839
1186.027809,4518.760174,-3906.046930,8041.861327
1186.028110,-1761.550576,-2680.620442,11028.838392
1186.028411,-4595.349330,-2986.977064,11182.016703
1186.028720,-7965.272172,-3599.690308,11794.729947
1186.029019,-5897.364973,919.069866,12407.443191
1186.029319,-1761.550576,2604.031287,12943.567279
1186.029618,306.356622,2297.674665,9267.287815
1186.029918,3140.155375,3982.636086,10416.125148
1186.030217,3752.868619,1531.783110,12713.799813
1186.030516,3140.155375,153.178311,10952.249236
1186.030816,4059.225241,3063.566220,10033.179370
1186.031123,1991.318043,1531.783110,6969.613150
1186.031422,-1761.550576,-1302.015643,7582.326394
1186.031722,-5131.473418,-995.659021,11182.016703
1186.032022,-6356.899906,-2221.085509,12713.799813
1186.032321,-5284.651729,-3752.868619,11564.962480
1186.032621,-3676.279464,-0.000000,11182.016703
1186.032921,-2604.031287,-995.659021,13326.513057
1186.033220,-229.767466,-3446.511997,11794.729947
1186.033517,4671.938485,2910.387909,10033.179370
1186.033814,5361.240885,2910.387909,9956.590215
1186.034112,3599.690308,-2067.907198,10109.768526
1186.034409,2527.442131,765.891555,10416.125148
1186.034706,4212.403552,2757.209598,7735.504705
1186.035004,2144.496354,-229.767466,5973.954129
1186.035301,-3523.101153,-1608.372265,9956.590215
1186.035599,-5744.186662,-3446.511997,11871.319102
1186.035913,-6356.899906,-4518.760174,10722.481770
1186.036212,-6663.256528,-842.480710,12560.621502
1186.036510,-6969.613150,-4059.225241,13709.458834
1186.036809,-2374.263820,-5514.419196,13709.458834
1186.037108,4671.938485,612.713244,10262.946837
1186.037406,10262.946837,3369.922842,7888.683016
1186.037705,9497.055282,-76.589155,8960.931193
1186.038004,8654.574571,1225.426488,7965.272172
1186.038292,7582.326394,1838.139732,8041.861327
1186.038592,2144.496354,-1761.550576,6280.310751
1186.038892,-5131.473418,-2221.085509,9956.590215
1186.039192,-10645.892614,-2986.977064,12560.621502
1186.039492,-12560.621502,-3293.333686,12943.567279
1186.039792,-11258.605858,459.534933,14628.528700
1186.040092,-6203.721595,1378.604799,12330.854035
1186.040392,-382.945777,306.356622,12407.443191
1186.040691,5667.597507,2604.031287,10952.249236
1186.040994,9267.287815,2297.674665,9497.055282
1186.041297,9114.109504,919.069866,9803.411904
1186.041599,7582.326394,-0.000000,9037.520349
1186.041902,4365.581863,306.356622,7735.504705
1186.042204,3140.155375,-1761.550576,6816.434839
1186.042507,-1302.015643,765.891555,7812.093861
1186.042810,-9573.644437,-1914.728887,11028.838392
1186.043117,-12254.264880,-6739.845684,13403.102212
1186.043413,-13632.869679,-2986.977064,15700.776877
1186.043708,-7352.558928,-995.659021,13709.458834
1186.044004,-1302.015643,-2374.263820,12254.264880
1186.044300,919.069866,-689.302399,11641.551636
1186.044596,8654.574571,1531.783110,9880.001059
1186.044892,11182.016703,1072.248177,9343.876971
1186.045188,10569.303459,3063.566220,7199.380617
1186.045492,9114.109504,-76.589155,6510.078217
1186.045792,765.891555,-4059.225241,9343.876971
1186.046092,-2374.263820,-2221.085509,9956.590215
1186.046393,-5897.364973,-1148.837332,9573.644437
1186.046693,-7505.737239,-2986.977064,11182.016703
1186.046993,-9190.698660,-2680.620442,13096.745590
1186.047293,-4825.116796,-1302.015643,14015.815456
1186.047594,-0.000000,612.713244,11182.016703
1186.047912,3906.046930,3063.566220,11488.373325
1186.048211,8960.931193,2910.387909,11028.838392
1186.048509,11641.551636,3216.744531,7429.148083
1186.048807,8807.752882,2604.031287,8195.039638
1186.049105,3752.868619,-0.000000,8654.574571
1186.049404,-3523.101153,-2833.798753,9650.233593
1186.049702,-6510.078217,-2833.798753,9956.590215
1186.050000,-11105.427547,-3599.690308,10339.535992
1186.050313,-13173.334746,-5973.954129,13709.458834
1186.050609,-12560.621502,-3906.046930,13709.458834
1186.050905,-6356.899906,919.069866,13556.280523
1186.051201,1531.783110,1378.604799,11794.729947
1186.051497,7429.148083,3369.922842,10033.179370
1186.051793,13709.458834,3523.101153,8960.931193
1186.052089,12943.567279,-0.000000,7658.915550
1186.052385,10109.768526,-1302.015643,9420.466126
1186.052685,4671.938485,-3293.333686,8348.217949
1186.052985,-689.302399,-4825.116796,8041.861327
1186.053285,-4978.295107,-5208.062574,10262.946837
1186.053585,-13479.691368,-5973.954129,11564.962480
1186.053885,-13173.334746,-5208.062574,12330.854035
1186.054185,-13020.156435,-3140.155375,13556.280523
1186.054485,-7505.737239,153.178311,13096.745590
1186.054785,1072.248177,612.713244,12407.443191
1186.055092,7888.683016,3982.636086,8118.450483
1186.055393,13096.745590,2297.674665,9267.287815
1186.055694,14015.815456,-2374.263820,11794.729947
1186.055995,14015.815456,-2527.442131,8807.752882
1186.056296,12177.675724,1838.139732,6280.310751
1186.056597,4748.527641,-382.945777,6127.132440
1186.056898,-5131.473418,-1455.193954,9726.822748
1186.057199,-13326.513057,-1148.837332,12407.443191
1186.057513,-15547.598566,-1148.837332,12254.264880
1186.057812,-14781.707011,765.891555,12254.264880
1186.058112,-11258.605858,2757.209598,13096.745590
1186.058411,-6663.256528,-382.945777,15700.776877
1186.058711,1072.248177,1378.604799,11794.729947
1186.059010,14245.582923,3829.457775,9573.644437
1186.059310,14858.296167,-0.000000,8501.396260
1186.059609,11182.016703,-4059.225241,9650.233593
1186.059957,8654.574571,-2833.798753,10875.660081
1186.060249,6739.845684,-2221.085509,5361.240885
1186.060542,153.178311,-2527.442131,6969.613150
1186.060835,-7505.737239,-3599.690308,11258.605858
1186.061127,-15394.420255,-6127.132440,12254.264880
1186.061420,-15547.598566,-2374.263820,12943.567279
1186.061713,-10799.070925,1378.604799,11794.729947
1186.062006,-7965.272172,-229.767466,13709.458834
1186.062243,-1148.837332,-1914.728887,13709.458834
1186.062560,6280.310751,1531.783110,11182.016703
1186.062878,12637.210657,1684.961421,8501.396260
1186.063195,14015.815456,-689.302399,8807.752882
1186.063513,10262.946837,-2374.263820,9267.287815
1186.063830,7582.326394,-3906.046930,8501.396260
1186.064147,3599.690308,-4212.403552,6969.613150
1186.064465,-3829.457775,-2986.977064,8271.628794
1186.064703,-8424.807105,-4059.225241,10109.768526
1186.065001,-12254.264880,-2986.977064,12254.264880
1186.065300,-9726.822748,2757.209598,13709.458834
1186.065599,-6969.613150,3676.279464,11488.373325
1186.065898,-1761.550576,2604.031287,12254.264880
1186.066197,1378.604799,4135.814397,12254.264880
1186.066495,6893.023995,2757.209598,10722.481770
1186.066794,8807.752882,-382.945777,9573.644437
1186.067101,9650.233593,153.178311,9420.466126
1186.067401,8041.861327,-1455.193954,8807.752882
1186.067702,3752.868619,-2833.798753,6356.899906
1186.068002,-1455.193954,-1148.837332,8654.574571
1186.068302,-8271.628794,-1914.728887,9956.590215
1186.068602,-10186.357681,-2067.907198,11028.838392
1186.068903,-12254.264880,459.534933,13403.102212
1186.069203,-10645.892614,153.178311,13020.156435
1186.069477,-7965.272172,-842.480710,14628.528700
1186.069778,-2221.085509,1531.783110,13632.869679
1186.070080,7582.326394,153.178311,12254.264880
1186.070381,12790.388968,-229.767466,9420.466126
1186.070682,15164.652789,1991.318043,7735.504705
1186.070984,12330.854035,-382.945777,8501.396260
1186.071285,4901.705952,-4059.225241,8424.807105
1186.071586,612.713244,-689.302399,7735.504705
1186.071870,-8118.450483,-1455.193954,9420.466126
1186.072176,-16849.614210,-7965.272172,11564.962480
1186.072482,-19070.699719,-6739.845684,16390.079277
1186.072788,-11105.427547,-2221.085509,13862.637145
1186.073094,-2910.387909,-1302.015643,10722.481770
1186.073401,765.891555,-689.302399,14015.815456
1186.073707,9650.233593,1531.783110,12101.086569
1186.074013,19147.288875,3523.101153,6969.613150
1186.074295,18304.808164,5437.830040,7429.148083
1186.074591,14858.296167,3523.101153,5054.884263
1186.074887,8195.039638,-76.589155,6280.310751
1186.075183,-0.000000,-229.767466,8424.807105
1186.075479,-10492.714303,-3752.868619,9573.644437
1186.075776,-18994.110564,-8118.450483,13403.102212
1186.076072,-21904.498473,-6433.489062,15164.652789
1186.076368,-16160.311810,-3293.333686,14934.885322
1186.076680,-9880.001059,-4059.225241,13862.637145
1186.076979,-0.000000,2604.031287,11794.729947
1186.077278,11641.551636,4825.116796,9956.590215
1186.077577,15471.009411,2450.852976,8654.574571
1186.077876,17998.451542,4135.814397,8041.861327
1186.078176,16390.079277,3829.457775,6127.132440
1186.078475,9420.466126,-229.767466,5744.186662
1186.078774,-382.945777,-1761.550576,9267.287815
1186.079088,-9880.001059,-4518.760174,11488.373325
1186.079386,-15241.241944,-5208.062574,12254.264880
1186.079683,-18228.219009,-4059.225241,13786.047990
1186.079981,-17768.684076,-3752.868619,15394.420255
1186.080279,-10645.892614,-2680.620442,14015.815456
1186.080577,-2067.907198,919.069866,12790.388968
1186.080875,6586.667373,3676.279464,10722.481770
1186.081172,14551.939545,1838.139732,8041.861327
1186.081480,15777.366033,1531.783110,8501.396260
1186.081779,16926.203365,2144.496354,6969.613150
1186.082079,10875.660081,-2527.442131,6816.434839
1186.082379,3293.333686,-2680.620442,8501.396260
1186.082679,-4748.527641,-4212.403552,10109.768526
1186.082978,-10799.070925,-5361.240885,10416.125148
1186.083278,-13020.156435,-1608.372265,12254.264880
1186.083578,-12713.799813,1378.604799,12943.567279
1186.083874,-10186.357681,765.891555,13709.458834
1186.084174,-3982.636086,5284.651729,12637.210657
1186.084474,3446.511997,6510.078217,10569.303459
1186.084773,8501.396260,1531.783110,9420.466126
1186.085073,7582.326394,-1148.837332,10645.892614
1186.085372,11794.729947,-995.659021,9420.466126
1186.085672,9956.590215,-2680.620442,6586.667373
1186.085972,5973.954129,-1761.550576,6969.613150
1186.086266,153.178311,-2527.442131,9573.644437
1186.086566,-6663.256528,-2986.977064,8884.342038
1186.086867,-11105.427547,-2527.442131,12637.210657
1186.087167,-13939.226301,612.713244,14475.350389
1186.087467,-10186.357681,-536.124088,11794.729947
1186.087767,-7352.558928,-1455.193954,12713.799813
1186.088067,-536.124088,-229.767466,12101.086569
1186.088367,5667.597507,-1761.550576,12560.621502
1186.088679,9650.233593,-1608.372265,9803.411904
1186.088979,14015.815456,612.713244,6663.256528
1186.089279,10875.660081,-3140.155375,8501.396260
1186.089579,4212.403552,-4212.403552,8960.931193
1186.089879,-1148.837332,153.178311,9267.287815
1186.090178,-7505.737239,-842.480710,7812.093861
1186.090478,-12713.799813,-3599.690308,9956.590215
1186.090778,-14934.885322,-3752.868619,13939.226301
1186.091087,-9726.822748,-2527.442131,11718.140791
1186.091383,-2067.907198,-1455.193954,11488.373325
1186.091678,2144.496354,-0.000000,12713.799813
1186.091973,7429.148083,-1761.550576,12024.497413
1186.092269,13249.923901,153.178311,9956.590215
1186.092564,14705.117856,3369.922842,7352.558928
1186.092860,12637.210657,1072.248177,5973.954129
1186.093155,4365.581863,459.534933,8654.574571
1186.093462,-842.480710,3982.636086,8654.574571
1186.093761,-4442.171019,2604.031287,9803.411904
1186.094060,-10645.892614,-76.589155,9114.109504
1186.094359,-11871.319102,2144.496354,12177.675724
1186.094658,-13326.513057,-1608.372265,14551.939545
1186.094956,-9880.001059,-4212.403552,14015.815456
1186.095255,-4595.349330,-76.589155,14858.296167
1186.095554,4059.225241,-382.945777,11028.838392
1186.095871,9420.466126,-1148.837332,9267.287815
1186.096172,13249.923901,1072.248177,8960.931193
1186.096474,14168.993767,2144.496354,6127.132440
1186.096776,8960.931193,459.534933,6816.434839
1186.097078,2297.674665,612.713244,10109.768526
1186.097379,-7122.791461,-3140.155375,10416.125148
1186.097681,-13632.869679,-5973.954129,12484.032346
1186.097983,-15700.776877,-1302.015643,13173.334746
1186.098297,-13020.156435,-2067.907198,11411.784169
1186.098594,-7812.093861,-842.480710,12790.388968
1186.098890,-1608.372265,765.891555,12943.567279
1186.099186,6739.845684,1684.961421,11028.838392
1186.099482,11335.195014,-229.767466,9267.287815
1186.099779,11641.551636,1072.248177,10262.946837
1186.100075,13862.637145,153.178311,6356.899906
1186.100371,9420.466126,-2374.263820,4978.295107
1186.100659,3599.690308,-3446.511997,8501.396260
1186.100959,-3982.636086,-5054.884263,9573.644437
1186.101259,-7505.737239,-6739.845684,11028.838392
1186.101559,-10799.070925,-3906.046930,12024.497413
1186.101859,-11564.962480,-3293.333686,13020.156435
1186.102159,-10186.357681,-3599.690308,13173.334746
1186.102459,-4825.116796,1531.783110,14015.815456
1186.102759,765.891555,4748.527641,10875.660081
1186.103058,7046.202306,2297.674665,8501.396260
1186.103357,10722.481770,4442.171019,9497.055282
1186.103657,15011.474478,3063.566220,5973.954129
1186.103956,12637.210657,919.069866,6280.310751
1186.104255,4671.938485,1531.783110,6586.667373
1186.104554,-1914.728887,-1608.372265,7735.504705
1186.104854,-10952.249236,-7505.737239,11947.908258
1186.105153,-16849.614210,-6739.845684,15547.598566
1186.105460,-16007.133499,-4671.938485,16160.311810
1186.105763,-11564.962480,-2527.442131,12790.388968
1186.106065,-4442.171019,765.891555,14628.528700
1186.106368,3752.868619,3982.636086,10416.125148
1186.106670,11488.373325,5284.651729,7658.915550
1186.106973,11871.319102,4978.295107,9190.698660
1186.107275,12484.032346,4288.992708,7582.326394
1186.107578,8807.752882,3216.744531,8118.450483
1186.107852,3293.333686,919.069866,7429.148083
1186.108156,-3369.922842,-3446.511997,9956.590215
1186.108460,-6969.613150,-6433.489062,11794.729947
1186.108763,-7965.272172,-4825.116796,11182.016703
1186.109067,-11105.427547,-4518.760174,14475.350389
1186.109370,-10033.179370,-5208.062574,15471.009411
1186.109674,-6356.899906,-1761.550576,14015.815456
1186.109978,2374.263820,3676.279464,10952.249236
1186.110216,8041.861327,3829.457775,8654.574571
1186.110521,10262.946837,3216.744531,8731.163727
1186.110826,13096.745590,4825.116796,7199.380617
1186.111131,15011.474478,3216.744531,5361.240885
1186.111436,9114.109504,1531.783110,6816.434839
1186.111741,-1302.015643,-3599.690308,8884.342038
1186.112046,-11411.784169,-8884.342038,12024.497413
1186.112351,-17768.684076,-7812.093861,15547.598566
1186.112669,-16313.490121,-4901.705952,14322.172078
1186.112967,-10645.892614,-3752.868619,11871.319102
1186.113266,-6050.543284,-536.124088,13326.513057
1186.113565,2986.977064,3063.566220,12407.443191
1186.113863,12484.032346,4978.295107,9267.287815
1186.114162,15011.474478,4978.295107,7812.093861
1186.114461,15624.187722,4748.527641,5208.062574
1186.114759,8041.861327,-536.124088,6280.310751
1186.115059,612.713244,-3906.046930,10875.660081
1186.115356,-7199.380617,-5054.884263,10416.125148
1186.115654,-12866.978124,-7965.272172,12407.443191
1186.115951,-13939.226301,-6433.489062,13249.923901
1186.116248,-12713.799813,-4212.403552,13786.047990
1186.116546,-6969.613150,-1455.193954,13556.280523
1186.116843,-995.659021,1684.961421,11488.373325
1186.117141,3752.868619,4978.295107,10875.660081
1186.117448,7046.202306,459.534933,10569.303459
1186.117749,8654.574571,306.356622,10033.179370
1186.118051,11641.551636,1225.426488,7582.326394
1186.118353,10569.303459,-76.589155,6663.256528
1186.118655,6739.845684,-3140.155375,6816.434839
1186.118956,2297.674665,-1914.728887,9573.644437
1186.119258,-5744.186662,-3599.690308,10722.481770
1186.119560,-10492.714303,-4518.760174,13326.513057
1186.119874,-12866.978124,1225.426488,12637.210657
1186.120174,-8118.450483,2450.852976,11794.729947
1186.120475,-4978.295107,2757.209598,13096.745590
1186.120775,459.534933,4288.992708,12101.086569
1186.121075,9267.287815,4442.171019,9190.698660
1186.121376,13249.923901,1225.426488,7046.202306
1186.121676,14245.582923,-76.589155,7582.326394
1186.121976,7582.326394,-2833.798753,9880.001059
1186.122215,1991.318043,-4212.403552,8731.163727
1186.122522,-2757.209598,-1761.550576,8807.752882
1186.122829,-9190.698660,-2221.085509,10262.946837
1186.123137,-16160.311810,-3752.868619,14168.993767
1186.123444,-15547.598566,306.356622,15624.187722
1186.123752,-10186.357681,765.891555,12407.443191
1186.124059,-3523.101153,306.356622,11947.908258
1186.124367,-0.000000,-689.302399,12790.388968
1186.124684,7275.969772,612.713244,10722.481770
1186.124978,9420.466126,-1148.837332,9956.590215
1186.125273,11335.195014,1378.604799,8960.931193
1186.125567,8960.931193,-842.480710,6510.078217
1186.125862,5820.775818,-1608.372265,7582.326394
1186.126156,-229.767466,-2833.798753,9573.644437
1186.126451,-3523.101153,-2833.798753,8960.931193
1186.126745,-8271.628794,-4059.225241,12254.264880
1186.127045,-9880.001059,-3599.690308,13173.334746
1186.127344,-6663.256528,-2986.977064,12101.086569
1186.127643,-6510.078217,-3752.868619,14322.172078
1186.127943,-2374.263820,-382.945777,14015.815456
1186.128242,5667.597507,1225.426488,9650.233593
1186.128541,9420.466126,1838.139732,8807.752882
1186.128840,12790.388968,4288.992708,7582.326394
1186.129139,10262.946837,3523.101153,7812.093861
1186.129453,6127.132440,3982.636086,6433.489062
1186.129752,1378.604799,5131.473418,6510.078217
1186.130050,-9037.520349,153.178311,9343.876971
1186.130349,-15700.776877,-4901.705952,12790.388968
1186.130648,-18075.040698,-4825.116796,15088.063633
1186.130947,-10952.249236,-3140.155375,12866.978124
1186.131245,-5437.830040,-5361.240885,12943.567279
1186.131544,2833.798753,-536.124088,12254.264880
1186.131851,13249.923901,2757.209598,9803.411904
1186.132148,16543.257588,3523.101153,7888.683016
1186.132446,17079.381676,5744.186662,8195.039638
1186.132743,10722.481770,2450.852976,6816.434839
1186.133040,5054.884263,3676.279464,6816.434839
1186.133337,-3369.922842,1838.139732,9956.590215
1186.133635,-13632.869679,-2067.907198,10262.946837
1186.133932,-18228.219009,-5667.597507,14245.582923
1186.134228,-18534.575631,-2986.977064,16236.900966
1186.134530,-10799.070925,-689.302399,13096.745590
1186.134831,-2221.085509,-995.659021,12254.264880
1186.135132,4059.225241,1072.248177,11411.784169
1186.135433,9956.590215,2297.674665,10722.481770
1186.135734,9267.287815,-2221.085509,10875.660081
1186.136035,9420.466126,-229.767466,8654.574571
1186.136336,11182.016703,-382.945777,6816.434839
1186.136631,7888.683016,1378.604799,5284.651729
1186.136932,1225.426488,-1608.372265,7735.504705
1186.137232,-5284.651729,-3293.333686,10262.946837
1186.137533,-9190.698660,-3446.511997,11564.962480
1186.137834,-9573.644437,-1914.728887,12407.443191
1186.138135,-10799.070925,-4212.403552,13249.923901
1186.138436,-8577.985416,-4901.705952,15011.474478
1186.138737,-229.767466,-689.302399,12790.388968
1186.139025,6280.310751,2757.209598,8807.752882
1186.139325,9803.411904,1378.604799,9420.466126
1186.139626,11794.729947,765.891555,9573.644437
1186.139927,12330.854035,5131.473418,7582.326394
1186.140228,10416.125148,3829.457775,4595.349330
1186.140529,1072.248177,612.713244,7122.791461
1186.140830,-8118.450483,-1761.550576,11564.962480
1186.141131,-14475.350389,-5667.597507,13249.923901
1186.141440,-16466.668432,-5973.954129,13403.102212
1186.141739,-15088.063633,-2833.798753,13173.334746
1186.142038,-9190.698660,-4825.116796,13632.869679
1186.142338,-3523.101153,-2680.620442,14015.815456
1186.142637,7122.791461,2757.209598,12560.621502
1186.142936,14398.761234,4825.116796,8195.039638
1186.143236,15624.187722,3063.566220,9420.466126
1186.143535,12330.854035,2910.387909,8041.861327
1186.143842,8654.574571,765.891555,6739.845684
1186.144142,306.356622,-1302.015643,8654.574571
1186.144442,-8118.450483,-2527.442131,9343.876971
1186.144741,-12866.978124,-5361.240885,11335.195014
1186.145041,-17155.970832,-5973.954129,14475.350389
1186.145341,-13020.156435,-1761.550576,13862.637145
1186.145640,-7658.915550,-536.124088,13403.102212
1186.145940,-2757.209598,-536.124088,12866.978124
1186.146236,8041.861327,3829.457775,10799.070925
1186.146534,12943.567279,4135.814397,8654.574571
1186.146831,16083.722655,1991.318043,8501.396260
1186.147129,16926.203365,1684.961421,7582.326394
1186.147426,13556.280523,1378.604799,6127.132440
1186.147723,7888.683016,-1302.015643,6816.434839
1186.148021,-2450.852976,-229.767466,7582.326394
1186.148318,-10033.179370,-2221.085509,9956.590215
1186.148633,-17155.970832,-4212.403552,12713.799813
1186.148931,-21368.374384,-2833.798753,16007.133499
1186.149230,-17768.684076,-1914.728887,16007.133499
1186.149529,-7658.915550,612.713244,11182.016703
1186.149827,2527.442131,3216.744531,11258.605858
1186.150126,9267.287815,-229.767466,11258.605858
1186.150425,14551.939545,-382.945777,9956.590215
1186.150723,18457.986475,3063.566220,7582.326394
1186.151035,15471.009411,306.356622,5208.062574
1186.151335,4518.760174,-4059.225241,8577.985416
1186.151635,-3829.457775,-2221.085509,10416.125148
1186.151935,-9190.698660,-2374.263820,8884.342038
1186.152235,-13326.513057,-2680.620442,10033.179370
1186.152535,-16696.435899,-995.659021,13403.102212
1186.152835,-15547.598566,-2527.442131,15700.776877
1186.153135,-8118.450483,-2527.442131,14628.528700
1186.153434,1531.783110,919.069866,13556.280523
1186.153734,8195.039638,-0.000000,11488.373325
1186.154033,11794.729947,-1148.837332,9803.411904
1186.154332,13709.458834,1838.139732,8731.163727
1186.154631,14398.761234,2450.852976,6127.132440
1186.154931,7888.683016,459.534933,7735.504705
1186.155230,-229.767466,919.069866,8348.217949
1186.155529,-5131.473418,765.891555,8884.342038
1186.155836,-11258.605858,-2680.620442,10109.768526
1186.156133,-14781.707011,-1302.015643,13020.156435
1186.156430,-12866.978124,-842.480710,14628.528700
1186.156726,-6203.721595,-842.480710,12254.264880
1186.157023,612.713244,-0.000000,11794.729947
1186.157319,7582.326394,765.891555,11028.838392
1186.157616,11641.551636,-1302.015643,10722.481770
1186.157913,14015.815456,1838.139732,8807.752882
1186.158233,14398.761234,2450.852976,6203.721595
1186.158530,8348.217949,-229.767466,7735.504705
1186.158827,919.069866,-382.945777,8501.396260
1186.159124,-5897.364973,1072.248177,9497.055282
1186.159421,-10645.892614,-1761.550576,9803.411904
1186.159718,-18840.932253,-2067.907198,13862.637145
1186.160015,-17462.327454,-2221.085509,15394.420255
1186.160312,-13786.047990,-3599.690308,14781.707011
1186.160631,-5284.651729,-1761.550576,14322.172078
1186.160929,4748.527641,-842.480710,12101.086569
1186.161227,11182.016703,-1914.728887,10416.125148
1186.161526,17079.381676,-76.589155,8654.574571
1186.161824,19606.823808,1225.426488,5820.775818
1186.162122,15164.652789,-0.000000,5208.062574
1186.162420,5054.884263,-842.480710,6969.613150
1186.162719,-4288.992708,-2221.085509,10033.179370
1186.163031,-13786.047990,-4901.705952,11411.784169
1186.163331,-18994.110564,-3140.155375,13403.102212
1186.163631,-18228.219009,-1148.837332,13096.745590
1186.163931,-16849.614210,-4212.403552,15471.009411
1186.164231,-7122.791461,-536.124088,15241.241944
1186.164531,4518.760174,3063.566220,11641.551636
1186.164831,14168.993767,3216.744531,8195.039638
1186.165131,18151.629853,1991.318043,8041.861327
1186.165448,20372.715363,3063.566220,6050.543284
1186.165744,18917.521408,2757.209598,5361.240885
1186.166039,11641.551636,1838.139732,4671.938485
1186.166335,-1761.550576,-2680.620442,8960.931193
1186.166631,-11411.784169,-6127.132440,11335.195014
1186.166927,-17615.505765,-4901.705952,12790.388968
1186.167222,-21062.017762,-3293.333686,14092.404612
1186.167518,-17768.684076,-3140.155375,15853.955188
1186.167825,-10645.892614,-842.480710,14781.707011
1186.168122,3599.690308,4748.527641,11641.551636
1186.168419,9803.411904,5131.473418,10186.357681
1186.168716,13709.458834,3676.279464,9420.466126
1186.169013,15624.187722,4595.349330,8807.752882
1186.169310,12943.567279,1838.139732,6663.256528
1186.169607,8041.861327,1072.248177,6969.613150
1186.169904,153.178311,-842.480710,8118.450483
1186.170218,-7965.272172,-4518.760174,10416.125148
1186.170520,-16007.133499,-8271.628794,13403.102212
1186.170823,-18075.040698,-5820.775818,14322.172078
1186.171126,-16849.614210,-4518.760174,14934.885322
1186.171429,-9497.055282,-2680.620442,12713.799813
1186.171731,-1761.550576,459.534933,13020.156435
1186.172034,8041.861327,1531.783110,11182.016703
1186.172337,15011.474478,2757.209598,9267.287815
1186.172655,17385.738298,4135.814397,7505.737239
1186.172951,16543.257588,765.891555,5820.775818
1186.173248,9497.055282,306.356622,6969.613150
1186.173544,919.069866,765.891555,8654.574571
1186.173840,-6050.543284,-2374.263820,8960.931193
1186.174136,-14245.582923,-4901.705952,12560.621502
1186.174432,-15547.598566,-3293.333686,12330.854035
1186.174728,-11105.427547,-1455.193954,12101.086569
1186.175045,-6510.078217,-2221.085509,11028.838392
1186.175340,-1608.372265,-229.767466,13403.102212
1186.175634,5054.884263,-1455.193954,12560.621502
1186.175929,11182.016703,1072.248177,9803.411904
1186.176223,16619.846743,3216.744531,6969.613150
1186.176518,13709.458834,459.534933,6510.078217
1186.176812,7046.202306,-536.124088,9267.287815
1186.177106,4748.527641,2450.852976,8577.985416
1186.177406,-2221.085509,2757.209598,7582.326394
1186.177706,-10799.070925,459.534933,10722.481770
1186.178007,-18228.219009,-1608.372265,14781.707011
1186.178307,-20142.947896,-2221.085509,15547.598566
1186.178607,-14092.404612,-995.659021,14168.993767
1186.178907,-6356.899906,1684.961421,10875.660081
1186.179207,612.713244,-1608.372265,12713.799813
1186.179507,7275.969772,-3599.690308,12560.621502
1186.179797,15471.009411,612.713244,8424.807105
1186.180100,19760.002119,1684.961421,5514.419196
1186.180402,17385.738298,-1302.015643,6280.310751
1186.180705,8348.217949,-536.124088,7965.272172
1186.181008,-229.767466,459.534933,8501.396260
1186.181310,-10645.892614,-2374.263820,11641.551636
1186.181613,-19683.412963,-1608.372265,14934.885322
1186.181915,-19377.056341,-995.659021,13709.458834
1186.182223,-15088.063633,919.069866,13709.458834
1186.182523,-7199.380617,1072.248177,13326.513057
1186.182823,1531.783110,1072.248177,12254.264880
1186.183123,10262.946837,-0.000000,9420.466126
1186.183423,18611.164786,1225.426488,6356.899906
1186.183723,19760.002119,-689.302399,5054.884263
1186.184022,15471.009411,-3293.333686,6356.899906
1186.184322,8807.752882,-3752.868619,6663.256528
1186.184606,306.356622,-3293.333686,9343.876971
1186.184908,-7658.915550,-6127.132440,10416.125148
1186.185211,-14628.528700,-3599.690308,12254.264880
1186.185514,-16619.846743,-1148.837332,13709.458834
1186.185817,-15241.241944,-1761.550576,13862.637145
1186.186120,-9726.822748,1225.426488,13479.691368
1186.186423,-3369.922842,3216.744531,13556.280523
1186.186725,4518.760174,2144.496354,11564.962480
1186.187007,11335.195014,3523.101153,10569.303459
1186.187310,16543.257588,4135.814397,6280.310751
1186.187613,16236.900966,1378.604799,5284.651729
1186.187915,8654.574571,-1148.837332,7275.969772
1186.188218,-382.945777,-3446.511997,9650.233593
1186.188521,-9726.822748,-7658.915550,12790.388968
1186.188823,-15241.241944,-7352.558928,12790.388968
1186.189126,-15547.598566,-6127.132440,13632.869679
1186.189416,-13326.513057,-6127.132440,14015.815456
1186.189715,-8884.342038,-3599.690308,14628.528700
1186.190014,612.713244,459.534933,12101.086569
1186.190313,8654.574571,4135.814397,8807.752882
1186.190612,10875.660081,5284.651729,9343.876971
1186.190912,13249.923901,5437.830040,6969.613150
1186.191211,10875.660081,4442.171019,6969.613150
1186.191510,8501.396260,3676.279464,7275.969772
1186.191796,1684.961421,-689.302399,6969.613150
1186.192098,-4442.171019,-4671.938485,11488.373325
1186.192399,-8271.628794,-5667.597507,12330.854035
1186.192701,-8271.628794,-4901.705952,11411.784169
1186.193003,-9497.055282,-5361.240885,13249.923901
1186.193305,-5591.008351,-4671.938485,12407.443191
1186.193606,-3063.566220,-382.945777,10875.660081
1186.193908,3446.511997,1531.783110,10109.768526
1186.194215,5054.884263,2757.209598,9880.001059
1186.194515,10109.768526,6203.721595,8041.861327
1186.194815,11794.729947,5284.651729,5973.954129
1186.195115,9956.590215,4442.171019,6356.899906
1186.195414,2680.620442,-536.124088,10875.660081
1186.195714,-5591.008351,-3752.868619,13709.458834
1186.196014,-9343.876971,-6280.310751,12177.675724
1186.196314,-12101.086569,-5514.419196,13096.745590
