#time,accel_x,accel_y,accel_z
1189.486532,153.178311,-689.302399,10492.714303
1189.486833,153.178311,-689.302399,10569.303459
1189.487133,-76.589155,-689.302399,10492.714303
1189.487433,306.356622,-842.480710,10722.481770
1189.487801,3752.868619,-689.302399,10186.357681
1189.488090,5514.419196,-382.945777,10109.768526
1189.488378,11028.838392,-0.000000,9650.233593
1189.488666,14168.993767,-229.767466,9956.590215
1189.488954,19606.823808,153.178311,9573.644437
1189.489242,21827.909317,919.069866,8960.931193
1189.489530,21827.909317,1378.604799,9267.287815
1189.489818,22440.622561,2604.031287,8654.574571
1189.490117,19606.823808,1991.318043,9343.876971
1189.490417,17692.094920,1072.248177,9573.644437
1189.490718,14705.117856,1225.426488,10033.179370
1189.491018,13862.637145,459.534933,11182.016703
1189.491318,17538.916609,612.713244,10492.714303
1189.491618,23895.816516,1531.783110,9420.466126
1189.491918,29563.414023,1991.318043,8041.861327
1189.492218,26576.436958,-1608.372265,8807.752882
1189.492525,20372.715363,-5054.884263,12254.264880
1189.492826,12024.497413,-6739.845684,16849.614210
1189.493128,9267.287815,-4518.760174,14705.117856
1189.493429,7122.791461,-842.480710,14015.815456
1189.493731,4212.403552,765.891555,12713.799813
1189.494032,459.534933,612.713244,14705.117856
1189.494334,1072.248177,1991.318043,17921.862387
1189.494635,8501.396260,4595.349330,13173.334746
1189.494952,17079.381676,7429.148083,9803.411904
1189.495245,24355.351449,6663.256528,7429.148083
1189.495539,27801.863446,2144.496354,7658.915550
1189.495833,30176.127267,-1761.550576,7582.326394
1189.496127,34618.298286,-4365.581863,6127.132440
1189.496420,35231.011530,-8424.807105,5514.419196
1189.496714,32550.391087,-10799.070925,6816.434839
1189.497008,26040.312870,-9880.001059,10492.714303
1189.497327,21981.087628,-4212.403552,11335.195014
1189.497625,19760.002119,1225.426488,12790.388968
1189.497923,15930.544344,4595.349330,12560.621502
1189.498221,7429.148083,6050.543284,12101.086569
1189.498519,-0.000000,5744.186662,13556.280523
1189.498818,-3369.922842,1991.318043,12254.264880
1189.499116,-1148.837332,-3446.511997,10875.660081
1189.499414,-382.945777,-6433.489062,11028.838392
1189.499763,1378.604799,-7352.558928,12177.675724
1189.500057,6586.667373,-3599.690308,11335.195014
1189.500350,15164.652789,3982.636086,6893.023995
1189.500643,18611.164786,6203.721595,6510.078217
1189.500937,14705.117856,4595.349330,8348.217949
1189.501230,9650.233593,2297.674665,11411.784169
1189.501523,5361.240885,-5820.775818,12713.799813
1189.501817,2986.977064,-9343.876971,11641.551636
1189.502116,-689.302399,-10339.535992,11718.140791
1189.502415,-2910.387909,-9880.001059,11488.373325
1189.502715,-3829.457775,-8271.628794,12101.086569
1189.503014,-2221.085509,-3446.511997,9803.411904
1189.503313,306.356622,3676.279464,8501.396260
1189.503612,2374.263820,4825.116796,9497.055282
1189.503912,4059.225241,6816.434839,10722.481770
1189.504211,6739.845684,7582.326394,12101.086569
1189.504518,8654.574571,8041.861327,11028.838392
1189.504815,13862.637145,7122.791461,6969.613150
1189.505112,12330.854035,4442.171019,7275.969772
1189.505409,3140.155375,-2067.907198,10186.357681
1189.505705,-7122.791461,-6586.667373,11488.373325
1189.506002,-15241.241944,-10799.070925,11641.551636
1189.506299,-18075.040698,-16236.900966,12254.264880
1189.506596,-16007.133499,-16849.614210,11641.551636
1189.506910,-13020.156435,-13249.923901,12254.264880
1189.507214,-3523.101153,-9343.876971,12484.032346
1189.507517,7429.148083,-995.659021,9114.109504
1189.507821,16390.079277,8654.574571,6433.489062
1189.508125,20219.537052,11947.908258,4901.705952
1189.508428,19760.002119,12866.978124,4365.581863
1189.508732,12330.854035,9420.466126,8041.861327
1189.509036,4518.760174,1531.783110,9343.876971
1189.509309,-689.302399,-995.659021,9650.233593
1189.509608,-5437.830040,-2067.907198,12254.264880
1189.509907,-6663.256528,-8424.807105,13096.745590
1189.510206,-7122.791461,-9190.698660,13326.513057
1189.510506,-8424.807105,-6280.310751,15394.420255
1189.510805,-4748.527641,-6586.667373,12790.388968
1189.511104,-2221.085509,-3293.333686,10109.768526
1189.511403,-536.124088,1838.139732,10645.892614
1189.511714,2297.674665,1531.783110,9114.109504
1189.512014,2374.263820,3369.922842,8807.752882
1189.512315,2680.620442,6510.078217,9650.233593
1189.512615,2374.263820,5131.473418,9114.109504
1189.512915,-689.302399,8041.861327,9420.466126
1189.513216,-3369.922842,9803.411904,12254.264880
1189.513516,-3676.279464,4442.171019,12713.799813
1189.513816,-3063.566220,3523.101153,12254.264880
1189.514116,-2221.085509,1225.426488,13556.280523
1189.514413,1225.426488,-3752.868619,12866.978124
1189.514709,2374.263820,-4901.705952,10416.125148
1189.515006,7735.504705,-4365.581863,10569.303459
1189.515303,9803.411904,-9343.876971,8654.574571
1189.515600,7582.326394,-7199.380617,8884.342038
1189.515896,7582.326394,-2374.263820,8348.217949
1189.516193,3752.868619,-536.124088,5820.775818
1189.516523,-2221.085509,4288.992708,7812.093861
1189.516820,-11564.962480,2604.031287,14628.528700
1189.517117,-16849.614210,-689.302399,18228.219009
1189.517414,-13020.156435,3523.101153,13939.226301
1189.517711,-5131.473418,6203.721595,12637.210657
1189.518008,-1302.015643,153.178311,11182.016703
1189.518305,3140.155375,153.178311,10109.768526
1189.518602,10416.125148,1072.248177,8348.217949
1189.518910,13249.923901,-5361.240885,4135.814397
1189.519210,7429.148083,-12177.675724,6280.310751
1189.519509,-1761.550576,-18228.219009,10875.660081
1189.519809,-3676.279464,-17155.970832,10109.768526
1189.520109,-3829.457775,-8271.628794,7352.558928
1189.520409,-2604.031287,-842.480710,9880.001059
1189.520709,-3676.279464,1531.783110,10875.660081
1189.521008,-4442.171019,10109.768526,13403.102212
1189.521292,-2604.031287,14245.582923,14551.939545
1189.521596,-1148.837332,12866.978124,10339.535992
1189.521901,2374.263820,10569.303459,10492.714303
1189.522206,5667.597507,6203.721595,10109.768526
1189.522511,9267.287815,-382.945777,7122.791461
1189.522816,9420.466126,-2833.798753,6510.078217
1189.523120,2986.977064,-8271.628794,9880.001059
1189.523425,-3676.279464,-13403.102212,11105.427547
1189.523690,-7505.737239,-8271.628794,10722.481770
1189.523993,-7352.558928,-4365.581863,10875.660081
1189.524295,-9573.644437,-2833.798753,11258.605858
1189.524598,-10645.892614,2604.031287,13173.334746
1189.524900,-7505.737239,7122.791461,15700.776877
1189.525203,-0.000000,6969.613150,11105.427547
1189.525505,5514.419196,11182.016703,10186.357681
1189.525808,9803.411904,8041.861327,8041.861327
1189.526084,10109.768526,1684.961421,6280.310751
1189.526387,7275.969772,-1148.837332,8501.396260
1189.526689,3906.046930,-7658.915550,10569.303459
1189.526992,-1302.015643,-10186.357681,9650.233593
1189.527294,-4748.527641,-8118.450483,10186.357681
1189.527596,-7352.558928,-8271.628794,13249.923901
1189.527899,-8424.807105,-9650.233593,13249.923901
1189.528201,-6663.256528,-2527.442131,13403.102212
1189.528487,-3676.279464,459.534933,12713.799813
1189.528787,765.891555,3063.566220,9420.466126
1189.529086,1072.248177,4288.992708,11564.962480
1189.529385,1991.318043,459.534933,13709.458834
1189.529685,6739.845684,-995.659021,8271.628794
1189.529984,10569.303459,919.069866,5973.954129
1189.530284,8960.931193,-3599.690308,7352.558928
1189.530583,3752.868619,-5667.597507,7582.326394
1189.530890,-229.767466,-0.000000,11028.838392
1189.531191,306.356622,-382.945777,10262.946837
1189.531491,-689.302399,-689.302399,8960.931193
1189.531792,-7199.380617,-3140.155375,15088.063633
1189.532092,-10033.179370,-4901.705952,15317.831100
1189.532393,-4442.171019,-1608.372265,11411.784169
1189.532693,1838.139732,3216.744531,9497.055282
1189.532994,4671.938485,1838.139732,7735.504705
1189.533290,5667.597507,153.178311,9114.109504
1189.533591,3906.046930,2910.387909,9267.287815
1189.533891,1838.139732,1378.604799,8348.217949
1189.534191,-1302.015643,765.891555,8348.217949
1189.534492,-4978.295107,2297.674665,11182.016703
1189.534792,-5591.008351,-76.589155,12254.264880
1189.535093,-5437.830040,459.534933,10492.714303
1189.535393,-5591.008351,-536.124088,14168.993767
1189.535688,-3523.101153,-3293.333686,13403.102212
1189.535989,612.713244,-1914.728887,11411.784169
1189.536289,5514.419196,1225.426488,10722.481770
1189.536590,8195.039638,-1608.372265,8654.574571
1189.536891,8348.217949,-995.659021,6739.845684
1189.537192,5208.062574,-995.659021,9267.287815
1189.537493,1991.318043,-4365.581863,8960.931193
1189.537794,-2910.387909,-3140.155375,9650.233593
1189.538082,-6816.434839,-689.302399,12484.032346
1189.538383,-8884.342038,-2680.620442,13632.869679
1189.538683,-9880.001059,1072.248177,13709.458834
1189.538984,-4442.171019,4442.171019,14015.815456
1189.539285,-1148.837332,3063.566220,12790.388968
1189.539586,4059.225241,3676.279464,10109.768526
1189.539887,9497.055282,4442.171019,9343.876971
1189.540187,12024.497413,-1914.728887,5820.775818
1189.540497,10109.768526,-5514.419196,6510.078217
1189.540796,5361.240885,-9190.698660,9497.055282
1189.541095,1072.248177,-10033.179370,8960.931193
1189.541395,-2757.209598,-5820.775818,8424.807105
1189.541694,-6663.256528,-995.659021,10416.125148
1189.541993,-15088.063633,-2833.798753,15011.474478
1189.542293,-15394.420255,612.713244,15853.955188
1189.542592,-9880.001059,6050.543284,14475.350389
1189.542899,-229.767466,5437.830040,8807.752882
1189.543199,4518.760174,5131.473418,8195.039638
1189.543499,8195.039638,3216.744531,9267.287815
1189.543798,13096.745590,-1455.193954,6433.489062
1189.544098,13556.280523,-3752.868619,6356.899906
1189.544398,5054.884263,-9343.876971,9343.876971
1189.544697,-3063.566220,-13862.637145,10722.481770
1189.544997,-6356.899906,-7812.093861,10339.535992
1189.545293,-6356.899906,-2374.263820,10722.481770
1189.545591,-7812.093861,-0.000000,12254.264880
1189.545888,-8118.450483,3523.101153,14168.993767
1189.546186,-8271.628794,7429.148083,16390.079277
1189.546483,-4135.814397,8041.861327,13862.637145
1189.546780,-382.945777,9420.466126,12101.086569
1189.547078,5973.954129,6203.721595,10262.946837
1189.547375,10262.946837,1991.318043,7429.148083
1189.547689,9956.590215,-229.767466,8348.217949
1189.547988,9497.055282,-1761.550576,9650.233593
1189.548287,4671.938485,-3906.046930,9267.287815
1189.548586,2374.263820,-1761.550576,9420.466126
1189.548884,-1608.372265,-1302.015643,11794.729947
1189.549183,-6663.256528,-1608.372265,11488.373325
1189.549482,-9497.055282,1838.139732,13249.923901
1189.549780,-9880.001059,2604.031287,14475.350389
1189.550068,-4442.171019,2297.674665,11335.195014
1189.550371,-1761.550576,4595.349330,11182.016703
1189.550673,5054.884263,3829.457775,10033.179370
1189.550976,8960.931193,1531.783110,7275.969772
1189.551278,11794.729947,1991.318043,5820.775818
1189.551581,7735.504705,-3599.690308,8195.039638
1189.551883,2374.263820,-6739.845684,7735.504705
1189.552186,-2910.387909,-4901.705952,9573.644437
1189.552485,-7199.380617,-7812.093861,11335.195014
1189.552785,-10952.249236,-8884.342038,11258.605858
1189.553084,-11411.784169,-4518.760174,13173.334746
1189.553383,-9343.876971,-4901.705952,14398.761234
1189.553682,-3369.922842,-3140.155375,12713.799813
1189.553982,2680.620442,3063.566220,9573.644437
1189.554281,8041.861327,3369.922842,8348.217949
1189.554580,9114.109504,-1914.728887,7429.148083
1189.554887,6280.310751,-2527.442131,10262.946837
1189.555186,4748.527641,-5667.597507,10722.481770
1189.555485,2527.442131,-6433.489062,7888.683016
1189.555785,-1302.015643,-2527.442131,10186.357681
1189.556084,-2604.031287,-1761.550576,11564.962480
1189.556383,-1761.550576,1072.248177,10262.946837
1189.556682,-2604.031287,4442.171019,12713.799813
1189.556982,-5131.473418,765.891555,14015.815456
1189.557302,-3523.101153,-0.000000,13786.047990
1189.557599,153.178311,4595.349330,12177.675724
1189.557896,5973.954129,3523.101153,8654.574571
1189.558193,6739.845684,-76.589155,8348.217949
1189.558490,5361.240885,-382.945777,9956.590215
1189.558788,2144.496354,-1914.728887,12254.264880
1189.559085,1072.248177,306.356622,8654.574571
1189.559382,-229.767466,4825.116796,9267.287815
1189.559700,-2067.907198,3216.744531,8960.931193
1189.559998,-4442.171019,4135.814397,10109.768526
1189.560297,-7505.737239,4288.992708,13249.923901
1189.560595,-8884.342038,-229.767466,13786.047990
1189.560893,-4595.349330,-0.000000,11488.373325
1189.561191,-0.000000,1991.318043,9956.590215
1189.561489,4901.705952,-689.302399,7888.683016
1189.561788,6280.310751,-3140.155375,6356.899906
1189.562101,4365.581863,-4212.403552,9573.644437
1189.562397,3906.046930,-6739.845684,9037.520349
1189.562693,1225.426488,-7812.093861,8577.985416
1189.562989,-3982.636086,-4518.760174,11641.551636
1189.563285,-4288.992708,-4901.705952,11411.784169
1189.563581,-4135.814397,153.178311,10645.892614
1189.563877,-4595.349330,1072.248177,13020.156435
1189.564173,-6050.543284,-2527.442131,14705.117856
1189.564472,-3063.566220,153.178311,12560.621502
1189.564773,4059.225241,3216.744531,10262.946837
1189.565074,9420.466126,-76.589155,6739.845684
1189.565375,9420.466126,-1608.372265,6663.256528
1189.565675,7122.791461,-4212.403552,10569.303459
1189.565976,3906.046930,-7505.737239,10109.768526
1189.566277,1531.783110,-3293.333686,9803.411904
1189.566578,459.534933,-1455.193954,10109.768526
1189.566885,-4442.171019,-4059.225241,11411.784169
1189.567182,-9190.698660,-2374.263820,14475.350389
1189.567479,-7965.272172,2297.674665,15394.420255
1189.567775,-4442.171019,2450.852976,12101.086569
1189.568072,-2910.387909,5744.186662,10109.768526
1189.568369,-382.945777,5591.008351,10262.946837
1189.568666,5208.062574,5591.008351,6816.434839
1189.568963,8348.217949,5284.651729,5054.884263
1189.569277,3752.868619,612.713244,8501.396260
1189.569574,-1914.728887,-7352.558928,10875.660081
1189.569870,-4135.814397,-4671.938485,10875.660081
1189.570166,-1608.372265,-1761.550576,9573.644437
1189.570463,-2450.852976,-3752.868619,9190.698660
1189.570759,-5437.830040,-2067.907198,12177.675724
1189.571056,-4288.992708,-382.945777,13632.869679
1189.571352,-1761.550576,919.069866,12254.264880
1189.571669,1072.248177,3676.279464,9956.590215
1189.571967,4748.527641,2757.209598,8654.574571
1189.572266,4901.705952,-76.589155,6816.434839
1189.572564,4518.760174,-2067.907198,8118.450483
1189.572863,-229.767466,-5054.884263,11182.016703
1189.573161,-3829.457775,-6739.845684,11718.140791
1189.573459,-3063.566220,-2680.620442,10952.249236
1189.573758,-3369.922842,-995.659021,11794.729947
1189.574075,-3063.566220,-382.945777,11028.838392
1189.574373,-2757.209598,2450.852976,12713.799813
1189.574671,-2221.085509,459.534933,13096.745590
1189.574968,2680.620442,-1302.015643,11488.373325
1189.575266,4518.760174,-0.000000,10569.303459
1189.575564,9420.466126,-689.302399,8960.931193
1189.575862,9497.055282,-1455.193954,6663.256528
1189.576160,7046.202306,-1761.550576,9114.109504
1189.576459,-382.945777,-5973.954129,11641.551636
1189.576759,-4825.116796,-3599.690308,11182.016703
1189.577059,-5437.830040,2757.209598,9956.590215
1189.577359,-6969.613150,919.069866,10875.660081
1189.577659,-9343.876971,612.713244,11564.962480
1189.577959,-6816.434839,2757.209598,13556.280523
1189.578260,-2757.209598,1838.139732,12713.799813
1189.578560,1378.604799,-0.000000,10033.179370
1189.578850,3599.690308,2604.031287,8195.039638
1189.579153,9114.109504,153.178311,5514.419196
1189.579455,5820.775818,-3293.333686,7122.791461
1189.579758,919.069866,-5667.597507,9803.411904
1189.580060,-1761.550576,-7046.202306,10952.249236
1189.580363,-4135.814397,-6280.310751,8807.752882
1189.580666,-4288.992708,-3293.333686,9880.001059
1189.580968,-5744.186662,-2680.620442,12254.264880
1189.581276,-2221.085509,1684.961421,10109.768526
1189.581576,-995.659021,4825.116796,12560.621502
1189.581876,-3523.101153,1684.961421,13709.458834
1189.582176,-3063.566220,2450.852976,13786.047990
1189.582476,2374.263820,7582.326394,9726.822748
1189.582775,8348.217949,5284.651729,6969.613150
1189.583075,5820.775818,-1148.837332,7735.504705
1189.583375,2986.977064,-2527.442131,11641.551636
1189.583658,1378.604799,-3140.155375,11641.551636
1189.583961,1225.426488,-2833.798753,9650.233593
1189.584264,-2374.263820,-2067.907198,12101.086569
1189.584567,-3523.101153,-2833.798753,12101.086569
1189.584870,-2221.085509,153.178311,11488.373325
1189.585173,-2604.031287,2757.209598,13479.691368
1189.585475,-1914.728887,765.891555,13249.923901
1189.585778,2680.620442,3063.566220,10109.768526
1189.586060,6739.845684,6510.078217,9267.287815
1189.586363,7582.326394,3982.636086,8654.574571
1189.586665,3599.690308,153.178311,6663.256528
1189.586968,-3523.101153,-842.480710,9956.590215
1189.587271,-6663.256528,-4825.116796,10262.946837
1189.587573,-8577.985416,-4825.116796,10569.303459
1189.587876,-10799.070925,-3599.690308,11488.373325
1189.588179,-9037.520349,-4518.760174,11182.016703
1189.588502,-7199.380617,-3446.511997,11718.140791
1189.588794,-1148.837332,-842.480710,12254.264880
1189.589085,1991.318043,-1148.837332,11641.551636
1189.589376,6893.023995,1072.248177,8348.217949
1189.589668,10109.768526,1531.783110,8041.861327
1189.589959,12484.032346,-842.480710,5208.062574
1189.590251,8501.396260,-2833.798753,5054.884263
1189.590542,1684.961421,-5054.884263,11028.838392
1189.590856,-3523.101153,-7199.380617,9803.411904
1189.591154,-9037.520349,-3752.868619,10416.125148
1189.591451,-8577.985416,-382.945777,10875.660081
1189.591749,-10033.179370,-1761.550576,11794.729947
1189.592047,-10186.357681,-1148.837332,16466.668432
1189.592345,-4748.527641,2450.852976,16083.722655
1189.592643,2833.798753,4442.171019,13403.102212
1189.592940,10109.768526,6663.256528,8960.931193
1189.593248,14168.993767,5591.008351,8195.039638
1189.593547,13249.923901,1378.604799,7352.558928
1189.593847,9956.590215,-0.000000,7275.969772
1189.594147,2986.977064,-3599.690308,10339.535992
1189.594446,-5744.186662,-6893.023995,11335.195014
1189.594746,-11718.140791,-2833.798753,11411.784169
1189.595046,-11871.319102,1072.248177,13096.745590
1189.595345,-12866.978124,1531.783110,13403.102212
1189.595642,-9726.822748,4748.527641,14322.172078
1189.595942,-4825.116796,7275.969772,14475.350389
1189.596241,1838.139732,6510.078217,12407.443191
1189.596541,10416.125148,7735.504705,8501.396260
1189.596840,13862.637145,4825.116796,6510.078217
1189.597140,14858.296167,-2067.907198,4518.760174
1189.597440,7582.326394,-6127.132440,6203.721595
1189.597739,-689.302399,-9726.822748,9650.233593
1189.598067,-6816.434839,-11564.962480,8884.342038
1189.598365,-11564.962480,-6893.023995,10722.481770
1189.598664,-14092.404612,-5054.884263,12943.567279
1189.598963,-11871.319102,-3599.690308,13249.923901
1189.599262,-10492.714303,1072.248177,15011.474478
1189.599561,-3982.636086,4595.349330,14322.172078
1189.599859,3599.690308,4748.527641,10033.179370
1189.600158,9420.466126,6663.256528,8501.396260
1189.600446,13709.458834,3523.101153,7812.093861
1189.600747,14551.939545,-1761.550576,5208.062574
1189.601048,11871.319102,-2680.620442,5973.954129
1189.601349,6433.489062,-8884.342038,8501.396260
1189.601649,-3216.744531,-11564.962480,10339.535992
1189.601950,-7812.093861,-5973.954129,11718.140791
1189.602251,-10186.357681,-4059.225241,12866.978124
1189.602552,-14322.172078,-4365.581863,14934.885322
1189.602861,-10952.249236,2144.496354,16849.614210
1189.603159,-5131.473418,4748.527641,15088.063633
1189.603458,5208.062574,7582.326394,10262.946837
1189.603757,11794.729947,8654.574571,8654.574571
1189.604056,16390.079277,6969.613150,6663.256528
1189.604354,15777.366033,2297.674665,4595.349330
1189.604653,6893.023995,-842.480710,8501.396260
1189.604952,306.356622,-4825.116796,10416.125148
1189.605259,-7122.791461,-6893.023995,9190.698660
1189.605557,-13020.156435,-4518.760174,11258.605858
1189.605855,-17309.149143,-6127.132440,14628.528700
1189.606153,-15088.063633,-4901.705952,13556.280523
1189.606451,-9726.822748,919.069866,14475.350389
1189.606749,-4825.116796,1225.426488,14322.172078
1189.607047,2527.442131,919.069866,11488.373325
1189.607346,10722.481770,6663.256528,7965.272172
1189.607662,17998.451542,4825.116796,4901.705952
1189.607960,15317.831100,-689.302399,4595.349330
1189.608259,9803.411904,-2221.085509,8041.861327
1189.608557,5208.062574,-4365.581863,9573.644437
1189.608856,-3216.744531,-4518.760174,7888.683016
1189.609154,-9190.698660,-1761.550576,11028.838392
1189.609452,-14475.350389,-4518.760174,14628.528700
1189.609751,-15241.241944,-3446.511997,15394.420255
1189.610065,-11871.319102,919.069866,16773.025054
1189.610364,-4978.295107,1531.783110,14781.707011
1189.610663,4212.403552,2757.209598,10875.660081
1189.610961,13096.745590,4978.295107,9114.109504
1189.611260,19300.467186,3982.636086,6280.310751
1189.611559,21368.374384,153.178311,3829.457775
1189.611858,13096.745590,-1148.837332,6280.310751
1189.612156,2374.263820,-6280.310751,9650.233593
1189.612444,-7965.272172,-6433.489062,9803.411904
1189.612744,-13326.513057,-3599.690308,12943.567279
1189.613044,-18075.040698,-3599.690308,14015.815456
1189.613344,-17615.505765,-1148.837332,14781.707011
1189.613644,-14628.528700,3982.636086,17155.970832
1189.613944,-6663.256528,3523.101153,14628.528700
1189.614244,4901.705952,7275.969772,9956.590215
1189.614544,11641.551636,7122.791461,8424.807105
1189.614843,16773.025054,612.713244,5973.954129
1189.615142,16773.025054,-3293.333686,3982.636086
1189.615442,8960.931193,-7658.915550,7505.737239
1189.615741,2144.496354,-12484.032346,9037.520349
1189.616040,-7122.791461,-9343.876971,10262.946837
1189.616339,-9190.698660,-4825.116796,11028.838392
1189.616639,-10799.070925,-2986.977064,10722.481770
1189.616938,-11871.319102,1991.318043,13479.691368
1189.617245,-9343.876971,5897.364973,14322.172078
1189.617544,-4748.527641,4288.992708,14168.993767
1189.617843,-0.000000,5131.473418,13173.334746
1189.618143,7888.683016,6816.434839,10416.125148
1189.618442,15164.652789,3063.566220,5284.651729
1189.618741,17232.559987,-229.767466,5284.651729
1189.619040,12790.388968,-4518.760174,8118.450483
1189.619340,5667.597507,-8424.807105,6969.613150
1189.619660,-3216.744531,-5820.775818,9573.644437
1189.619957,-10339.535992,-5514.419196,12637.210657
1189.620254,-15394.420255,-6893.023995,13862.637145
1189.620551,-17002.792521,-382.945777,15624.187722
1189.620848,-11718.140791,3216.744531,15930.544344
1189.621145,-6203.721595,5131.473418,15088.063633
1189.621442,4901.705952,8348.217949,11488.373325
1189.621739,13403.102212,10569.303459,9573.644437
1189.622041,20525.893674,5131.473418,5208.062574
1189.622341,17079.381676,2910.387909,4288.992708
1189.622640,9420.466126,-2067.907198,7275.969772
1189.622939,-1914.728887,-8731.163727,8041.861327
1189.623238,-8118.450483,-7658.915550,9726.822748
1189.623538,-11411.784169,-6586.667373,11641.551636
1189.623837,-13632.869679,-7352.558928,11794.729947
1189.624136,-16313.490121,-2986.977064,15700.776877
1189.624453,-13632.869679,-995.659021,17309.149143
1189.624749,-5897.364973,1838.139732,14858.296167
1189.625044,2680.620442,5131.473418,11028.838392
1189.625339,10109.768526,5284.651729,9267.287815
1189.625635,14015.815456,-0.000000,5514.419196
1189.625930,14398.761234,-536.124088,6127.132440
1189.626225,12790.388968,-4901.705952,6969.613150
1189.626520,6893.023995,-7199.380617,6127.132440
1189.626820,-995.659021,-4365.581863,9420.466126
1189.627121,-5897.364973,-3293.333686,10186.357681
1189.627422,-10799.070925,-4825.116796,10569.303459
1189.627722,-14245.582923,-1761.550576,15088.063633
1189.628023,-14322.172078,-2833.798753,17615.505765
1189.628324,-7505.737239,-536.124088,14322.172078
1189.628625,1072.248177,3829.457775,12024.497413
1189.628925,10569.303459,4442.171019,9420.466126
1189.629232,16083.722655,1991.318043,6356.899906
1189.629529,16236.900966,3063.566220,5284.651729
1189.629826,13709.458834,-76.589155,6127.132440
1189.630123,2527.442131,-4059.225241,6816.434839
1189.630420,-4595.349330,-1148.837332,10109.768526
1189.630717,-10186.357681,-2221.085509,11947.908258
1189.631014,-13173.334746,-2833.798753,12560.621502
1189.631311,-15547.598566,612.713244,15700.776877
1189.631619,-14781.707011,-382.945777,15930.544344
1189.631919,-8577.985416,2910.387909,13862.637145
1189.632218,-536.124088,6203.721595,12177.675724
1189.632518,7429.148083,3829.457775,8654.574571
1189.632818,11182.016703,306.356622,5820.775818
1189.633118,11488.373325,-229.767466,6893.023995
1189.633418,9803.411904,-5514.419196,7275.969772
1189.633718,3906.046930,-8271.628794,7888.683016
1189.634034,-995.659021,-4059.225241,10875.660081
1189.634333,-5131.473418,-3446.511997,11488.373325
1189.634633,-6356.899906,-1148.837332,10875.660081
1189.634932,-10339.535992,2910.387909,14628.528700
1189.635231,-10799.070925,2450.852976,14934.885322
1189.635530,-7199.380617,3523.101153,13709.458834
1189.635829,-2910.387909,4748.527641,13403.102212
1189.636129,5820.775818,4135.814397,9726.822748
1189.636446,14551.939545,3523.101153,4901.705952
1189.636744,15624.187722,1684.961421,4518.760174
1189.637041,10875.660081,-5208.062574,7888.683016
1189.637339,4748.527641,-7812.093861,8577.985416
1189.637637,-76.589155,-4518.760174,10109.768526
1189.637935,-4135.814397,-6586.667373,11488.373325
1189.638233,-10645.892614,-4212.403552,12101.086569
1189.638530,-11947.908258,1378.604799,15700.776877
1189.638807,-11105.427547,1838.139732,13173.334746
1189.639109,-7505.737239,2910.387909,11794.729947
1189.639412,-3829.457775,4825.116796,13326.513057
1189.639714,4365.581863,3523.101153,9420.466126
1189.640017,9650.233593,1378.604799,6050.543284
1189.640319,11641.551636,306.356622,6280.310751
1189.640622,10262.946837,-4671.938485,7888.683016
1189.640924,4748.527641,-6280.310751,7582.326394
1189.641210,-229.767466,-4212.403552,9573.644437
1189.641512,-8271.628794,-6586.667373,12254.264880
1189.641814,-12713.799813,-3446.511997,13173.334746
1189.642116,-11871.319102,-1608.372265,14245.582923
1189.642418,-10952.249236,-382.945777,13709.458834
1189.642719,-5744.186662,1378.604799,11718.140791
1189.643021,306.356622,3982.636086,11335.195014
1189.643323,7888.683016,1378.604799,9037.520349
1189.643630,11794.729947,-689.302399,8654.574571
1189.643927,10569.303459,-2527.442131,8654.574571
1189.644224,9803.411904,-4671.938485,7122.791461
1189.644522,4059.225241,-3140.155375,8041.861327
1189.644819,-1148.837332,-1761.550576,10416.125148
1189.645116,-4288.992708,-2374.263820,9956.590215
1189.645413,-7505.737239,1378.604799,12407.443191
1189.645711,-9190.698660,2757.209598,15088.063633
1189.646007,-8577.985416,459.534933,13249.923901
1189.646307,-3369.922842,2297.674665,12560.621502
1189.646608,459.534933,2144.496354,11335.195014
1189.646908,8041.861327,-2374.263820,8118.450483
1189.647208,11488.373325,-1148.837332,6816.434839
1189.647509,9420.466126,-2067.907198,8348.217949
1189.647809,9803.411904,-4825.116796,6969.613150
1189.648110,4748.527641,-536.124088,7888.683016
1189.648404,-1148.837332,153.178311,10722.481770
1189.648705,-6356.899906,-76.589155,10875.660081
1189.649006,-10339.535992,3982.636086,12407.443191
1189.649307,-11947.908258,2910.387909,13632.869679
1189.649608,-12254.264880,-229.767466,14322.172078
1189.649909,-8424.807105,1225.426488,12713.799813
1189.650210,1991.318043,153.178311,11411.784169
1189.650510,9420.466126,-2833.798753,7352.558928
1189.650799,11871.319102,-1608.372265,7429.148083
1189.651099,10569.303459,-3140.155375,8807.752882
1189.651400,7735.504705,-6893.023995,7046.202306
1189.651701,306.356622,-2986.977064,9267.287815
1189.652002,-3829.457775,-2221.085509,12101.086569
1189.652302,-7965.272172,-1608.372265,11182.016703
1189.652603,-8118.450483,1531.783110,12943.567279
1189.652904,-8424.807105,1684.961421,15624.187722
1189.653213,-5437.830040,1225.426488,13479.691368
1189.653513,-842.480710,4442.171019,11794.729947
1189.653812,3752.868619,2910.387909,10799.070925
1189.654111,8654.574571,-995.659021,7429.148083
1189.654411,8654.574571,-536.124088,7582.326394
1189.654710,10416.125148,-1455.193954,7888.683016
1189.655010,5973.954129,-5208.062574,7965.272172
1189.655309,1072.248177,-3752.868619,9956.590215
1189.655616,-2757.209598,-5054.884263,12254.264880
1189.655916,-4978.295107,-4671.938485,11488.373325
1189.656215,-5897.364973,765.891555,12484.032346
1189.656515,-5437.830040,765.891555,11641.551636
1189.656815,-3982.636086,1531.783110,10645.892614
1189.657114,-6816.434839,765.891555,13403.102212
1189.657414,-3676.279464,-995.659021,12866.978124
1189.657714,1072.248177,-3446.511997,8731.163727
1189.658010,4901.705952,-0.000000,6280.310751
1189.658308,9114.109504,-2986.977064,6127.132440
1189.658606,6280.310751,-3752.868619,6510.078217
1189.658904,5361.240885,-995.659021,8731.163727
1189.659203,1378.604799,-3140.155375,11028.838392
1189.659501,-5591.008351,-3752.868619,12330.854035
1189.659799,-8731.163727,-1302.015643,14934.885322
1189.660097,-8271.628794,1072.248177,13096.745590
1189.660411,-5437.830040,1378.604799,10952.249236
1189.660710,-1148.837332,3676.279464,11488.373325
1189.661009,3599.690308,2757.209598,10569.303459
1189.661307,7888.683016,3676.279464,6816.434839
1189.661606,7046.202306,4135.814397,9114.109504
1189.661905,4212.403552,-995.659021,10875.660081
1189.662204,2527.442131,-536.124088,9114.109504
1189.662502,-76.589155,306.356622,11794.729947
1189.662790,-2450.852976,-1761.550576,12254.264880
1189.663090,-3063.566220,459.534933,12101.086569
1189.663390,-5591.008351,2297.674665,13326.513057
1189.663690,-3829.457775,459.534933,12560.621502
1189.663991,-4288.992708,-0.000000,12407.443191
1189.664291,-2221.085509,2297.674665,11564.962480
1189.664591,3906.046930,765.891555,8654.574571
1189.664891,4748.527641,-1148.837332,6893.023995
1189.665190,7046.202306,-842.480710,8271.628794
1189.665493,5361.240885,-3906.046930,8960.931193
1189.665795,2297.674665,-3140.155375,8501.396260
1189.666098,-382.945777,-2374.263820,12101.086569
1189.666400,-2374.263820,-3293.333686,10416.125148
1189.666703,-4825.116796,-382.945777,10416.125148
1189.667005,-4748.527641,2604.031287,12407.443191
1189.667308,-6050.543284,-1914.728887,11182.016703
1189.667615,-4288.992708,-1761.550576,12024.497413
1189.667911,153.178311,153.178311,10339.535992
1189.668207,3906.046930,-2067.907198,8960.931193
1189.668503,4748.527641,-2986.977064,6969.613150
1189.668799,3599.690308,-2374.263820,9420.466126
1189.669095,2527.442131,-4518.760174,8960.931193
1189.669390,-1148.837332,-2986.977064,9956.590215
1189.669686,-2757.209598,153.178311,12407.443191
1189.670007,-2374.263820,2910.387909,10875.660081
1189.670307,-3063.566220,5591.008351,11794.729947
1189.670608,-3523.101153,2757.209598,13403.102212
1189.670908,-6050.543284,-2067.907198,14015.815456
1189.671208,-3676.279464,-1302.015643,12790.388968
1189.671509,1072.248177,-1608.372265,10722.481770
1189.671809,7582.326394,-3906.046930,8041.861327
1189.672109,8195.039638,-1914.728887,7122.791461
1189.672428,6586.667373,-1302.015643,7582.326394
1189.672721,4212.403552,-3906.046930,8654.574571
1189.673015,-689.302399,-1761.550576,11028.838392
1189.673309,-2067.907198,-1148.837332,11794.729947
1189.673602,-5131.473418,-229.767466,11335.195014
1189.673896,-3829.457775,3676.279464,11947.908258
1189.674189,-2757.209598,4825.116796,11794.729947
1189.674483,-1148.837332,3369.922842,10875.660081
1189.674828,-689.302399,3982.636086,11794.729947
1189.675124,2144.496354,1838.139732,12330.854035
1189.675420,4748.527641,-1455.193954,7429.148083
1189.675716,6127.132440,-2221.085509,5361.240885
1189.676012,2297.674665,-6433.489062,8731.163727
1189.676308,-3216.744531,-10952.249236,10416.125148
1189.676604,-4978.295107,-4518.760174,12254.264880
1189.676900,-3369.922842,-76.589155,11028.838392
1189.677200,-3676.279464,1225.426488,11718.140791
1189.677497,-4595.349330,5897.364973,12790.388968
1189.677795,-4748.527641,7735.504705,12177.675724
1189.678092,-2221.085509,5591.008351,11947.908258
1189.678390,306.356622,5284.651729,12254.264880
1189.678687,3140.155375,-229.767466,11335.195014
1189.678985,5208.062574,-689.302399,7429.148083
1189.679282,6586.667373,-1608.372265,8041.861327
1189.679589,5361.240885,-4365.581863,8195.039638
1189.679890,1531.783110,-6433.489062,7582.326394
1189.680191,-3369.922842,-4212.403552,11182.016703
1189.680492,-4825.116796,-3906.046930,12177.675724
1189.680793,-4978.295107,-4365.581863,11641.551636
1189.681094,-4442.171019,-536.124088,13096.745590
1189.681395,-1761.550576,-1761.550576,13862.637145
1189.681696,306.356622,-1302.015643,12101.086569
1189.682010,4212.403552,2604.031287,10033.179370
1189.682309,6739.845684,1225.426488,8807.752882
1189.682609,7582.326394,-76.589155,6969.613150
1189.682908,4212.403552,306.356622,6663.256528
1189.683208,5054.884263,-1914.728887,5667.597507
1189.683507,-4748.527641,-7046.202306,8960.931193
1189.683807,-9880.001059,-7046.202306,13326.513057
1189.684106,-10033.179370,-7505.737239,14015.815456
1189.684379,-7352.558928,-4671.938485,12330.854035
1189.684681,-4288.992708,-1455.193954,12560.621502
1189.684982,-4288.992708,-382.945777,13326.513057
1189.685284,2680.620442,3676.279464,10109.768526
1189.685586,5361.240885,5744.186662,9343.876971
1189.685888,7888.683016,3369.922842,9267.287815
1189.686189,7046.202306,1684.961421,7582.326394
1189.686491,3599.690308,2757.209598,9267.287815
1189.686809,2297.674665,-382.945777,7658.915550
1189.687115,-2450.852976,-1608.372265,9420.466126
1189.687420,-5131.473418,459.534933,12407.443191
1189.687726,-5591.008351,1838.139732,13020.156435
1189.688032,-5131.473418,2910.387909,13709.458834
1189.688338,-4288.992708,4825.116796,13249.923901
1189.688644,-2757.209598,1991.318043,15547.598566
1189.688950,1072.248177,2757.209598,11871.319102
1189.689188,4212.403552,2757.209598,8807.752882
1189.689487,5973.954129,-76.589155,6739.845684
1189.689786,4748.527641,-2833.798753,6510.078217
1189.690084,1225.426488,-3599.690308,8654.574571
1189.690383,919.069866,-6586.667373,8807.752882
1189.690682,-2374.263820,-6280.310751,9803.411904
1189.690980,-5131.473418,-3140.155375,12254.264880
1189.691279,-4825.116796,-2221.085509,12101.086569
1189.691570,-3216.744531,1225.426488,11488.373325
1189.691872,-2221.085509,3063.566220,12407.443191
1189.692175,-2604.031287,-382.945777,13249.923901
1189.692477,1072.248177,-76.589155,10262.946837
1189.692780,4059.225241,459.534933,9573.644437
1189.693083,7122.791461,-4365.581863,8807.752882
1189.693385,5973.954129,-4671.938485,7122.791461
1189.693688,5054.884263,-4671.938485,8195.039638
1189.693996,2374.263820,-5361.240885,7275.969772
1189.694296,-3369.922842,-4518.760174,9650.233593
1189.694595,-6969.613150,-1455.193954,11182.016703
1189.694895,-8271.628794,153.178311,13862.637145
1189.695195,-9343.876971,1684.961421,14398.761234
1189.695495,-6050.543284,4748.527641,14015.815456
1189.695795,-2757.209598,4135.814397,12713.799813
1189.696094,3906.046930,4825.116796,11028.838392
1189.696383,7735.504705,1838.139732,9803.411904
1189.696680,7888.683016,-2986.977064,9114.109504
1189.696978,6893.023995,-1914.728887,8424.807105
1189.697275,5054.884263,-3446.511997,6433.489062
1189.697573,1072.248177,-5973.954129,6739.845684
1189.697870,-4135.814397,-5667.597507,9803.411904
1189.698167,-7658.915550,-4059.225241,11182.016703
1189.698465,-5591.008351,-842.480710,11258.605858
1189.698792,-4825.116796,1378.604799,13249.923901
1189.699089,-8118.450483,-995.659021,14015.815456
1189.699385,-1761.550576,1072.248177,14322.172078
1189.699681,5514.419196,3523.101153,11641.551636
1189.699977,10722.481770,3063.566220,7812.093861
1189.700273,14168.993767,612.713244,5744.186662
1189.700570,10109.768526,-1148.837332,7275.969772
1189.700866,6586.667373,-3446.511997,7046.202306
1189.701178,-2221.085509,-7352.558928,9037.520349
1189.701478,-9880.001059,-6893.023995,11641.551636
1189.701777,-11718.140791,-4901.705952,12024.497413
1189.702077,-15394.420255,-1455.193954,13326.513057
1189.702377,-12101.086569,2297.674665,15394.420255
1189.702677,-8731.163727,4748.527641,15164.652789
1189.702977,919.069866,7429.148083,13632.869679
1189.703277,8807.752882,9420.466126,10645.892614
1189.703586,14398.761234,7275.969772,8348.217949
1189.703884,16543.257588,6050.543284,5667.597507
1189.704183,12024.497413,1378.604799,5820.775818
1189.704481,5054.884263,-4518.760174,7429.148083
1189.704780,-2450.852976,-6280.310751,8654.574571
1189.705078,-10033.179370,-5820.775818,11028.838392
1189.705377,-11947.908258,-5820.775818,12713.799813
1189.705675,-14934.885322,-5514.419196,13326.513057
1189.705982,-11411.784169,-995.659021,15777.366033
1189.706283,-5591.008351,306.356622,14245.582923
1189.706583,-76.589155,1991.318043,11564.962480
1189.706884,5208.062574,3216.744531,10109.768526
1189.707185,11641.551636,1225.426488,7429.148083
1189.707485,15164.652789,-1302.015643,6663.256528
1189.707786,12637.210657,-3906.046930,6127.132440
1189.708086,8041.861327,-8118.450483,4288.992708
1189.708383,612.713244,-5820.775818,7199.380617
1189.708681,-6663.256528,-6433.489062,10416.125148
1189.708980,-12713.799813,-8424.807105,13556.280523
1189.709279,-16313.490121,-5514.419196,15853.955188
1189.709578,-14245.582923,-3140.155375,16466.668432
1189.709877,-5744.186662,-1148.837332,13020.156435
1189.710175,2297.674665,2144.496354,11105.427547
1189.710474,9267.287815,5284.651729,10033.179370
1189.710802,16619.846743,5744.186662,5820.775818
1189.711097,15624.187722,6203.721595,6280.310751
1189.711393,9420.466126,2450.852976,7735.504705
1189.711688,1991.318043,-1608.372265,8577.985416
1189.711984,-4442.171019,612.713244,8884.342038
1189.712279,-6510.078217,765.891555,9650.233593
1189.712575,-12713.799813,-2067.907198,12790.388968
1189.712870,-13939.226301,1378.604799,16236.900966
1189.713158,-11105.427547,3216.744531,15394.420255
1189.713459,-4978.295107,3982.636086,14322.172078
1189.713760,-842.480710,4595.349330,13786.047990
1189.714061,5208.062574,5284.651729,10722.481770
1189.714362,12024.497413,4595.349330,6816.434839
1189.714663,13862.637145,2144.496354,5131.473418
1189.714963,8501.396260,-4212.403552,6969.613150
1189.715264,4748.527641,-6127.132440,7352.558928
1189.715564,-0.000000,-5054.884263,8501.396260
1189.715864,-4978.295107,-6127.132440,9420.466126
1189.716164,-10339.535992,-6586.667373,12101.086569
1189.716464,-12560.621502,-2833.798753,13786.047990
1189.716764,-10186.357681,-689.302399,14628.528700
1189.717064,-6356.899906,-1914.728887,14475.350389
1189.717364,153.178311,1531.783110,13173.334746
1189.717664,8960.931193,1991.318043,9573.644437
1189.717971,15624.187722,-76.589155,6127.132440
1189.718269,16236.900966,-2067.907198,5667.597507
1189.718567,12637.210657,-4059.225241,7275.969772
1189.718865,5208.062574,-6433.489062,7275.969772
1189.719163,-2910.387909,-3752.868619,9573.644437
1189.719461,-10339.535992,-3599.690308,11641.551636
1189.719759,-16160.311810,-3752.868619,13403.102212
1189.720057,-18994.110564,-536.124088,18381.397320
1189.720374,-15547.598566,1072.248177,16543.257588
1189.720672,-7352.558928,4442.171019,13556.280523
1189.720971,3906.046930,10109.768526,10645.892614
1189.721269,11641.551636,8041.861327,8501.396260
1189.721568,14551.939545,4442.171019,7658.915550
1189.721866,13556.280523,1531.783110,7735.504705
1189.722165,8807.752882,-3599.690308,6663.256528
1189.722463,2986.977064,-6893.023995,6969.613150
1189.722820,-3982.636086,-5973.954129,9343.876971
1189.723113,-6510.078217,-6127.132440,9343.876971
1189.723407,-7122.791461,-3752.868619,11105.427547
1189.723700,-7658.915550,-689.302399,12943.567279
1189.723994,-10339.535992,-2221.085509,14015.815456
1189.724287,-7505.737239,-1148.837332,14322.172078
1189.724581,-995.659021,3216.744531,12560.621502
1189.724874,6127.132440,3216.744531,9650.233593
1189.725162,9803.411904,1225.426488,7888.683016
1189.725462,11641.551636,1378.604799,6586.667373
1189.725762,12177.675724,-842.480710,5361.240885
1189.726062,3752.868619,-4518.760174,8501.396260
1189.726362,-2757.209598,-5361.240885,9650.233593
1189.726662,-6969.613150,-5208.062574,11718.140791
1189.726962,-11258.605858,-4518.760174,12943.567279
1189.727262,-11871.319102,-3140.155375,14475.350389
1189.727561,-11411.784169,-1608.372265,16390.079277
1189.727860,-3063.566220,3982.636086,13403.102212
1189.728160,6280.310751,7275.969772,10569.303459
1189.728459,13403.102212,8041.861327,8501.396260
1189.728758,15164.652789,5897.364973,7658.915550
1189.729058,13403.102212,3216.744531,6280.310751
1189.729357,7275.969772,-1148.837332,7429.148083
1189.729656,-689.302399,-2680.620442,10416.125148
1189.729963,-7352.558928,-2221.085509,9420.466126
1189.730262,-11258.605858,-4059.225241,11794.729947
1189.730561,-13786.047990,-3293.333686,12790.388968
1189.730861,-15088.063633,-3140.155375,15547.598566
1189.731160,-11564.962480,-2221.085509,15700.776877
1189.731459,-4135.814397,1531.783110,12560.621502
1189.731758,2374.263820,3063.566220,10109.768526
1189.732058,9497.055282,153.178311,7735.504705
1189.732378,12177.675724,-2374.263820,7582.326394
1189.732679,11871.319102,-4518.760174,7122.791461
1189.732979,9803.411904,-6893.023995,4825.116796
1189.733279,4671.938485,-5208.062574,6127.132440
1189.733579,-536.124088,-5820.775818,8654.574571
1189.733880,-9497.055282,-8271.628794,12407.443191
1189.734180,-11411.784169,-4059.225241,13939.226301
1189.734480,-13020.156435,-2221.085509,15088.063633
1189.734747,-8731.163727,-689.302399,13020.156435
1189.735049,-1148.837332,3369.922842,12560.621502
1189.735350,5054.884263,5591.008351,10722.481770
1189.735652,13556.280523,4825.116796,9267.287815
1189.735953,16236.900966,4595.349330,6739.845684
1189.736255,12484.032346,2144.496354,8348.217949
1189.736556,3599.690308,-2833.798753,9114.109504
1189.736858,-2067.907198,-0.000000,10033.179370
1189.737175,-5897.364973,2144.496354,10262.946837
1189.737471,-9343.876971,459.534933,10569.303459
1189.737767,-16313.490121,1378.604799,15700.776877
1189.738063,-14092.404612,3369.922842,15088.063633
1189.738359,-7658.915550,5897.364973,14015.815456
1189.738655,-1455.193954,5591.008351,12713.799813
1189.738951,2374.263820,5437.830040,11641.551636
1189.739247,10109.768526,3216.744531,8501.396260
1189.739547,13249.923901,2297.674665,5284.651729
1189.739848,9956.590215,-4901.705952,6510.078217
1189.740148,4518.760174,-7812.093861,7658.915550
1189.740449,-76.589155,-5973.954129,8884.342038
1189.740750,-3063.566220,-5054.884263,8195.039638
1189.741051,-6510.078217,-6433.489062,11028.838392
1189.741351,-10186.357681,-2374.263820,13403.102212
1189.741652,-8884.342038,-2221.085509,12713.799813
1189.741959,-6356.899906,-2680.620442,12943.567279
1189.742256,-3063.566220,-1148.837332,12407.443191
1189.742553,3140.155375,-382.945777,10262.946837
1189.742850,9114.109504,-1302.015643,8348.217949
1189.743147,12024.497413,-1761.550576,6816.434839
1189.743444,9420.466126,-4671.938485,8501.396260
1189.743741,4518.760174,-4901.705952,9114.109504
1189.744037,1225.426488,-1148.837332,8960.931193
1189.744345,-2604.031287,-2527.442131,10109.768526
1189.744644,-7352.558928,-2374.263820,12943.567279
1189.744943,-10952.249236,-76.589155,14934.885322
1189.745242,-6969.613150,2757.209598,13096.745590
1189.745541,-3982.636086,2910.387909,11488.373325
1189.745840,-0.000000,4978.295107,11641.551636
1189.746139,1838.139732,2604.031287,11947.908258
1189.746438,5973.954129,1531.783110,9880.001059
1189.746755,9267.287815,1684.961421,7582.326394
1189.747054,8195.039638,-2221.085509,7735.504705
1189.747353,4365.581863,-2833.798753,7812.093861
1189.747652,-76.589155,-0.000000,8807.752882
1189.747951,-3216.744531,-1148.837332,9650.233593
1189.748251,-7352.558928,-1914.728887,11641.551636
1189.748550,-12101.086569,-2067.907198,14551.939545
1189.748849,-11411.784169,-1761.550576,13556.280523
1189.749166,-8577.985416,-1761.550576,13249.923901
1189.749464,-2757.209598,-536.124088,12254.264880
1189.749762,4059.225241,-536.124088,10799.070925
1189.750059,10109.768526,-842.480710,8195.039638
1189.750357,12943.567279,-382.945777,6356.899906
1189.750655,10262.946837,-3293.333686,6356.899906
1189.750953,5208.062574,-4059.225241,7429.148083
1189.751251,-689.302399,-3446.511997,9497.055282
1189.751527,-3523.101153,-2221.085509,9956.590215
1189.751830,-4825.116796,-0.000000,12024.497413
1189.752132,-8271.628794,765.891555,14628.528700
1189.752435,-9037.520349,-76.589155,14322.172078
1189.752737,-3982.636086,2604.031287,13939.226301
1189.753039,1225.426488,4288.992708,11488.373325
1189.753342,5667.597507,3676.279464,9650.233593
1189.753644,8501.396260,3063.566220,9114.109504
1189.753958,9803.411904,2910.387909,6969.613150
1189.754256,7429.148083,-1302.015643,6816.434839
1189.754554,1072.248177,-3446.511997,9420.466126
1189.754852,-4135.814397,-3446.511997,11182.016703
1189.755149,-5744.186662,-4365.581863,10722.481770
1189.755447,-10186.357681,-4518.760174,12866.978124
1189.755745,-10952.249236,-3293.333686,15394.420255
1189.756043,-10339.535992,-1455.193954,14628.528700
1189.756350,-3216.744531,3063.566220,11794.729947
1189.756647,2374.263820,3676.279464,9497.055282
1189.756944,7429.148083,2450.852976,8041.861327
1189.757242,11488.373325,1378.604799,6969.613150
1189.757539,10875.660081,-1302.015643,7352.558928
1189.757836,8041.861327,-7199.380617,6050.543284
1189.758133,2374.263820,-5361.240885,8271.628794
1189.758431,-4135.814397,-7352.558928,10339.535992
1189.758727,-10033.179370,-9880.001059,12943.567279
1189.759028,-9573.644437,-5054.884263,13632.869679
1189.759328,-6356.899906,153.178311,12637.210657
1189.759628,-6203.721595,-229.767466,11718.140791
1189.759929,-2757.209598,3216.744531,13403.102212
1189.760229,3906.046930,6663.256528,11488.373325
1189.760529,11488.373325,6356.899906,7275.969772
1189.760830,11488.373325,5437.830040,6510.078217
1189.761124,6739.845684,1378.604799,8195.039638
1189.761425,5208.062574,-842.480710,8118.450483
1189.761726,-0.000000,-2680.620442,10033.179370
1189.762027,-4978.295107,-4212.403552,12560.621502
1189.762328,-8271.628794,-6127.132440,13173.334746
1189.762629,-9343.876971,-1302.015643,14092.404612
1189.762930,-5437.830040,3216.744531,12177.675724
1189.763230,-3676.279464,3216.744531,12254.264880
1189.763518,-76.589155,4825.116796,12790.388968
1189.763819,1378.604799,5591.008351,9803.411904
1189.764120,9803.411904,5897.364973,5820.775818
1189.764421,10109.768526,2297.674665,6127.132440
1189.764722,5514.419196,-3752.868619,8195.039638
1189.765023,2680.620442,-6433.489062,9114.109504
1189.765323,-1302.015643,-4825.116796,8271.628794
1189.765624,-3063.566220,-5820.775818,9803.411904
1189.765933,-7965.272172,-6280.310751,13096.745590
1189.766232,-10645.892614,-1608.372265,15700.776877
1189.766530,-6816.434839,612.713244,12407.443191
1189.766829,-5897.364973,-1302.015643,12484.032346
1189.767127,-2067.907198,-382.945777,14322.172078
1189.767426,3599.690308,459.534933,9956.590215
1189.767724,9956.590215,1378.604799,6356.899906
1189.768023,12484.032346,-229.767466,6586.667373
1189.768330,7046.202306,-3599.690308,9037.520349
1189.768629,3293.333686,-2986.977064,7965.272172
1189.768929,-3063.566220,-1148.837332,10875.660081
1189.769229,-7505.737239,-2221.085509,11488.373325
1189.769528,-9190.698660,-2680.620442,12484.032346
1189.769828,-10339.535992,1684.961421,14475.350389
1189.770128,-4978.295107,1072.248177,12713.799813
1189.770427,-1148.837332,1072.248177,11794.729947
1189.770724,6893.023995,2757.209598,10339.535992
1189.771027,7429.148083,-995.659021,10416.125148
1189.771330,9497.055282,-2986.977064,9420.466126
1189.771633,12637.210657,-1761.550576,7429.148083
1189.771935,8501.396260,-4671.938485,5897.364973
1189.772238,2833.798753,-6586.667373,7735.504705
1189.772541,-5897.364973,-3140.155375,9803.411904
1189.772844,-7505.737239,-1148.837332,9803.411904
1189.773139,-11411.784169,-842.480710,12101.086569
1189.773438,-12407.443191,1991.318043,14781.707011
1189.773737,-11411.784169,3063.566220,14705.117856
1189.774037,-7199.380617,2757.209598,14015.815456
1189.774336,1838.139732,4748.527641,11794.729947
1189.774635,8960.931193,2757.209598,9497.055282
1189.774934,13403.102212,-0.000000,7122.791461
1189.775234,13096.745590,-1761.550576,5667.597507
1189.775522,9803.411904,-3599.690308,6969.613150
1189.775822,4212.403552,-5820.775818,8654.574571
1189.776122,-2067.907198,-3906.046930,10416.125148
1189.776422,-8271.628794,-3446.511997,10722.481770
1189.776722,-8577.985416,-382.945777,10952.249236
1189.777022,-13326.513057,-0.000000,15317.831100
1189.777322,-14475.350389,-842.480710,18075.040698
1189.777622,-7199.380617,1838.139732,16236.900966
1189.777921,3446.511997,6510.078217,10875.660081
1189.778221,11641.551636,6203.721595,8807.752882
1189.778520,11871.319102,2450.852976,6739.845684
1189.778819,12177.675724,3523.101153,7429.148083
1189.779118,11182.016703,-3752.868619,5514.419196
1189.779418,3140.155375,-7965.272172,6816.434839
1189.779717,-5131.473418,-9497.055282,10569.303459
1189.780016,-9037.520349,-8884.342038,10875.660081
1189.780323,-11871.319102,-7046.202306,13096.745590
1189.780622,-11564.962480,-4212.403552,14781.707011
1189.780922,-11871.319102,-3752.868619,15777.366033
1189.781221,-3369.922842,3063.566220,12790.388968
1189.781520,6280.310751,5744.186662,9420.466126
1189.781819,13403.102212,4288.992708,6356.899906
1189.782119,14398.761234,3063.566220,6280.310751
1189.782418,13096.745590,1072.248177,7429.148083
1189.782738,11335.195014,-995.659021,4825.116796
1189.783035,2297.674665,-2067.907198,5897.364973
1189.783332,-11105.427547,-3140.155375,10645.892614
1189.783629,-19377.056341,-7658.915550,14628.528700
1189.783926,-21368.374384,-4825.116796,17155.970832
1189.784223,-16313.490121,-536.124088,15777.366033
1189.784520,-10339.535992,-536.124088,15317.831100
1189.784817,-382.945777,4442.171019,13709.458834
1189.785136,11028.838392,8041.861327,11564.962480
1189.785434,19606.823808,7735.504705,6969.613150
1189.785732,21521.552695,5744.186662,3676.279464
1189.786031,14245.582923,3676.279464,5208.062574
1189.786329,7046.202306,-1914.728887,6127.132440
1189.786627,-1914.728887,-4825.116796,8807.752882
1189.786925,-8118.450483,-6127.132440,9803.411904
1189.787224,-14322.172078,-9037.520349,13556.280523
1189.787537,-17462.327454,-6586.667373,15547.598566
1189.787841,-13939.226301,-1455.193954,16083.722655
1189.788145,-6356.899906,459.534933,14934.885322
1189.788449,459.534933,3369.922842,13862.637145
1189.788753,7275.969772,6050.543284,10569.303459
1189.789058,17385.738298,7122.791461,3982.636086
1189.789362,18611.164786,765.891555,4059.225241
1189.789666,11871.319102,-5361.240885,6969.613150
1189.789904,6433.489062,-7812.093861,9497.055282
1189.790204,1072.248177,-4671.938485,6356.899906
1189.790504,-4825.116796,-4901.705952,7888.683016
1189.790805,-15853.955188,-7046.202306,14551.939545
1189.791105,-22823.568339,-2680.620442,17309.149143
1189.791405,-17002.792521,3369.922842,15164.652789
1189.791706,-9880.001059,4442.171019,12101.086569
1189.792006,-2757.209598,4825.116796,13479.691368
1189.792313,9114.109504,4978.295107,9880.001059
1189.792613,19606.823808,6510.078217,6356.899906
1189.792913,24202.173138,2450.852976,4748.527641
1189.793213,16619.846743,-2680.620442,5897.364973
1189.793514,6433.489062,-5054.884263,8501.396260
1189.793814,-2221.085509,-3293.333686,6816.434839
1189.794114,-11258.605858,-5667.597507,11028.838392
1189.794414,-21062.017762,-8424.807105,14475.350389
1189.794728,-23819.227360,-4825.116796,16236.900966
1189.795028,-18994.110564,-1608.372265,16313.490121
1189.795327,-9497.055282,153.178311,14628.528700
1189.795627,1991.318043,4442.171019,12943.567279
1189.795926,12637.210657,5284.651729,9803.411904
1189.796226,19453.645497,4595.349330,6127.132440
1189.796525,23512.870738,3523.101153,4135.814397
1189.796824,17538.916609,-2221.085509,5667.597507
1189.797143,9267.287815,-5973.954129,5820.775818
1189.797438,1684.961421,-4212.403552,7199.380617
1189.797733,-7965.272172,-7199.380617,9803.411904
1189.798029,-14322.172078,-8731.163727,12943.567279
1189.798324,-19223.878030,-4671.938485,17002.792521
1189.798619,-19377.056341,-689.302399,19300.467186
1189.798914,-12407.443191,1072.248177,16083.722655
1189.799209,-2067.907198,9650.233593,13326.513057
1189.799527,9803.411904,10262.946837,9650.233593
1189.799824,18151.629853,10569.303459,6969.613150
1189.800122,19760.002119,8960.931193,5514.419196
1189.800420,17232.559987,4442.171019,3676.279464
1189.800718,11794.729947,306.356622,4901.705952
1189.801016,919.069866,-1148.837332,9573.644437
1189.801314,-9190.698660,-5054.884263,11488.373325
1189.801612,-17002.792521,-6433.489062,12637.210657
1189.801911,-22823.568339,-4671.938485,16160.311810
1189.802211,-23819.227360,-5667.597507,17921.862387
1189.802511,-15547.598566,-1148.837332,16160.311810
1189.802811,-3216.744531,1684.961421,12713.799813
1189.803111,10875.660081,3829.457775,9420.466126
1189.803411,18994.110564,1225.426488,7352.558928
1189.803711,23742.638205,765.891555,3676.279464
1189.804011,22134.265939,-3446.511997,2221.085509
1189.804302,12484.032346,-4671.938485,4978.295107
1189.804601,1072.248177,-4825.116796,8807.752882
1189.804899,-8271.628794,-7965.272172,10416.125148
1189.805198,-17921.862387,-7658.915550,12024.497413
1189.805497,-23972.405671,-6280.310751,16849.614210
1189.805795,-24738.297226,-7046.202306,18840.932253
1189.806094,-14245.582923,-3446.511997,16696.435899
1189.806393,3140.155375,4288.992708,13862.637145
1189.806700,15624.187722,4595.349330,8807.752882
1189.807001,24355.351449,7275.969772,5667.597507
1189.807302,28414.576690,7582.326394,3982.636086
1189.807604,22746.979183,2450.852976,3982.636086
1189.807905,9803.411904,-2374.263820,4288.992708
1189.808206,-2067.907198,-2221.085509,8807.752882
1189.808508,-13326.513057,-6739.845684,12560.621502
1189.808809,-22670.390028,-7352.558928,15624.187722
1189.809092,-28874.111623,-5820.775818,18994.110564
1189.809395,-21751.320162,-1455.193954,17385.738298
1189.809698,-9880.001059,3982.636086,13403.102212
1189.810001,612.713244,8348.217949,12713.799813
1189.810304,11182.016703,8654.574571,9956.590215
1189.810607,20066.358741,8501.396260,4901.705952
1189.810910,21674.731006,4748.527641,2833.798753
1189.811213,15471.009411,-4212.403552,4212.403552
1189.811494,4518.760174,-6127.132440,7505.737239
1189.811794,-2450.852976,-6127.132440,9956.590215
1189.812093,-7658.915550,-9497.055282,10569.303459
1189.812393,-14781.707011,-7658.915550,12943.567279
1189.812692,-19530.234652,-4518.760174,15547.598566
1189.812992,-16696.435899,-3906.046930,15317.831100
1189.813291,-10033.179370,153.178311,15241.241944
1189.813591,-536.124088,4978.295107,15241.241944
1189.813903,9114.109504,4978.295107,8501.396260
1189.814203,17998.451542,7888.683016,3906.046930
1189.814503,20525.893674,5744.186662,4671.938485
1189.814803,15624.187722,-689.302399,5820.775818
1189.815103,8348.217949,-3140.155375,7658.915550
1189.815403,1684.961421,-2680.620442,9497.055282
1189.815703,-6050.543284,-6433.489062,11411.784169
1189.816003,-14934.885322,-5054.884263,14934.885322
1189.816312,-18994.110564,-2680.620442,16313.490121
1189.816610,-17002.792521,-2833.798753,14475.350389
1189.816908,-11258.605858,1684.961421,13249.923901
1189.817205,-2067.907198,4748.527641,13862.637145
1189.817503,8195.039638,4442.171019,10339.535992
1189.817801,17845.273231,4135.814397,6127.132440
1189.818099,20525.893674,2297.674665,4901.705952
1189.818397,18611.164786,-1455.193954,2833.798753
1189.818704,9267.287815,-382.945777,5514.419196
1189.819003,-995.659021,-2833.798753,9956.590215
1189.819303,-8731.163727,-6433.489062,11258.605858
1189.819603,-18075.040698,-5208.062574,12713.799813
1189.819902,-20602.482829,-5208.062574,15624.187722
1189.820202,-19223.878030,-7199.380617,16083.722655
1189.820502,-9726.822748,-842.480710,14628.528700
1189.820802,-229.767466,765.891555,13862.637145
1189.821098,6280.310751,1991.318043,9956.590215
1189.821397,15164.652789,5897.364973,6586.667373
1189.821696,15164.652789,3982.636086,6816.434839
1189.821995,14015.815456,-76.589155,4595.349330
1189.822294,5054.884263,-1302.015643,7505.737239
1189.822592,-1302.015643,-2986.977064,10262.946837
1189.822891,-2910.387909,-4212.403552,9880.001059
1189.823190,-9343.876971,-1761.550576,13403.102212
1189.823485,-10492.714303,-1914.728887,14475.350389
1189.823785,-12407.443191,-1608.372265,15088.063633
1189.824085,-6050.543284,612.713244,14398.761234
1189.824385,306.356622,3216.744531,12484.032346
1189.824686,8195.039638,1684.961421,9037.520349
1189.824986,13709.458834,4825.116796,7199.380617
1189.825286,14168.993767,459.534933,6050.543284
1189.825586,15471.009411,-1148.837332,4901.705952
1189.825874,7275.969772,-536.124088,6739.845684
1189.826174,-1914.728887,-3906.046930,11182.016703
1189.826474,-9880.001059,-5361.240885,12560.621502
1189.826774,-16160.311810,-1302.015643,12943.567279
1189.827074,-20142.947896,-2374.263820,15853.955188
1189.827374,-18840.932253,-2986.977064,14934.885322
1189.827674,-10186.357681,2450.852976,14475.350389
1189.827974,2144.496354,3829.457775,11488.373325
1189.828274,11028.838392,2910.387909,7735.504705
1189.828574,14705.117856,1838.139732,6356.899906
1189.828874,16390.079277,-382.945777,6280.310751
1189.829174,11641.551636,-3140.155375,6127.132440
1189.829474,4748.527641,-842.480710,7888.683016
1189.829774,-1455.193954,-3906.046930,10109.768526
1189.830074,-7965.272172,-5054.884263,12560.621502
1189.830374,-10645.892614,-2986.977064,14015.815456
1189.830681,-10952.249236,-2833.798753,14322.172078
1189.830980,-7122.791461,-1148.837332,12407.443191
1189.831279,-2450.852976,919.069866,12790.388968
1189.831578,153.178311,-229.767466,12024.497413
1189.831876,6280.310751,612.713244,7888.683016
1189.832175,7888.683016,1072.248177,7352.558928
1189.832474,7275.969772,-2374.263820,8424.807105
1189.832773,8041.861327,-3140.155375,7735.504705
1189.833089,6280.310751,-0.000000,6586.667373
1189.833386,5054.884263,-2527.442131,8195.039638
1189.833683,-1914.728887,-4365.581863,10262.946837
1189.833980,-7352.558928,-2221.085509,14168.993767
1189.834277,-12713.799813,-5667.597507,14092.404612
1189.834574,-14781.707011,-5054.884263,14551.939545
1189.834871,-10952.249236,-382.945777,15011.474478
1189.835168,-2757.209598,1684.961421,11947.908258
1189.835487,4901.705952,4288.992708,6969.613150
1189.835787,11488.373325,6816.434839,4595.349330
1189.836086,12790.388968,4748.527641,6739.845684
1189.836386,10109.768526,2450.852976,6663.256528
1189.836685,4212.403552,1225.426488,10645.892614
1189.836985,-0.000000,-689.302399,12560.621502
1189.837285,-5591.008351,-2067.907198,11335.195014
1189.837584,-9190.698660,-995.659021,13403.102212
1189.837872,-12713.799813,-2067.907198,13786.047990
1189.838172,-9497.055282,-1455.193954,14475.350389
1189.838472,-5591.008351,2604.031287,14245.582923
1189.838772,765.891555,1225.426488,11718.140791
1189.839072,7046.202306,3982.636086,7965.272172
1189.839372,8348.217949,4825.116796,5744.186662
1189.839672,8654.574571,765.891555,6893.023995
1189.839972,5208.062574,-2221.085509,6433.489062
1189.840271,-76.589155,-2833.798753,10875.660081
1189.840571,-1761.550576,-6127.132440,12254.264880
1189.840870,-4288.992708,-6280.310751,12101.086569
1189.841169,-3369.922842,-2221.085509,13403.102212
1189.841468,-4748.527641,-2221.085509,12177.675724
1189.841767,-3369.922842,-76.589155,11488.373325
1189.842067,-1455.193954,765.891555,11641.551636
1189.842366,-842.480710,-689.302399,11182.016703
1189.842673,3446.511997,459.534933,8041.861327
1189.842976,5667.597507,153.178311,6586.667373
1189.843279,7735.504705,-3140.155375,6816.434839
1189.843583,5820.775818,-2833.798753,7429.148083
1189.843886,2833.798753,-536.124088,10799.070925
1189.844190,-382.945777,-229.767466,10952.249236
1189.844493,-4825.116796,1378.604799,12790.388968
1189.844796,-9343.876971,3369.922842,15088.063633
1189.845117,-10952.249236,1991.318043,13556.280523
1189.845414,-7199.380617,4288.992708,11641.551636
1189.845711,-4595.349330,1531.783110,11335.195014
1189.846008,459.534933,919.069866,9956.590215
1189.846305,3140.155375,-1148.837332,8195.039638
1189.846602,5820.775818,-1914.728887,8348.217949
1189.846899,7122.791461,-5973.954129,8041.861327
1189.847196,4518.760174,-3906.046930,5514.419196
1189.847469,1225.426488,-3140.155375,9420.466126
1189.847769,-2450.852976,-5514.419196,11947.908258
1189.848069,-4748.527641,-3293.333686,12790.388968
1189.848369,-4978.295107,-1302.015643,13862.637145
1189.848669,-3216.744531,306.356622,12101.086569
1189.848970,-3063.566220,612.713244,11871.319102
1189.849270,1072.248177,459.534933,11258.605858
1189.849570,5667.597507,1531.783110,8424.807105
1189.849887,4059.225241,-76.589155,7965.272172
1189.850186,4671.938485,-842.480710,9420.466126
1189.850484,5514.419196,-3293.333686,8501.396260
1189.850783,3752.868619,-2527.442131,8501.396260
1189.851081,1378.604799,-2680.620442,11488.373325
1189.851380,-4135.814397,-3599.690308,13403.102212
1189.851679,-4825.116796,612.713244,12713.799813
1189.851977,-3523.101153,3063.566220,12943.567279
1189.852277,-4825.116796,1378.604799,11335.195014
1189.852574,-2604.031287,1225.426488,12407.443191
1189.852872,459.534933,3523.101153,11182.016703
1189.853169,5054.884263,1378.604799,8501.396260
1189.853467,5361.240885,765.891555,7582.326394
1189.853764,4901.705952,-536.124088,8501.396260
1189.854062,2144.496354,-2374.263820,7275.969772
1189.854359,-76.589155,-1302.015643,8195.039638
1189.854666,-5284.651729,-3140.155375,12790.388968
1189.854966,-7965.272172,-5973.954129,12560.621502
1189.855266,-7812.093861,-1914.728887,14092.404612
1189.855567,-4978.295107,-1608.372265,12713.799813
1189.855867,-2757.209598,-382.945777,12177.675724
1189.856167,919.069866,612.713244,12637.210657
1189.856467,4748.527641,919.069866,9190.698660
1189.856768,6586.667373,459.534933,8041.861327
1189.857076,5973.954129,919.069866,6969.613150
1189.857372,1838.139732,-4518.760174,8348.217949
1189.857668,459.534933,-4212.403552,9420.466126
1189.857965,-1455.193954,-2527.442131,9803.411904
1189.858261,-1455.193954,-4059.225241,9956.590215
1189.858558,-2604.031287,-1761.550576,11488.373325
1189.858854,-3523.101153,-76.589155,13479.691368
1189.859151,-5284.651729,-3293.333686,16236.900966
1189.859467,-2221.085509,-1148.837332,14398.761234
1189.859770,4901.705952,2604.031287,9420.466126
1189.860072,5973.954129,612.713244,9267.287815
1189.860375,6893.023995,306.356622,8195.039638
1189.860678,6893.023995,1991.318043,6816.434839
1189.860980,6280.310751,-536.124088,6893.023995
1189.861283,-1914.728887,-4518.760174,8348.217949
1189.861585,-7352.558928,-3293.333686,10569.303459
1189.861822,-8884.342038,-3906.046930,12943.567279
1189.862128,-6203.721595,-2833.798753,12560.621502
1189.862434,-7122.791461,-1302.015643,13249.923901
1189.862740,-2910.387909,2910.387909,13403.102212
1189.863046,612.713244,4748.527641,9956.590215
1189.863352,3293.333686,3369.922842,10416.125148
1189.863658,4748.527641,612.713244,11564.962480
1189.863964,6586.667373,-0.000000,8731.163727
1189.864264,5973.954129,1378.604799,5973.954129
1189.864563,6739.845684,-229.767466,3906.046930
1189.864862,2527.442131,-2680.620442,7199.380617
1189.865161,-3369.922842,-2833.798753,11182.016703
1189.865460,-6663.256528,-3906.046930,13632.869679
1189.865759,-7122.791461,-1761.550576,12713.799813
1189.866058,-6510.078217,1225.426488,15241.241944
1189.866358,-7658.915550,-0.000000,14705.117856
1189.866671,-4825.116796,2450.852976,13862.637145
1189.866970,1072.248177,3829.457775,11641.551636
1189.867269,5208.062574,3216.744531,9343.876971
1189.867568,7429.148083,919.069866,7965.272172
1189.867866,8807.752882,459.534933,7352.558928
1189.868165,9956.590215,-1148.837332,5361.240885
1189.868464,2833.798753,-5208.062574,5361.240885
1189.868763,-4595.349330,-6280.310751,12560.621502
1189.869070,-7658.915550,-6586.667373,15088.063633
1189.869367,-8731.163727,-3293.333686,14781.707011
1189.869664,-6356.899906,-1302.015643,13403.102212
1189.869961,-6816.434839,-76.589155,14168.993767
1189.870259,-536.124088,3216.744531,13403.102212
1189.870556,6127.132440,4825.116796,9726.822748
1189.870853,9803.411904,4288.992708,8960.931193
1189.871150,9956.590215,2910.387909,7199.380617
1189.871447,6893.023995,459.534933,6816.434839
1189.871748,6280.310751,-842.480710,6127.132440
1189.872049,2527.442131,-229.767466,4595.349330
1189.872350,-7122.791461,-3906.046930,10109.768526
1189.872651,-11947.908258,-5820.775818,13403.102212
1189.872952,-14934.885322,-5054.884263,15777.366033
1189.873253,-12713.799813,-1608.372265,16849.614210
1189.873554,-7505.737239,-0.000000,13249.923901
1189.873849,-1302.015643,3369.922842,11182.016703
1189.874150,6586.667373,4748.527641,10109.768526
1189.874451,10722.481770,2604.031287,7275.969772
1189.874752,8960.931193,765.891555,6433.489062
1189.875052,8348.217949,-3140.155375,7122.791461
1189.875353,5667.597507,-6739.845684,5667.597507
1189.875654,1072.248177,-6893.023995,8654.574571
1189.875955,-2910.387909,-8118.450483,10262.946837
1189.876243,-8118.450483,-6280.310751,11641.551636
1189.876544,-10645.892614,-1302.015643,14858.296167
1189.876845,-9573.644437,3063.566220,15547.598566
1189.877146,-6510.078217,3523.101153,15777.366033
1189.877446,1531.783110,6663.256528,13249.923901
1189.877747,7888.683016,4748.527641,10799.070925
1189.878048,11028.838392,2910.387909,8654.574571
1189.878349,13249.923901,919.069866,6280.310751
1189.878658,10875.660081,-3140.155375,5973.954129
1189.878957,5208.062574,-5667.597507,7505.737239
1189.879257,-2067.907198,-4671.938485,9956.590215
1189.879556,-8884.342038,-4825.116796,11335.195014
1189.879855,-13020.156435,-1148.837332,13249.923901
1189.880155,-15547.598566,3216.744531,14475.350389
1189.880454,-13020.156435,3523.101153,15624.187722
1189.880753,-7658.915550,5437.830040,14168.993767
1189.881061,3906.046930,6203.721595,12330.854035
1189.881360,8960.931193,2757.209598,10186.357681
1189.881660,15317.831100,-229.767466,7275.969772
1189.881960,17232.559987,-1914.728887,4901.705952
1189.882259,12330.854035,-5820.775818,5361.240885
1189.882559,5514.419196,-6739.845684,6510.078217
1189.882859,-3523.101153,-6127.132440,8041.861327
1189.883158,-10492.714303,-6586.667373,10799.070925
1189.883455,-16007.133499,-5514.419196,12407.443191
1189.883752,-19223.878030,-2374.263820,15011.474478
1189.884049,-15088.063633,-1302.015643,15853.955188
1189.884347,-6510.078217,1378.604799,13709.458834
1189.884644,3293.333686,4595.349330,11488.373325
1189.884942,13249.923901,3523.101153,9650.233593
1189.885239,17079.381676,765.891555,6893.023995
1189.885536,15317.831100,-3446.511997,8041.861327
1189.885851,13862.637145,-4518.760174,7275.969772
1189.886150,7046.202306,-2986.977064,4059.225241
1189.886448,-3063.566220,-4825.116796,9267.287815
1189.886747,-10645.892614,-5820.775818,10952.249236
1189.887046,-15700.776877,-842.480710,12790.388968
1189.887344,-16160.311810,1072.248177,15241.241944
1189.887643,-13786.047990,1072.248177,17462.327454
1189.887942,-5897.364973,2910.387909,15853.955188
1189.888253,2527.442131,4978.295107,14015.815456
1189.888552,11794.729947,3982.636086,10569.303459
1189.888850,18764.343097,3216.744531,5514.419196
1189.889148,20985.428607,1991.318043,4748.527641
1189.889446,14858.296167,459.534933,3369.922842
1189.889744,5667.597507,-995.659021,6050.543284
1189.890042,-7122.791461,-4518.760174,10875.660081
1189.890340,-13786.047990,-5514.419196,11411.784169
1189.890657,-19530.234652,-3446.511997,15241.241944
1189.890956,-22823.568339,-2833.798753,17232.559987
1189.891254,-17921.862387,-1608.372265,16696.435899
1189.891552,-6969.613150,3216.744531,13096.745590
1189.891850,2833.798753,4595.349330,12713.799813
1189.892149,12024.497413,1684.961421,9420.466126
1189.892447,18457.986475,1684.961421,6127.132440
1189.892745,18611.164786,-1148.837332,5514.419196
1189.893052,15317.831100,-4365.581863,3829.457775
1189.893353,8807.752882,-2680.620442,4901.705952
1189.893654,1378.604799,-3752.868619,7582.326394
1189.893955,-7812.093861,-4518.760174,10109.768526
1189.894255,-18381.397320,-4671.938485,15241.241944
1189.894556,-21598.141851,-2986.977064,19377.056341
1189.894857,-17921.862387,-2221.085509,17155.970832
1189.895157,-6663.256528,3676.279464,14015.815456
1189.895392,4518.760174,4825.116796,11488.373325
1189.895698,12790.388968,1991.318043,8654.574571
1189.896003,17079.381676,459.534933,7429.148083
1189.896308,20985.428607,-0.000000,5667.597507
1189.896614,16083.722655,-2680.620442,5054.884263
1189.896919,5667.597507,-4671.938485,5820.775818
1189.897224,-1608.372265,-4059.225241,7582.326394
1189.897530,-12560.621502,-5820.775818,10875.660081
1189.897877,-19683.412963,-4212.403552,15241.241944
1189.898172,-21904.498473,-4671.938485,17921.862387
1189.898467,-14322.172078,-0.000000,17002.792521
1189.898762,-2757.209598,4595.349330,14475.350389
1189.899057,5820.775818,5744.186662,10569.303459
1189.899352,14858.296167,7275.969772,6663.256528
1189.899647,16083.722655,4442.171019,6356.899906
1189.899941,11028.838392,-842.480710,6816.434839
1189.900254,7275.969772,-3752.868619,7812.093861
1189.900550,3752.868619,-3599.690308,6356.899906
1189.900846,-2374.263820,-4901.705952,8041.861327
1189.901142,-10339.535992,-6586.667373,12024.497413
1189.901438,-14628.528700,-1608.372265,15394.420255
1189.901734,-14475.350389,765.891555,16236.900966
1189.902030,-13173.334746,1991.318043,14934.885322
1189.902326,-5591.008351,5284.651729,14781.707011
1189.902626,2374.263820,5591.008351,11028.838392
1189.902926,9650.233593,2450.852976,7352.558928
1189.903226,16619.846743,306.356622,6280.310751
1189.903526,18611.164786,-1914.728887,5820.775818
1189.903826,16773.025054,-4059.225241,4671.938485
1189.904126,9267.287815,-3446.511997,6663.256528
1189.904426,-1455.193954,-5667.597507,11105.427547
1189.904726,-11258.605858,-5361.240885,12790.388968
1189.905033,-16696.435899,-1608.372265,13632.869679
1189.905334,-19223.878030,-2067.907198,14398.761234
1189.905634,-17002.792521,-1455.193954,16236.900966
1189.905934,-6203.721595,2757.209598,14628.528700
1189.906234,5208.062574,4442.171019,11335.195014
1189.906534,14245.582923,3982.636086,8348.217949
1189.906834,18994.110564,2450.852976,5820.775818
1189.907135,18304.808164,459.534933,5897.364973
1189.907449,13249.923901,-689.302399,6356.899906
1189.907748,3446.511997,-1761.550576,7429.148083
1189.908048,-4825.116796,-4671.938485,9114.109504
1189.908347,-11411.784169,-4518.760174,9650.233593
1189.908646,-19989.769585,-5973.954129,15777.366033
1189.908946,-20908.839451,-6893.023995,18381.397320
1189.909245,-15547.598566,-3446.511997,16390.079277
1189.909545,-6203.721595,1072.248177,14475.350389
1189.909863,4365.581863,1378.604799,10109.768526
1189.910159,10875.660081,2604.031287,7888.683016
1189.910455,15317.831100,3369.922842,7275.969772
1189.910752,16926.203365,-995.659021,4748.527641
1189.911048,12330.854035,-2680.620442,5591.008351
1189.911344,7046.202306,-2221.085509,6433.489062
1189.911640,459.534933,-4365.581863,7965.272172
1189.911936,-4978.295107,-1761.550576,10109.768526
1189.912253,-13939.226301,-4671.938485,15777.366033
1189.912548,-15853.955188,-5361.240885,17002.792521
1189.912842,-11564.962480,-995.659021,14781.707011
1189.913137,-2757.209598,4288.992708,12713.799813
1189.913431,4212.403552,2450.852976,11335.195014
1189.913726,9956.590215,3676.279464,9114.109504
1189.914020,15164.652789,3523.101153,6739.845684
1189.914315,14245.582923,-382.945777,6127.132440
1189.914614,5514.419196,-2067.907198,8195.039638
1189.914914,-1608.372265,-1455.193954,10339.535992
1189.915214,-6356.899906,-1914.728887,9803.411904
1189.915514,-9880.001059,3523.101153,10339.535992
1189.915814,-13326.513057,2450.852976,13326.513057
1189.916114,-16849.614210,459.534933,16390.079277
1189.916415,-7199.380617,6203.721595,14245.582923
1189.916715,153.178311,4978.295107,11335.195014
1189.917045,4059.225241,306.356622,10722.481770
1189.917341,10109.768526,-1761.550576,10569.303459
1189.917636,13096.745590,-1914.728887,6663.256528
1189.917932,11488.373325,-5514.419196,6280.310751
1189.918227,4748.527641,-6127.132440,8041.861327
1189.918523,-382.945777,-4518.760174,9420.466126
1189.918818,-3216.744531,-3446.511997,8807.752882
1189.919114,-9573.644437,-2067.907198,11411.784169
1189.919421,-14092.404612,-536.124088,16083.722655
1189.919722,-12866.978124,153.178311,14551.939545
1189.920023,-4978.295107,4748.527641,12484.032346
1189.920325,1991.318043,3216.744531,11488.373325
1189.920626,6433.489062,-689.302399,9956.590215
1189.920927,10262.946837,306.356622,7812.093861
1189.921229,13556.280523,-0.000000,5667.597507
1189.921530,10569.303459,-3446.511997,6356.899906
1189.921847,3599.690308,-3906.046930,9267.287815
1189.922147,-842.480710,-4059.225241,9803.411904
1189.922448,-4288.992708,-4212.403552,9267.287815
1189.922749,-11718.140791,-3140.155375,12560.621502
1189.923049,-12713.799813,-3752.868619,14475.350389
1189.923350,-12254.264880,-2221.085509,14475.350389
1189.923650,-3982.636086,2604.031287,12713.799813
1189.923951,2680.620442,2910.387909,11028.838392
1189.924233,6280.310751,1378.604799,10339.535992
1189.924529,11641.551636,3676.279464,7735.504705
1189.924825,12943.567279,3216.744531,6433.489062
1189.925121,9114.109504,1225.426488,5973.954129
1189.925418,3752.868619,765.891555,8041.861327
1189.925714,-2067.907198,-382.945777,9803.411904
1189.926010,-6663.256528,-2986.977064,9803.411904
1189.926306,-10952.249236,-2221.085509,13709.458834
1189.926618,-14245.582923,-3599.690308,15930.544344
1189.926917,-13173.334746,-4518.760174,16236.900966
1189.927216,-7658.915550,153.178311,14092.404612
1189.927516,-229.767466,1531.783110,11411.784169
1189.927815,7429.148083,2297.674665,8731.163727
1189.928114,9956.590215,1991.318043,6816.434839
1189.928413,11794.729947,765.891555,7275.969772
1189.928712,8501.396260,-995.659021,6969.613150
1189.929026,5054.884263,459.534933,8041.861327
1189.929324,-536.124088,-3906.046930,10109.768526
1189.929622,-5591.008351,-4212.403552,11564.962480
1189.929919,-6663.256528,-842.480710,11182.016703
1189.930217,-6510.078217,459.534933,10799.070925
1189.930515,-7122.791461,-2221.085509,14705.117856
1189.930813,-3369.922842,-0.000000,12866.978124
1189.931111,4518.760174,1225.426488,9573.644437
1189.931418,8348.217949,1531.783110,8960.931193
1189.931718,9420.466126,-1608.372265,7429.148083
1189.932017,9114.109504,-1608.372265,7735.504705
1189.932317,7888.683016,-1148.837332,6127.132440
1189.932617,1378.604799,-2680.620442,7888.683016
1189.932917,-5437.830040,-4518.760174,11641.551636
1189.933216,-10186.357681,-1914.728887,12330.854035
1189.933516,-12407.443191,-536.124088,13403.102212
1189.933811,-15547.598566,-1761.550576,16390.079277
1189.934111,-10186.357681,3523.101153,14168.993767
1189.934410,-1455.193954,7735.504705,11105.427547
1189.934710,6127.132440,7582.326394,8807.752882
1189.935010,9420.466126,2144.496354,7735.504705
1189.935310,9956.590215,-2067.907198,8118.450483
1189.935610,8195.039638,-5054.884263,8041.861327
1189.935909,5208.062574,-5361.240885,7658.915550
1189.936204,459.534933,-7812.093861,9267.287815
1189.936504,-3523.101153,-8424.807105,11794.729947
1189.936805,-4825.116796,-4901.705952,11105.427547
1189.937105,-8118.450483,-1302.015643,13709.458834
1189.937405,-7122.791461,765.891555,12177.675724
1189.937705,-4135.814397,3676.279464,11335.195014
1189.938005,-2374.263820,4135.814397,11718.140791
1189.938305,1072.248177,612.713244,9956.590215
1189.938617,2680.620442,-76.589155,10339.535992
1189.938917,5667.597507,-536.124088,8807.752882
1189.939217,8654.574571,-1761.550576,6893.023995
1189.939517,7275.969772,-842.480710,6356.899906
1189.939817,5514.419196,-2067.907198,7352.558928
1189.940117,-995.659021,-4518.760174,9880.001059
1189.940417,-4595.349330,-3446.511997,11871.319102
1189.940716,-9343.876971,-2986.977064,14015.815456
1189.941026,-10952.249236,-2374.263820,14475.350389
1189.941321,-5897.364973,1684.961421,14092.404612
1189.941616,-229.767466,4978.295107,10875.660081
1189.941912,5208.062574,3676.279464,9343.876971
1189.942207,7735.504705,5131.473418,8654.574571
1189.942502,9956.590215,4135.814397,6356.899906
1189.942798,8654.574571,153.178311,6663.256528
1189.943093,1378.604799,-1302.015643,9267.287815
1189.943400,-2604.031287,-2067.907198,10416.125148
1189.943699,-7199.380617,-3140.155375,10339.535992
1189.943998,-10339.535992,-1302.015643,12943.567279
1189.944297,-14322.172078,-3446.511997,15930.544344
1189.944596,-10033.179370,-995.659021,14628.528700
1189.944895,-2374.263820,1684.961421,12560.621502
1189.945194,3752.868619,-842.480710,10569.303459
1189.945493,6280.310751,-4059.225241,11335.195014
1189.945809,9497.055282,-2833.798753,8348.217949
1189.946110,10722.481770,-1302.015643,6433.489062
1189.946412,6739.845684,-5361.240885,7735.504705
1189.946714,1072.248177,-3140.155375,8195.039638
1189.947016,-76.589155,-382.945777,8424.807105
1189.947317,-4978.295107,-0.000000,9956.590215
1189.947619,-11871.319102,-76.589155,14858.296167
1189.947921,-11105.427547,3063.566220,15241.241944
1189.948235,-6663.256528,3829.457775,13249.923901
1189.948532,765.891555,4595.349330,11947.908258
1189.948828,3906.046930,1378.604799,11641.551636
1189.949124,8501.396260,-1302.015643,10109.768526
1189.949420,15011.474478,-995.659021,5514.419196
1189.949717,12024.497413,-5361.240885,6510.078217
1189.950013,8501.396260,-6893.023995,6969.613150
1189.950309,4059.225241,-2833.798753,6510.078217
1189.950597,-4748.527641,-1302.015643,9114.109504
1189.950897,-11718.140791,-3446.511997,11641.551636
1189.951197,-17921.862387,-536.124088,15700.776877
1189.951497,-16466.668432,1072.248177,15700.776877
1189.951797,-11564.962480,2144.496354,14934.885322
1189.952097,-2221.085509,5284.651729,13479.691368
1189.952397,8195.039638,5284.651729,9956.590215
1189.952697,17692.094920,5744.186662,5744.186662
1189.952996,19760.002119,3369.922842,4365.581863
1189.953295,12484.032346,-536.124088,6816.434839
1189.953595,4365.581863,-4671.938485,8654.574571
1189.953894,-4978.295107,-5973.954129,9267.287815
1189.954193,-8271.628794,-5820.775818,10033.179370
1189.954492,-12407.443191,-5514.419196,12866.978124
1189.954792,-16849.614210,-3293.333686,13939.226301
1189.955091,-11411.784169,153.178311,15547.598566
1189.955398,-8424.807105,919.069866,15853.955188
1189.955700,2986.977064,4978.295107,13939.226301
1189.956003,10569.303459,6203.721595,9114.109504
1189.956306,12637.210657,3369.922842,6433.489062
1189.956608,14168.993767,306.356622,6356.899906
1189.956911,10109.768526,-3446.511997,7199.380617
1189.957213,5514.419196,-5361.240885,7122.791461
1189.957516,-1455.193954,-5667.597507,7735.504705
1189.957785,-7352.558928,-6739.845684,12790.388968
1189.958090,-11258.605858,-5973.954129,12943.567279
1189.958395,-13173.334746,-995.659021,13403.102212
1189.958700,-12713.799813,-2527.442131,15853.955188
1189.959006,-8271.628794,-229.767466,14781.707011
1189.959311,2680.620442,3829.457775,11794.729947
1189.959616,11641.551636,5437.830040,9114.109504
1189.959922,15624.187722,2450.852976,7199.380617
1189.960195,16083.722655,1072.248177,6127.132440
1189.960495,16236.900966,1225.426488,4212.403552
1189.960795,9497.055282,-76.589155,5667.597507
1189.961095,-2450.852976,-2067.907198,9420.466126
1189.961395,-11564.962480,-4059.225241,11028.838392
1189.961695,-19070.699719,-2986.977064,14015.815456
1189.961995,-23972.405671,-3293.333686,16466.668432
1189.962295,-21598.141851,-4212.403552,18228.219009
1189.962612,-8577.985416,2910.387909,12943.567279
1189.962908,4518.760174,6816.434839,9497.055282
1189.963204,11488.373325,1378.604799,10722.481770
1189.963500,15471.009411,-536.124088,9573.644437
1189.963796,17385.738298,459.534933,6969.613150
1189.964092,15777.366033,-1914.728887,5054.884263
1189.964388,6127.132440,-3752.868619,6816.434839
1189.964684,-1761.550576,-2986.977064,9267.287815
1189.964984,-3369.922842,-0.000000,8807.752882
1189.965285,-10492.714303,1225.426488,10569.303459
1189.965586,-18534.575631,-382.945777,14015.815456
1189.965886,-18228.219009,-3599.690308,20142.947896
1189.966187,-10645.892614,765.891555,16083.722655
1189.966488,3140.155375,5897.364973,11641.551636
1189.966789,9497.055282,2297.674665,10339.535992
1189.967089,16543.257588,612.713244,6893.023995
1189.967397,18764.343097,2910.387909,6433.489062
1189.967693,18304.808164,1378.604799,3829.457775
1189.967990,6739.845684,-1914.728887,6050.543284
1189.968287,-4748.527641,-7199.380617,10109.768526
1189.968584,-11564.962480,-4825.116796,11105.427547
1189.968881,-18534.575631,-2374.263820,11105.427547
1189.969178,-21215.196073,-2374.263820,13556.280523
1189.969475,-18228.219009,-2986.977064,17462.327454
1189.969783,-4825.116796,1991.318043,14475.350389
1189.970082,9497.055282,6356.899906,9956.590215
1189.970381,17385.738298,3063.566220,8118.450483
1189.970680,19606.823808,-536.124088,6663.256528
1189.970979,17998.451542,-2680.620442,6816.434839
1189.971278,11871.319102,-4671.938485,5361.240885
1189.971577,1378.604799,-5667.597507,7429.148083
1189.971876,-8884.342038,-7046.202306,9573.644437
1189.972192,-17615.505765,-6893.023995,12713.799813
1189.972491,-21751.320162,-3752.868619,15241.241944
1189.972791,-22823.568339,-995.659021,15547.598566
1189.973090,-15088.063633,2297.674665,15930.544344
1189.973389,-3829.457775,6356.899906,13939.226301
1189.973688,6586.667373,6510.078217,13403.102212
1189.973987,16926.203365,4442.171019,8195.039638
1189.974287,23359.692427,3523.101153,3982.636086
1189.974604,21674.731006,-2374.263820,6280.310751
1189.974902,14551.939545,-5973.954129,5973.954129
1189.975199,5820.775818,-5973.954129,5667.597507
1189.975497,-5744.186662,-6586.667373,9343.876971
1189.975795,-14475.350389,-10033.179370,14168.993767
1189.976093,-19530.234652,-4901.705952,15547.598566
1189.976391,-17155.970832,1684.961421,14168.993767
1189.976688,-14245.582923,459.534933,14398.761234
1189.976988,-6203.721595,4442.171019,15241.241944
1189.977287,7429.148083,8348.217949,12866.978124
1189.977587,19147.288875,9573.644437,5820.775818
1189.977886,20219.537052,5131.473418,4595.349330
1189.978185,17538.916609,-536.124088,7429.148083
1189.978484,12790.388968,-1302.015643,6816.434839
1189.978783,3599.690308,-1302.015643,5820.775818
1189.979082,-5897.364973,-4825.116796,8195.039638
1189.979368,-14322.172078,-6586.667373,11488.373325
1189.979668,-21368.374384,-4671.938485,15164.652789
1189.979967,-21062.017762,-2221.085509,15317.831100
1189.980266,-19683.412963,-2067.907198,17692.094920
1189.980566,-9037.520349,1531.783110,16236.900966
1189.980865,4671.938485,3216.744531,11028.838392
1189.981164,14168.993767,3829.457775,7658.915550
1189.981464,19606.823808,1531.783110,5208.062574
1189.981771,18611.164786,-536.124088,5973.954129
1189.982071,16926.203365,-1302.015643,4518.760174
1189.982372,8501.396260,-689.302399,5437.830040
1189.982673,-3063.566220,-3293.333686,10416.125148
1189.982973,-12866.978124,-6280.310751,11182.016703
1189.983274,-20449.304518,-4901.705952,13709.458834
1189.983574,-22210.855095,-5820.775818,16926.203365
1189.983875,-17155.970832,-4059.225241,15700.776877
1189.984171,-4748.527641,-76.589155,15241.241944
1189.984471,8041.861327,1991.318043,12560.621502
1189.984772,18764.343097,3063.566220,8195.039638
1189.985072,22134.265939,4825.116796,5973.954129
1189.985373,21521.552695,3982.636086,3446.511997
1189.985673,16083.722655,2604.031287,3369.922842
1189.985973,1225.426488,-1761.550576,7429.148083
1189.986274,-9880.001059,-5514.419196,12943.567279
1189.986568,-17155.970832,-7046.202306,11794.729947
1189.986869,-19223.878030,-4059.225241,13173.334746
1189.987170,-17921.862387,-4901.705952,17002.792521
1189.987471,-11718.140791,-1455.193954,14245.582923
1189.987772,-2374.263820,4978.295107,13403.102212
1189.988073,7122.791461,5591.008351,10262.946837
1189.988374,11641.551636,3982.636086,8960.931193
1189.988674,15930.544344,3982.636086,6893.023995
1189.988963,15777.366033,2297.674665,5973.954129
1189.989265,9497.055282,-2986.977064,5361.240885
1189.989566,612.713244,-4825.116796,8654.574571
1189.989868,-3216.744531,-5054.884263,10109.768526
1189.990170,-10799.070925,-4671.938485,11258.605858
1189.990472,-19989.769585,-2986.977064,15088.063633
1189.990774,-19377.056341,-1455.193954,17309.149143
1189.991076,-15241.241944,1378.604799,14398.761234
1189.991397,-4595.349330,4135.814397,14168.993767
1189.991691,3293.333686,2910.387909,12560.621502
1189.991986,14551.939545,3523.101153,7275.969772
1189.992280,21368.374384,2910.387909,5667.597507
1189.992575,21521.552695,-1761.550576,5131.473418
1189.992869,15011.474478,-2833.798753,6356.899906
1189.993164,7122.791461,-5208.062574,7582.326394
1189.993458,-2910.387909,-6433.489062,9650.233593
1189.993766,-14781.707011,-5820.775818,13709.458834
1189.994066,-19683.412963,-4212.403552,14475.350389
1189.994366,-20755.661140,-2986.977064,15088.063633
1189.994667,-12560.621502,306.356622,13632.869679
1189.994967,-1914.728887,3676.279464,13556.280523
1189.995268,7735.504705,3982.636086,11488.373325
1189.995568,17692.094920,5897.364973,6510.078217
1189.995869,20066.358741,4288.992708,5667.597507
1189.996165,16619.846743,306.356622,5514.419196
1189.996463,7046.202306,-2986.977064,8118.450483
1189.996762,-1914.728887,-4901.705952,9420.466126
1189.997060,-9573.644437,-5820.775818,10722.481770
1189.997358,-17462.327454,-4059.225241,13249.923901
1189.997656,-19530.234652,-3140.155375,14168.993767
1189.997954,-17462.327454,-1302.015643,14475.350389
1189.998252,-9343.876971,1378.604799,13709.458834
1189.998566,-2221.085509,1225.426488,14628.528700
1189.998865,6739.845684,-229.767466,11718.140791
1189.999164,16083.722655,1225.426488,6050.543284
1189.999463,18764.343097,-229.767466,6816.434839
1189.999761,15164.652789,-3293.333686,6510.078217
1190.000060,8501.396260,-2680.620442,5514.419196
1190.000359,2297.674665,-1761.550576,8884.342038
1190.000657,-6050.543284,-3752.868619,10875.660081
1190.000969,-15088.063633,-3906.046930,12943.567279
1190.001269,-16466.668432,-229.767466,13709.458834
1190.001569,-12713.799813,-1761.550576,12866.978124
1190.001869,-8884.342038,-3140.155375,14245.582923
1190.002169,459.534933,-842.480710,15088.063633
1190.002469,10262.946837,765.891555,10492.714303
1190.002769,17538.916609,3369.922842,5208.062574
1190.003069,17845.273231,2757.209598,7122.791461
1190.003368,10875.660081,1378.604799,7735.504705
1190.003668,5667.597507,1684.961421,5667.597507
1190.003967,-1761.550576,919.069866,9267.287815
1190.004266,-9880.001059,-3140.155375,11335.195014
1190.004565,-15547.598566,-3140.155375,13173.334746
1190.004864,-15700.776877,-2221.085509,14322.172078
1190.005164,-10799.070925,-2527.442131,12330.854035
1190.005463,-5897.364973,-2221.085509,14705.117856
1190.005770,1991.318043,1225.426488,13249.923901
1190.006067,9114.109504,1072.248177,7582.326394
1190.006363,13709.458834,1838.139732,7429.148083
1190.006660,11641.551636,306.356622,8195.039638
1190.006957,9650.233593,-76.589155,7735.504705
1190.007253,4212.403552,-536.124088,6510.078217
1190.007550,-1608.372265,-1761.550576,10569.303459
1190.007847,-8118.450483,-4518.760174,11641.551636
1190.008167,-14322.172078,-2067.907198,13403.102212
1190.008464,-14628.528700,-1148.837332,15241.241944
1190.008761,-10952.249236,-2680.620442,12254.264880
1190.009058,-6050.543284,-1608.372265,12713.799813
1190.009355,1684.961421,-3293.333686,12713.799813
1190.009652,9420.466126,-1914.728887,7888.683016
1190.009949,15317.831100,-229.767466,7275.969772
1190.010246,15011.474478,-995.659021,6510.078217
1190.010565,13096.745590,-1455.193954,6280.310751
1190.010863,8041.861327,-76.589155,7812.093861
1190.011161,1684.961421,-3752.868619,8501.396260
1190.011459,-7965.272172,-5208.062574,11182.016703
1190.011757,-13479.691368,-3599.690308,13862.637145
1190.012056,-12101.086569,-3906.046930,14015.815456
1190.012354,-9343.876971,-4059.225241,12713.799813
1190.012652,-4825.116796,306.356622,12177.675724
1190.012965,-1455.193954,-1608.372265,12866.978124
1190.013263,4365.581863,1531.783110,10416.125148
1190.013562,11641.551636,6510.078217,6969.613150
1190.013861,12177.675724,6356.899906,5820.775818
1190.014159,9267.287815,2297.674665,7046.202306
1190.014458,4212.403552,3063.566220,9956.590215
1190.014756,765.891555,459.534933,9650.233593
1190.015055,-4135.814397,-1455.193954,9497.055282
1190.015354,-13020.156435,-4059.225241,14628.528700
1190.015655,-17615.505765,-9190.698660,17002.792521
1190.015956,-14322.172078,-6280.310751,14628.528700
1190.016256,-5284.651729,-995.659021,11794.729947
1190.016557,4518.760174,306.356622,9650.233593
1190.016858,9420.466126,1378.604799,9114.109504
1190.017159,14551.939545,4748.527641,6663.256528
1190.017459,16236.900966,4978.295107,5820.775818
1190.017766,8654.574571,3216.744531,7582.326394
1190.018063,2144.496354,-1302.015643,9650.233593
1190.018360,-5131.473418,-4825.116796,12101.086569
1190.018657,-11258.605858,-5514.419196,12484.032346
1190.018954,-11564.962480,-3293.333686,13709.458834
1190.019251,-13173.334746,-4365.581863,14934.885322
1190.019547,-8577.985416,-3293.333686,12943.567279
1190.019844,1684.961421,3216.744531,12407.443191
1190.020158,7888.683016,3829.457775,9573.644437
1190.020461,12637.210657,3369.922842,5744.186662
1190.020764,11335.195014,3982.636086,7888.683016
1190.021067,7582.326394,765.891555,6280.310751
1190.021370,5361.240885,-382.945777,6510.078217
1190.021672,-995.659021,-1302.015643,10722.481770
1190.021975,-8118.450483,-5820.775818,13939.226301
1190.022278,-10339.535992,-3140.155375,12866.978124
1190.022551,-10339.535992,765.891555,12177.675724
1190.022849,-6663.256528,919.069866,12484.032346
1190.023148,-4595.349330,459.534933,12254.264880
1190.023446,153.178311,3063.566220,12713.799813
1190.023745,5820.775818,1531.783110,7888.683016
1190.024043,7429.148083,-229.767466,6969.613150
1190.024341,7046.202306,-689.302399,10109.768526
1190.024640,6433.489062,-5208.062574,7275.969772
1190.024957,3599.690308,-2221.085509,6816.434839
1190.025255,459.534933,-229.767466,10033.179370
1190.025553,-5897.364973,-2833.798753,12101.086569
1190.025851,-9726.822748,-1302.015643,14781.707011
1190.026148,-8271.628794,2910.387909,13096.745590
1190.026446,-4442.171019,1838.139732,10416.125148
1190.026744,-4825.116796,612.713244,13020.156435
1190.027042,-536.124088,-1455.193954,12943.567279
1190.027341,7046.202306,-1302.015643,8731.163727
1190.027641,8501.396260,-1455.193954,6510.078217
1190.027941,7046.202306,-3293.333686,8501.396260
1190.028242,3446.511997,-5514.419196,11335.195014
1190.028542,1531.783110,-1148.837332,9267.287815
1190.028842,-1455.193954,1684.961421,10109.768526
1190.029142,-3982.636086,-382.945777,11411.784169
1190.029442,-6050.543284,2910.387909,10416.125148
1190.029732,-4288.992708,3216.744531,12790.388968
1190.030035,-4135.814397,-382.945777,12024.497413
1190.030337,-536.124088,1225.426488,13096.745590
1190.030640,5208.062574,-229.767466,11641.551636
1190.030943,8654.574571,-382.945777,7275.969772
1190.031245,5973.954129,-536.124088,8271.628794
1190.031548,4059.225241,-995.659021,8501.396260
1190.031850,1225.426488,-1148.837332,8195.039638
1190.032158,-2374.263820,-536.124088,9267.287815
1190.032458,-3216.744531,153.178311,10722.481770
1190.032758,-7122.791461,-1148.837332,11718.140791
1190.033058,-8271.628794,1072.248177,12330.854035
1190.033357,-8731.163727,-1302.015643,15241.241944
1190.033657,-7122.791461,-2374.263820,14475.350389
1190.033957,-229.767466,-229.767466,11335.195014
1190.034257,3752.868619,-1148.837332,10952.249236
1190.034540,6739.845684,-1148.837332,8118.450483
1190.034843,8654.574571,-229.767466,6586.667373
1190.035146,9497.055282,153.178311,6356.899906
1190.035449,6127.132440,-229.767466,7582.326394
1190.035752,459.534933,-76.589155,8960.931193
1190.036054,-1914.728887,-1608.372265,10492.714303
1190.036357,-7812.093861,-2527.442131,13326.513057
1190.036660,-9343.876971,-2221.085509,14015.815456
1190.036942,-8118.450483,-2833.798753,15317.831100
1190.037244,-3063.566220,-0.000000,12254.264880
1190.037547,2986.977064,1684.961421,10109.768526
1190.037850,4748.527641,-536.124088,12560.621502
1190.038153,5361.240885,-689.302399,9267.287815
1190.038455,9497.055282,3369.922842,6969.613150
1190.038758,8195.039638,3676.279464,6280.310751
1190.039061,5514.419196,612.713244,5514.419196
1190.039350,-3216.744531,153.178311,9497.055282
1190.039646,-5284.651729,-2067.907198,11028.838392
1190.039942,-7658.915550,-3906.046930,11794.729947
1190.040238,-10033.179370,-1914.728887,14168.993767
1190.040534,-9497.055282,-4059.225241,15853.955188
1190.040829,-6050.543284,-2221.085509,14628.528700
1190.041125,2297.674665,3829.457775,12101.086569
1190.041421,8041.861327,3216.744531,9114.109504
1190.041730,8195.039638,3216.744531,7582.326394
1190.042029,9420.466126,2910.387909,6280.310751
1190.042327,8501.396260,2604.031287,5973.954129
1190.042626,4212.403552,459.534933,6969.613150
1190.042924,-995.659021,-2680.620442,9573.644437
1190.043223,-5591.008351,-4518.760174,11411.784169
1190.043521,-10952.249236,-4671.938485,13403.102212
1190.043820,-12713.799813,-4901.705952,16543.257588
1190.044127,-12407.443191,-3906.046930,14934.885322
1190.044426,-5131.473418,-1302.015643,12790.388968
1190.044726,1838.139732,1072.248177,11028.838392
1190.045026,7429.148083,1072.248177,10186.357681
1190.045325,10875.660081,1531.783110,7658.915550
1190.045625,12484.032346,2757.209598,4595.349330
1190.045925,10875.660081,-536.124088,5208.062574
1190.046225,3140.155375,-2986.977064,7582.326394
1190.046521,-1302.015643,-3752.868619,10416.125148
1190.046821,-7122.791461,-4671.938485,11488.373325
1190.047120,-11105.427547,-2833.798753,13173.334746
1190.047420,-13479.691368,-4059.225241,16926.203365
1190.047719,-8884.342038,612.713244,14934.885322
1190.048019,459.534933,4288.992708,10875.660081
1190.048318,5973.954129,5437.830040,10952.249236
1190.048618,10262.946837,3216.744531,8041.861327
1190.048946,12177.675724,2297.674665,8271.628794
1190.049244,14168.993767,1225.426488,5054.884263
1190.049543,10416.125148,-2374.263820,5208.062574
1190.049842,-2067.907198,-6127.132440,8807.752882
1190.050141,-7122.791461,-5361.240885,9880.001059
1190.050439,-14092.404612,-6586.667373,13862.637145
1190.050738,-19070.699719,-4518.760174,15088.063633
1190.051037,-17002.792521,-2833.798753,16696.435899
1190.051325,-9880.001059,1072.248177,14168.993767
1190.051626,1072.248177,5744.186662,12407.443191
1190.051927,6739.845684,4748.527641,11182.016703
1190.052228,13403.102212,5131.473418,8654.574571
1190.052529,16543.257588,3982.636086,5591.008351
1190.052829,14245.582923,1072.248177,5437.830040
1190.053130,8041.861327,-3599.690308,7199.380617
1190.053431,-1148.837332,-3906.046930,8807.752882
1190.053740,-6203.721595,-4825.116796,10109.768526
1190.054036,-11411.784169,-5208.062574,12713.799813
1190.054332,-17002.792521,-4212.403552,15624.187722
1190.054628,-11947.908258,-995.659021,16007.133499
1190.054924,-7505.737239,1531.783110,13709.458834
1190.055221,459.534933,2910.387909,14168.993767
1190.055517,8041.861327,2297.674665,10645.892614
1190.055813,13709.458834,3676.279464,6356.899906
1190.056120,17845.273231,2910.387909,5131.473418
1190.056419,11794.729947,-1914.728887,6050.543284
1190.056717,6127.132440,-2680.620442,7735.504705
1190.057016,1378.604799,-689.302399,7888.683016
1190.057315,-7122.791461,-2067.907198,9573.644437
1190.057614,-15394.420255,-4825.116796,13939.226301
1190.057913,-18840.932253,-2067.907198,15011.474478
1190.058212,-14781.707011,-76.589155,15241.241944
1190.058528,-6510.078217,1225.426488,12024.497413
1190.058829,2680.620442,1072.248177,12407.443191
1190.059130,9956.590215,-842.480710,11411.784169
1190.059431,15624.187722,-536.124088,6893.023995
1190.059732,17385.738298,-229.767466,7352.558928
1190.060033,11871.319102,-2221.085509,5361.240885
1190.060334,5361.240885,-2986.977064,6816.434839
1190.060635,-4978.295107,-2067.907198,9267.287815
1190.060950,-10186.357681,-3599.690308,9956.590215
1190.061246,-18534.575631,-3140.155375,13709.458834
1190.061542,-17615.505765,-842.480710,15317.831100
1190.061838,-11718.140791,-1302.015643,15241.241944
1190.062135,-4825.116796,-536.124088,13862.637145
1190.062431,3140.155375,612.713244,11641.551636
1190.062727,9267.287815,-1761.550576,11182.016703
1190.063023,12943.567279,-1148.837332,9573.644437
1190.063312,15471.009411,-0.000000,6816.434839
1190.063611,15011.474478,153.178311,4748.527641
1190.063911,9420.466126,-689.302399,4748.527641
1190.064211,153.178311,-382.945777,8654.574571
1190.064511,-6050.543284,-2833.798753,10262.946837
1190.064811,-12713.799813,-1148.837332,12713.799813
1190.065111,-16313.490121,153.178311,15394.420255
1190.065411,-15394.420255,-842.480710,16849.614210
1190.065710,-9573.644437,1225.426488,13862.637145
1190.066010,-229.767466,4442.171019,12943.567279
1190.066309,5973.954129,765.891555,11564.962480
1190.066608,11871.319102,919.069866,9650.233593
1190.066908,17998.451542,3829.457775,6586.667373
1190.067207,17692.094920,1991.318043,2833.798753
1190.067506,11871.319102,-229.767466,4748.527641
1190.067805,612.713244,-2527.442131,8195.039638
1190.068112,-7199.380617,-3906.046930,10569.303459
1190.068416,-16849.614210,-2527.442131,14475.350389
1190.068719,-22057.676784,-3599.690308,15164.652789
1190.069022,-20142.947896,-4212.403552,16926.203365
1190.069326,-10033.179370,-842.480710,14858.296167
1190.069629,1225.426488,2144.496354,12330.854035
1190.069932,11488.373325,1991.318043,8960.931193
1190.070236,15777.366033,2910.387909,7812.093861
1190.070556,18764.343097,4135.814397,5820.775818
1190.070853,16619.846743,1072.248177,4442.171019
1190.071150,7275.969772,-2833.798753,6510.078217
1190.071447,-2450.852976,-4671.938485,8960.931193
1190.071744,-10952.249236,-9037.520349,9650.233593
1190.072041,-17462.327454,-8731.163727,14858.296167
1190.072338,-19683.412963,-8424.807105,16926.203365
1190.072635,-14628.528700,-8577.985416,14781.707011
1190.072908,-6663.256528,-2374.263820,14781.707011
1190.073208,5054.884263,1072.248177,11641.551636
1190.073509,12177.675724,2144.496354,9650.233593
1190.073809,16926.203365,5437.830040,7275.969772
1190.074109,20985.428607,5744.186662,5284.651729
1190.074409,16619.846743,4288.992708,3982.636086
1190.074709,6893.023995,1072.248177,5973.954129
1190.075009,-4442.171019,-2833.798753,10416.125148
1190.075326,-14245.582923,-5973.954129,12790.388968
1190.075625,-18840.932253,-4365.581863,13556.280523
1190.075924,-19530.234652,-4671.938485,16390.079277
1190.076222,-17921.862387,-5054.884263,17155.970832
1190.076521,-7352.558928,153.178311,15241.241944
1190.076820,6433.489062,4825.116796,11411.784169
1190.077118,15164.652789,4825.116796,7275.969772
1190.077417,18611.164786,4288.992708,5897.364973
1190.077716,16926.203365,3523.101153,6969.613150
1190.078014,12943.567279,1991.318043,5208.062574
1190.078311,5820.775818,1225.426488,6510.078217
1190.078609,-6050.543284,-2986.977064,10262.946837
1190.078906,-14628.528700,-5973.954129,12790.388968
1190.079204,-19070.699719,-3293.333686,14781.707011
1190.079501,-17309.149143,-995.659021,14168.993767
1190.079798,-14322.172078,-1914.728887,15241.241944
1190.080105,-6050.543284,-0.000000,15241.241944
1190.080407,4748.527641,2604.031287,10875.660081
1190.080709,13556.280523,1991.318043,8348.217949
1190.081011,17079.381676,612.713244,8041.861327
1190.081312,17692.094920,-842.480710,4288.992708
1190.081614,11794.729947,-2374.263820,5437.830040
1190.081916,5667.597507,-2986.977064,7735.504705
1190.082218,-4442.171019,-5054.884263,10416.125148
1190.082498,-9880.001059,-4518.760174,11641.551636
1190.082803,-12713.799813,-1148.837332,11718.140791
1190.083108,-13326.513057,-842.480710,13632.869679
1190.083413,-11871.319102,1072.248177,14322.172078
1190.083718,-5284.651729,1838.139732,13709.458834
1190.084023,2680.620442,1684.961421,11488.373325
1190.084329,7582.326394,-382.945777,10722.481770
1190.084634,14398.761234,-229.767466,8348.217949
1190.084907,16543.257588,1991.318043,4288.992708
1190.085209,14168.993767,1684.961421,5361.240885
1190.085512,2986.977064,-2833.798753,8271.628794
1190.085814,-8577.985416,-6280.310751,12101.086569
1190.086117,-14092.404612,-3293.333686,13862.637145
1190.086419,-19070.699719,-382.945777,13173.334746
1190.086722,-18994.110564,-3599.690308,14551.939545
1190.087024,-13939.226301,-3752.868619,14628.528700
1190.087296,-1608.372265,919.069866,13709.458834
1190.087597,11641.551636,1684.961421,8960.931193
1190.087898,16543.257588,919.069866,6280.310751
1190.088199,16926.203365,1072.248177,7582.326394
1190.088500,14858.296167,-2221.085509,7812.093861
1190.088801,7888.683016,-382.945777,6510.078217
1190.089102,3140.155375,612.713244,8501.396260
1190.089403,-7122.791461,-4365.581863,9956.590215
1190.089703,-14628.528700,-3446.511997,14398.761234
1190.090003,-14628.528700,-0.000000,14475.350389
1190.090303,-11718.140791,-842.480710,11641.551636
1190.090604,-7505.737239,-536.124088,12866.978124
1190.090904,-2374.263820,-1608.372265,14705.117856
1190.091204,2527.442131,-2680.620442,12790.388968
1190.091505,11794.729947,3523.101153,9573.644437
1190.091805,14245.582923,4442.171019,5208.062574
1190.092146,12177.675724,1838.139732,7122.791461
1190.092439,7888.683016,3369.922842,8348.217949
1190.092732,6739.845684,5897.364973,6280.310751
1190.093025,-1608.372265,612.713244,9267.287815
1190.093318,-10492.714303,-2986.977064,14322.172078
1190.093611,-16466.668432,-4671.938485,16849.614210
1190.093904,-11947.908258,-2986.977064,12790.388968
1190.094198,-6356.899906,-1761.550576,12560.621502
1190.094505,-5284.651729,-2833.798753,15088.063633
1190.094802,3599.690308,-3446.511997,12330.854035
1190.095099,12330.854035,2604.031287,6969.613150
1190.095396,17538.916609,5591.008351,4518.760174
1190.095694,11871.319102,459.534933,6969.613150
1190.095991,4059.225241,612.713244,8960.931193
1190.096288,-0.000000,765.891555,9343.876971
1190.096585,-8424.807105,-3293.333686,10416.125148
1190.096915,-17462.327454,-7046.202306,15088.063633
1190.097210,-17615.505765,-6586.667373,15088.063633
1190.097506,-10799.070925,-4212.403552,11641.551636
1190.097802,-4825.116796,-3140.155375,11641.551636
1190.098097,-689.302399,-2374.263820,12407.443191
1190.098393,6433.489062,-2680.620442,11258.605858
1190.098688,13709.458834,1378.604799,6203.721595
1190.098984,16390.079277,1838.139732,5361.240885
1190.099312,9114.109504,-2986.977064,6969.613150
1190.099607,6586.667373,-1608.372265,7122.791461
1190.099902,2144.496354,-842.480710,10262.946837
1190.100198,-4288.992708,-2527.442131,9803.411904
1190.100493,-7505.737239,-842.480710,12254.264880
1190.100789,-9497.055282,1225.426488,13096.745590
1190.101084,-7505.737239,-382.945777,11335.195014
1190.101380,-9573.644437,-842.480710,15853.955188
1190.101691,-5591.008351,-536.124088,14015.815456
1190.101992,2527.442131,1378.604799,11028.838392
1190.102293,8960.931193,6050.543284,8654.574571
1190.102594,9267.287815,6050.543284,7122.791461
1190.102895,8654.574571,4135.814397,6586.667373
1190.103195,6893.023995,4442.171019,6893.023995
1190.103496,2374.263820,765.891555,9956.590215
1190.103797,-4978.295107,-3906.046930,10875.660081
1190.104106,-12407.443191,-5361.240885,14934.885322
1190.104402,-13632.869679,-6127.132440,15547.598566
1190.104698,-12101.086569,-4901.705952,14168.993767
1190.104994,-5437.830040,-689.302399,12790.388968
1190.105290,2527.442131,1838.139732,9803.411904
1190.105586,7046.202306,153.178311,10416.125148
1190.105882,10875.660081,4442.171019,9037.520349
1190.106179,12484.032346,5437.830040,4901.705952
1190.106486,7275.969772,765.891555,7199.380617
1190.106786,306.356622,-3752.868619,10492.714303
1190.107086,-3982.636086,-6280.310751,11182.016703
1190.107387,-6816.434839,-6433.489062,11028.838392
1190.107687,-9573.644437,-5667.597507,10875.660081
1190.107988,-9343.876971,-7046.202306,12713.799813
1190.108288,-8271.628794,-4825.116796,14781.707011
1190.108589,-229.767466,-76.589155,11105.427547
1190.108885,7046.202306,2910.387909,9573.644437
1190.109188,10262.946837,1684.961421,8654.574571
1190.109491,9803.411904,2604.031287,8884.342038
1190.109794,10416.125148,4288.992708,7582.326394
1190.110097,9114.109504,3829.457775,4671.938485
1190.110400,2680.620442,919.069866,7735.504705
1190.110703,-8577.985416,-6127.132440,13096.745590
1190.111006,-13173.334746,-6280.310751,14858.296167
1190.111300,-11564.962480,-2986.977064,12866.978124
1190.111600,-9343.876971,-2374.263820,12790.388968
1190.111899,-6510.078217,-2833.798753,13173.334746
1190.112198,-842.480710,765.891555,13862.637145
1190.112497,9497.055282,2757.209598,8271.628794
1190.112797,11641.551636,3369.922842,7658.915550
1190.113096,10109.768526,2144.496354,8195.039638
1190.113395,7046.202306,459.534933,7122.791461
1190.113683,2297.674665,-229.767466,9650.233593
1190.113983,-1302.015643,-2986.977064,10109.768526
1190.114283,-7122.791461,-4365.581863,11335.195014
1190.114583,-10339.535992,-5667.597507,13786.047990
1190.114883,-11411.784169,-2833.798753,14628.528700
1190.115183,-7505.737239,-1608.372265,13096.745590
1190.115483,-1761.550576,2450.852976,10952.249236
1190.115783,1838.139732,2910.387909,11335.195014
1190.116083,5514.419196,612.713244,10722.481770
1190.116383,9650.233593,3216.744531,8654.574571
1190.116683,8348.217949,4288.992708,7429.148083
1190.116983,4671.938485,-2067.907198,8424.807105
1190.117283,-1761.550576,-3446.511997,9726.822748
1190.117583,-689.302399,-382.945777,9573.644437
1190.117883,-2604.031287,-2067.907198,8654.574571
1190.118183,-7352.558928,-3446.511997,12101.086569
1190.118490,-5744.186662,-1761.550576,14551.939545
1190.118791,-3216.744531,-2067.907198,11335.195014
1190.119093,2144.496354,765.891555,11641.551636
1190.119394,5054.884263,1531.783110,10569.303459
1190.119696,9420.466126,1072.248177,7582.326394
1190.119997,9420.466126,2604.031287,7888.683016
1190.120299,6739.845684,765.891555,7582.326394
1190.120600,459.534933,-2833.798753,10033.179370
1190.120917,-2221.085509,-1302.015643,10875.660081
1190.121210,-5897.364973,-842.480710,9650.233593
1190.121504,-7965.272172,-3140.155375,11641.551636
1190.121797,-11871.319102,-3752.868619,13862.637145
1190.122091,-10492.714303,-1761.550576,14245.582923
1190.122385,-7122.791461,-2680.620442,12790.388968
1190.122678,-2067.907198,-1148.837332,12024.497413
1190.122972,3906.046930,-995.659021,12560.621502
1190.123291,8501.396260,-1302.015643,9650.233593
1190.123589,10875.660081,919.069866,9190.698660
1190.123887,11028.838392,1378.604799,6127.132440
1190.124185,7122.791461,-842.480710,6280.310751
1190.124484,-229.767466,-229.767466,9726.822748
1190.124782,-3676.279464,-2680.620442,9497.055282
1190.125080,-10492.714303,-2374.263820,11258.605858
1190.125378,-13173.334746,-2680.620442,13403.102212
1190.125691,-11947.908258,-2680.620442,14475.350389
1190.125990,-7658.915550,-1761.550576,13096.745590
1190.126288,2527.442131,1684.961421,11488.373325
1190.126587,6893.023995,1378.604799,9650.233593
1190.126885,13556.280523,-229.767466,9497.055282
1190.127183,15624.187722,4135.814397,7199.380617
1190.127482,15164.652789,3676.279464,5361.240885
1190.127780,6739.845684,1225.426488,5897.364973
1190.128080,-1302.015643,919.069866,8960.931193
1190.128378,-8884.342038,-995.659021,12101.086569
1190.128675,-14475.350389,-1455.193954,11641.551636
1190.128972,-17155.970832,-1608.372265,13403.102212
1190.129270,-14322.172078,-1455.193954,14781.707011
1190.129567,-9573.644437,-4365.581863,14092.404612
1190.129865,1838.139732,612.713244,13709.458834
1190.130162,10569.303459,1838.139732,9573.644437
1190.130469,13709.458834,1838.139732,10262.946837
1190.130772,16773.025054,3216.744531,8041.861327
1190.131076,13249.923901,4748.527641,4518.760174
1190.131379,6893.023995,1838.139732,6510.078217
1190.131683,-4978.295107,-2680.620442,9803.411904
1190.131986,-9726.822748,-3906.046930,11641.551636
1190.132289,-13632.869679,-5208.062574,13096.745590
1190.132593,-17002.792521,-6586.667373,13556.280523
1190.132896,-16313.490121,-7199.380617,16236.900966
1190.133196,-9497.055282,-6586.667373,15930.544344
1190.133495,1072.248177,-1455.193954,12943.567279
1190.133795,12330.854035,2910.387909,9803.411904
1190.134094,14551.939545,2910.387909,8348.217949
1190.134394,18457.986475,4978.295107,4748.527641
1190.134693,17998.451542,5744.186662,2757.209598
1190.134993,7888.683016,-229.767466,6893.023995
1190.135311,-5284.651729,-4901.705952,9956.590215
1190.135607,-9880.001059,-6127.132440,12407.443191
1190.135903,-13326.513057,-6586.667373,12560.621502
1190.136199,-15700.776877,-5514.419196,13786.047990
1190.136496,-15394.420255,-6280.310751,16007.133499
1190.136792,-7658.915550,-0.000000,13249.923901
1190.137088,4518.760174,4595.349330,10262.946837
1190.137384,11641.551636,4135.814397,9190.698660
1190.137656,15164.652789,2910.387909,7658.915550
1190.137957,18457.986475,3063.566220,7735.504705
1190.138258,17692.094920,3676.279464,3676.279464
1190.138559,9497.055282,153.178311,5820.775818
1190.138860,-3676.279464,-1148.837332,9420.466126
1190.139160,-12407.443191,-4901.705952,12177.675724
1190.139461,-20296.126207,-4212.403552,14092.404612
1190.139762,-22210.855095,-1761.550576,15547.598566
1190.140062,-19530.234652,-4212.403552,16466.668432
1190.140362,-8884.342038,-995.659021,15700.776877
1190.140662,4748.527641,3063.566220,12560.621502
1190.140962,16390.079277,3676.279464,8501.396260
1190.141263,17538.916609,2450.852976,8654.574571
1190.141563,19913.180430,1991.318043,6127.132440
1190.141863,14015.815456,612.713244,5208.062574
1190.142163,4901.705952,-842.480710,7735.504705
1190.142453,-7199.380617,-3599.690308,9114.109504
1190.142756,-15241.241944,-5667.597507,12713.799813
1190.143058,-20142.947896,-5973.954129,15394.420255
1190.143361,-19530.234652,-3446.511997,15547.598566
1190.143664,-14245.582923,-2833.798753,13939.226301
1190.143966,-7505.737239,-995.659021,14015.815456
1190.144269,4518.760174,1225.426488,12560.621502
1190.144571,15624.187722,2144.496354,9267.287815
1190.144913,22440.622561,4135.814397,6050.543284
1190.145207,24661.708071,3829.457775,3982.636086
1190.145502,18917.521408,612.713244,4595.349330
1190.145796,9803.411904,-229.767466,6280.310751
1190.146090,459.534933,-229.767466,7122.791461
1190.146384,-13173.334746,-3599.690308,10645.892614
1190.146678,-24738.297226,-6739.845684,14858.296167
1190.146972,-27725.274291,-7046.202306,17615.505765
1190.147255,-21215.196073,-4059.225241,15624.187722
1190.147558,-11564.962480,-2374.263820,14934.885322
1190.147861,765.891555,-382.945777,13709.458834
1190.148164,16236.900966,3369.922842,8348.217949
1190.148467,25887.134559,7735.504705,6050.543284
1190.148770,27955.041757,6816.434839,2833.798753
1190.149073,19453.645497,2144.496354,5054.884263
1190.149376,6739.845684,459.534933,8041.861327
1190.149657,-5131.473418,-1761.550576,8807.752882
1190.149956,-18381.397320,-6739.845684,12407.443191
1190.150255,-26806.204425,-7658.915550,15394.420255
1190.150554,-28337.987535,-8118.450483,18764.343097
1190.150853,-20908.839451,-5820.775818,17309.149143
1190.151151,-7505.737239,-2221.085509,14781.707011
1190.151450,7046.202306,1072.248177,12024.497413
1190.151749,16236.900966,1684.961421,9420.466126
1190.152061,24355.351449,4825.116796,5514.419196
1190.152361,24508.529760,5591.008351,5054.884263
1190.152661,18457.986475,3676.279464,3676.279464
1190.152961,7735.504705,2450.852976,6433.489062
1190.153261,-4442.171019,-0.000000,8960.931193
1190.153561,-11947.908258,-3140.155375,11411.784169
1190.153861,-21598.141851,-4212.403552,14015.815456
1190.154161,-20449.304518,-3906.046930,16849.614210
1190.154447,-16619.846743,-3446.511997,14858.296167
1190.154749,-6969.613150,-382.945777,14398.761234
1190.155050,2527.442131,-76.589155,12943.567279
1190.155352,13249.923901,1838.139732,9114.109504
1190.155654,22900.157494,5897.364973,5514.419196
1190.155956,23895.816516,5437.830040,3369.922842
1190.156258,18304.808164,1072.248177,3599.690308
1190.156560,6739.845684,153.178311,7888.683016
1190.156906,-1302.015643,-995.659021,8654.574571
1190.157199,-14781.707011,-5208.062574,11794.729947
1190.157492,-23972.405671,-5514.419196,13786.047990
1190.157785,-26653.026114,-5667.597507,17232.559987
1190.158079,-23436.281583,-6433.489062,17462.327454
1190.158372,-12866.978124,-1761.550576,16236.900966
1190.158665,1991.318043,459.534933,13096.745590
1190.158959,13862.637145,1531.783110,9650.233593
1190.159255,21674.731006,3982.636086,6969.613150
1190.159555,27955.041757,6356.899906,2680.620442
1190.159854,21368.374384,3216.744531,2986.977064
1190.160154,9114.109504,-382.945777,7122.791461
1190.160453,-5591.008351,-6433.489062,11105.427547
1190.160753,-16696.435899,-7505.737239,13632.869679
1190.161053,-21904.498473,-5054.884263,14015.815456
1190.161352,-23589.459894,-6893.023995,15624.187722
1190.161647,-17768.684076,-4365.581863,16849.614210
1190.161947,-7122.791461,2297.674665,14781.707011
1190.162247,8807.752882,5744.186662,10339.535992
1190.162548,16236.900966,5897.364973,6969.613150
1190.162848,22593.800872,6356.899906,5667.597507
1190.163148,23512.870738,4978.295107,4748.527641
1190.163448,17998.451542,3982.636086,3369.922842
1190.163748,7735.504705,919.069866,5820.775818
1190.164060,-5591.008351,-5667.597507,10109.768526
1190.164357,-18075.040698,-9497.055282,13556.280523
1190.164655,-21904.498473,-7199.380617,14168.993767
1190.164952,-19836.591274,-6893.023995,14092.404612
1190.165250,-16160.311810,-4901.705952,15241.241944
1190.165547,-5131.473418,153.178311,13786.047990
1190.165844,5820.775818,3216.744531,11028.838392
1190.166142,14705.117856,5897.364973,8654.574571
1190.166451,20219.537052,8654.574571,6127.132440
1190.166750,17232.559987,4288.992708,5973.954129
1190.167050,12177.675724,4288.992708,6510.078217
1190.167349,2527.442131,-0.000000,8348.217949
1190.167649,-9190.698660,-5820.775818,11182.016703
1190.167948,-16313.490121,-8271.628794,13786.047990
1190.168247,-19377.056341,-7658.915550,15700.776877
1190.168547,-17921.862387,-8118.450483,14475.350389
1190.168854,-12254.264880,-6586.667373,14628.528700
1190.169152,-4595.349330,-1148.837332,14398.761234
1190.169450,5973.954129,-1148.837332,10722.481770
1190.169748,14245.582923,3523.101153,8195.039638
1190.170046,20219.537052,5437.830040,5820.775818
1190.170345,18457.986475,3369.922842,6127.132440
1190.170643,10416.125148,1531.783110,7582.326394
1190.170941,3293.333686,1991.318043,8731.163727
1190.171257,-4135.814397,-1302.015643,10262.946837
1190.171556,-14245.582923,-4518.760174,12407.443191
1190.171854,-14628.528700,-5208.062574,14015.815456
1190.172152,-12713.799813,-4901.705952,13249.923901
1190.172451,-7965.272172,-2527.442131,12254.264880
1190.172749,-1302.015643,-2067.907198,12637.210657
1190.173048,6127.132440,-2374.263820,9803.411904
1190.173346,12943.567279,1072.248177,7505.737239
1190.173660,12943.567279,1838.139732,6816.434839
1190.173959,10569.303459,306.356622,7046.202306
1190.174258,8501.396260,2450.852976,6816.434839
1190.174556,2833.798753,2604.031287,8195.039638
1190.174855,-4135.814397,-4212.403552,10875.660081
1190.175154,-10339.535992,-3599.690308,12943.567279
1190.175453,-12713.799813,-2986.977064,12790.388968
1190.175751,-14628.528700,-3140.155375,13403.102212
1190.176039,-13939.226301,-1148.837332,14705.117856
1190.176339,-7122.791461,-995.659021,14015.815456
1190.176639,459.534933,-995.659021,11641.551636
1190.176939,7888.683016,1378.604799,9650.233593
1190.177239,13556.280523,2757.209598,8195.039638
1190.177539,15777.366033,612.713244,6816.434839
1190.177839,10722.481770,612.713244,8577.985416
1190.178139,4901.705952,-229.767466,9803.411904
1190.178438,-1914.728887,-2374.263820,9037.520349
1190.178738,-11871.319102,-4059.225241,11794.729947
1190.179037,-14092.404612,-2067.907198,14168.993767
1190.179336,-13479.691368,-3599.690308,14015.815456
1190.179635,-7122.791461,1378.604799,12101.086569
1190.179934,-0.000000,1838.139732,11871.319102
1190.180234,4365.581863,-689.302399,12713.799813
1190.180533,11641.551636,2604.031287,9573.644437
1190.180840,17845.273231,7582.326394,6203.721595
1190.181139,15624.187722,4442.171019,4442.171019
1190.181439,7429.148083,3369.922842,7275.969772
1190.181738,459.534933,612.713244,10569.303459
1190.182037,-6969.613150,-2680.620442,11028.838392
1190.182336,-12713.799813,-3293.333686,11641.551636
1190.182636,-15700.776877,-5054.884263,12177.675724
1190.182935,-16466.668432,-7812.093861,14934.885322
1190.183255,-9497.055282,-4518.760174,14934.885322
1190.183556,306.356622,306.356622,11182.016703
1190.183856,7735.504705,1531.783110,8884.342038
1190.184157,13096.745590,4288.992708,7582.326394
1190.184457,14551.939545,5284.651729,7122.791461
1190.184757,12177.675724,3063.566220,7122.791461
1190.185058,7122.791461,1378.604799,8348.217949
1190.185358,1531.783110,-1914.728887,8195.039638
1190.185677,-6356.899906,-7352.558928,11028.838392
1190.185970,-15394.420255,-10952.249236,15088.063633
1190.186264,-18534.575631,-11871.319102,16390.079277
1190.186557,-14092.404612,-10186.357681,13786.047990
1190.186851,-6663.256528,-3906.046930,13249.923901
1190.187144,612.713244,-1455.193954,11794.729947
1190.187438,5973.954129,1531.783110,9420.466126
1190.187731,10416.125148,7735.504705,8348.217949
1190.188049,13249.923901,7429.148083,5208.062574
1190.188345,10416.125148,5284.651729,7429.148083
1190.188641,4059.225241,2910.387909,9267.287815
1190.188937,4365.581863,2450.852976,7735.504705
1190.189233,-2450.852976,-842.480710,10109.768526
1190.189529,-6663.256528,-3599.690308,11488.373325
1190.189825,-9880.001059,-5820.775818,14015.815456
1190.190121,-8118.450483,-4671.938485,13249.923901
1190.190421,-6969.613150,-2067.907198,12407.443191
1190.190721,-689.302399,-1148.837332,10875.660081
1190.191021,2986.977064,765.891555,9650.233593
1190.191322,9267.287815,4978.295107,7735.504705
1190.191622,13556.280523,5897.364973,6280.310751
1190.191922,12637.210657,6356.899906,6816.434839
1190.192223,8501.396260,4825.116796,7658.915550
1190.192523,-1148.837332,-2527.442131,12101.086569
1190.192830,-13326.513057,-5667.597507,15853.955188
1190.193131,-13479.691368,-2374.263820,13939.226301
1190.193432,-13020.156435,-2221.085509,12254.264880
1190.193732,-11718.140791,-3446.511997,12254.264880
1190.194033,-6816.434839,-2067.907198,14781.707011
1190.194334,612.713244,-842.480710,12254.264880
1190.194635,8654.574571,2297.674665,8118.450483
1190.194936,10722.481770,2144.496354,7429.148083
1190.195216,9114.109504,-536.124088,8041.861327
1190.195521,5820.775818,-995.659021,8807.752882
1190.195826,2986.977064,-1148.837332,9190.698660
1190.196132,-2067.907198,-2986.977064,10569.303459
1190.196437,-7352.558928,-3599.690308,12254.264880
1190.196742,-9880.001059,-3140.155375,13173.334746
1190.197047,-7965.272172,-995.659021,13862.637145
1190.197352,-3829.457775,765.891555,12407.443191
1190.197625,2680.620442,2910.387909,9114.109504
1190.197928,8960.931193,3216.744531,6893.023995
1190.198230,8807.752882,2910.387909,8807.752882
1190.198533,8041.861327,765.891555,7965.272172
1190.198835,4748.527641,-2221.085509,8807.752882
1190.199138,3599.690308,-1761.550576,7735.504705
1190.199440,-1148.837332,-3140.155375,9956.590215
1190.199743,-6663.256528,-5208.062574,12560.621502
1190.200015,-10952.249236,-4365.581863,12713.799813
1190.200316,-10492.714303,-1608.372265,11718.140791
1190.200617,-5744.186662,-995.659021,11488.373325
1190.200918,-4595.349330,-0.000000,13403.102212
1190.201219,3752.868619,1838.139732,10186.357681
1190.201520,8348.217949,4288.992708,7888.683016
1190.201820,10569.303459,3216.744531,6969.613150
1190.202121,6739.845684,153.178311,8960.931193
1190.202421,4059.225241,-1608.372265,9343.876971
1190.202720,459.534933,-1914.728887,9573.644437
1190.203020,-4978.295107,-4901.705952,11488.373325
1190.203319,-9880.001059,-8118.450483,12790.388968
1190.203618,-10952.249236,-5208.062574,15241.241944
1190.203917,-8118.450483,-2374.263820,14168.993767
1190.204216,-3829.457775,-842.480710,11794.729947
1190.204515,-842.480710,1378.604799,10875.660081
1190.204829,4518.760174,2450.852976,9956.590215
1190.205128,2833.798753,-76.589155,10875.660081
1190.205427,5514.419196,1684.961421,10109.768526
1190.205725,7275.969772,2910.387909,6280.310751
1190.206024,6280.310751,1225.426488,8041.861327
1190.206323,919.069866,-382.945777,9497.055282
1190.206622,765.891555,-995.659021,9880.001059
1190.206920,919.069866,153.178311,10492.714303
1190.207228,-3523.101153,-0.000000,10416.125148
1190.207525,-6969.613150,-1608.372265,13096.745590
1190.207822,-10186.357681,-3140.155375,13326.513057
1190.208119,-5744.186662,-229.767466,13173.334746
1190.208416,-1608.372265,-76.589155,10569.303459
1190.208714,4518.760174,459.534933,9114.109504
1190.209011,8195.039638,1531.783110,7735.504705
1190.209308,11641.551636,4135.814397,5820.775818
1190.209638,9650.233593,919.069866,7735.504705
