#time,accel_x,accel_y,accel_z
1141.400958,153.178311,-536.124088,10262.946837
1141.401255,153.178311,-689.302399,10569.303459
1141.401552,-76.589155,-689.302399,10262.946837
1141.401849,-76.589155,-536.124088,10416.125148
1141.402146,-76.589155,-842.480710,10416.125148
1141.402493,-382.945777,-1148.837332,10416.125148
1141.402788,-382.945777,-1302.015643,10416.125148
1141.403083,-536.124088,-1148.837332,10569.303459
1141.403378,-382.945777,-995.659021,10262.946837
1141.403672,-0.000000,-842.480710,10262.946837
1141.403967,-76.589155,-382.945777,10416.125148
1141.404262,2144.496354,-0.000000,10416.125148
1141.404557,5361.240885,-229.767466,10109.768526
1141.404870,8807.752882,-0.000000,9573.644437
1141.405166,12637.210657,-0.000000,9650.233593
1141.405462,17998.451542,459.534933,8654.574571
1141.405758,19147.288875,153.178311,8884.342038
1141.406054,21291.785229,-76.589155,9420.466126
1141.406350,19760.002119,459.534933,9650.233593
1141.406646,17998.451542,1531.783110,10109.768526
1141.406942,17385.738298,1072.248177,9573.644437
1141.407242,14858.296167,1225.426488,9803.411904
1141.407543,14551.939545,1225.426488,10569.303459
1141.407844,16083.722655,-229.767466,10569.303459
1141.408144,20832.250296,459.534933,10262.946837
1141.408445,27035.971891,612.713244,9573.644437
1141.408746,29563.414023,-76.589155,8577.985416
1141.409047,25121.243004,-2067.907198,10186.357681
1141.409348,18611.164786,-4212.403552,13939.226301
1141.409655,11182.016703,-4518.760174,15317.831100
1141.409951,8960.931193,-1455.193954,13709.458834
1141.410247,5820.775818,459.534933,13862.637145
1141.410543,3140.155375,1225.426488,14858.296167
1141.410840,4748.527641,3216.744531,15930.544344
1141.411136,10109.768526,6050.543284,13020.156435
1141.411432,18764.343097,8654.574571,8501.396260
1141.411728,23895.816516,7275.969772,7429.148083
1141.412036,23053.335805,2297.674665,7735.504705
1141.412338,23742.638205,-2680.620442,8807.752882
1141.412640,23206.514116,-7352.558928,9037.520349
1141.412942,23512.870738,-10799.070925,8041.861327
1141.413244,21291.785229,-12330.854035,8195.039638
1141.413546,15317.831100,-10339.535992,9650.233593
1141.413848,8195.039638,-5514.419196,11028.838392
1141.414150,-382.945777,-536.124088,13709.458834
1141.414497,-7658.915550,3369.922842,14705.117856
1141.414789,-12866.978124,6663.256528,14781.707011
1141.415081,-15394.420255,8501.396260,12637.210657
1141.415373,-10952.249236,6510.078217,9726.822748
1141.415665,612.713244,-76.589155,8501.396260
1141.415956,13249.923901,-4825.116796,6663.256528
1141.416248,23742.638205,-5667.597507,4288.992708
1141.416540,26040.312870,-6739.845684,4748.527641
1141.416857,18457.986475,-5667.597507,9267.287815
1141.417155,7735.504705,-1608.372265,11794.729947
1141.417453,-8424.807105,2450.852976,14781.707011
1141.417751,-23436.281583,4135.814397,16773.025054
1141.418049,-30712.251355,6510.078217,17155.970832
1141.418346,-32167.445310,2757.209598,15394.420255
1141.418644,-28184.809224,-2833.798753,15547.598566
1141.418942,-11105.427547,-8271.628794,12790.388968
1141.419242,12943.567279,-9726.822748,9114.109504
1141.419542,34618.298286,-9037.520349,2680.620442
1141.419842,48251.167965,-5667.597507,995.659021
1141.420142,45876.904144,-2680.620442,3676.279464
1141.420442,36379.848862,1838.139732,5514.419196
1141.420742,19147.288875,6969.613150,8348.217949
1141.421042,-4442.171019,6816.434839,11258.605858
1141.421342,-24278.762293,5744.186662,15547.598566
1141.421633,-35690.546463,3523.101153,17309.149143
1141.421931,-38983.880149,1225.426488,17462.327454
1141.422230,-31095.197133,-2680.620442,15853.955188
1141.422529,-19683.412963,-3446.511997,14705.117856
1141.422827,-7199.380617,-3140.155375,12790.388968
1141.423126,8654.574571,-2680.620442,8041.861327
1141.423425,18994.110564,-842.480710,5054.884263
1141.423724,26729.615269,153.178311,3293.333686
1141.424031,26423.258647,-76.589155,5054.884263
1141.424335,20525.893674,1225.426488,6280.310751
1141.424640,12024.497413,2297.674665,7812.093861
1141.424945,-1302.015643,1838.139732,10875.660081
1141.425249,-13939.226301,-76.589155,13709.458834
1141.425554,-22057.676784,-1148.837332,15241.241944
1141.425858,-24738.297226,-1302.015643,14628.528700
1141.426163,-18075.040698,-2221.085509,12560.621502
1141.426445,-6663.256528,-1914.728887,10569.303459
1141.426747,9267.287815,153.178311,8501.396260
1141.427050,21981.087628,2757.209598,7429.148083
1141.427352,27342.328513,5897.364973,6816.434839
1141.427654,23895.816516,5591.008351,7582.326394
1141.427956,12943.567279,3369.922842,9803.411904
1141.428259,-995.659021,-0.000000,12330.854035
1141.428561,-12560.621502,-4365.581863,13173.334746
1141.428843,-17002.792521,-7352.558928,13556.280523
1141.429139,-16160.311810,-7658.915550,13939.226301
1141.429435,-12407.443191,-4518.760174,12713.799813
1141.429731,-9497.055282,-2833.798753,12560.621502
1141.430027,-7965.272172,-2680.620442,14015.815456
1141.430324,-3369.922842,-4212.403552,13632.869679
1141.430620,3446.511997,-229.767466,11028.838392
1141.430916,12637.210657,2144.496354,6969.613150
1141.431228,17845.273231,3523.101153,4518.760174
1141.431527,18917.521408,4595.349330,5667.597507
1141.431826,14168.993767,5131.473418,7888.683016
1141.432125,3906.046930,3829.457775,10492.714303
1141.432425,-7812.093861,306.356622,12713.799813
1141.432724,-14934.885322,-3140.155375,12101.086569
1141.433023,-19530.234652,-4365.581863,11947.908258
1141.433322,-18687.753942,-5973.954129,12713.799813
1141.433631,-11105.427547,-7812.093861,11641.551636
1141.433930,919.069866,-4825.116796,10416.125148
1141.434228,10262.946837,-842.480710,8960.931193
1141.434527,14015.815456,2604.031287,9267.287815
1141.434825,12177.675724,4135.814397,9267.287815
1141.435124,10109.768526,5897.364973,7888.683016
1141.435422,4212.403552,4442.171019,7275.969772
1141.435721,-1148.837332,1684.961421,9420.466126
1141.436028,-4825.116796,-0.000000,9650.233593
1141.436327,-4288.992708,-229.767466,10262.946837
1141.436626,-6356.899906,2450.852976,12024.497413
1141.436925,-6816.434839,4442.171019,11718.140791
1141.437223,-6816.434839,3676.279464,11335.195014
1141.437522,-7505.737239,306.356622,12177.675724
1141.437821,-7122.791461,-4901.705952,12637.210657
1141.438120,-1914.728887,-7505.737239,11794.729947
1141.438417,7275.969772,-7812.093861,9037.520349
1141.438716,14551.939545,-6739.845684,7122.791461
1141.439016,11182.016703,-5973.954129,9573.644437
1141.439315,4365.581863,-3293.333686,12407.443191
1141.439615,-842.480710,-229.767466,12101.086569
1141.439914,-4978.295107,2297.674665,9956.590215
1141.440214,-10339.535992,919.069866,10569.303459
1141.440513,-12101.086569,-995.659021,12560.621502
1141.440808,-6356.899906,-536.124088,11335.195014
1141.441108,2297.674665,2144.496354,9420.466126
1141.441409,6280.310751,1991.318043,9956.590215
1141.441709,5973.954129,1225.426488,11718.140791
1141.442009,5667.597507,306.356622,10875.660081
1141.442309,3599.690308,-2067.907198,9573.644437
1141.442609,-0.000000,-6280.310751,8731.163727
1141.442909,-842.480710,-11258.605858,8807.752882
1141.443221,-1148.837332,-11411.784169,10262.946837
1141.443522,-842.480710,-8424.807105,10569.303459
1141.443823,-4825.116796,-3906.046930,10952.249236
1141.444123,-6050.543284,-536.124088,11028.838392
1141.444424,-6510.078217,1378.604799,12254.264880
1141.444725,-5897.364973,3676.279464,11641.551636
1141.445025,-2450.852976,5591.008351,10492.714303
1141.445326,4518.760174,7275.969772,8195.039638
1141.445635,12024.497413,8501.396260,6280.310751
1141.445931,13403.102212,8960.931193,6816.434839
1141.446226,7735.504705,4595.349330,11488.373325
1141.446521,-0.000000,153.178311,14015.815456
1141.446817,-4595.349330,-3752.868619,13096.745590
1141.447112,-8118.450483,-5054.884263,11641.551636
1141.447407,-8884.342038,-5973.954129,10569.303459
1141.447703,-6969.613150,-6586.667373,10569.303459
1141.448010,-2757.209598,-5514.419196,10569.303459
1141.448312,-689.302399,-1608.372265,12254.264880
1141.448614,-536.124088,1225.426488,12713.799813
1141.448917,-1914.728887,2297.674665,12866.978124
1141.449219,1991.318043,3523.101153,10492.714303
1141.449521,5208.062574,5284.651729,8195.039638
1141.449823,6280.310751,2910.387909,7888.683016
1141.450126,7046.202306,153.178311,8960.931193
1141.450442,8348.217949,765.891555,9114.109504
1141.450740,5973.954129,2297.674665,9267.287815
1141.451039,765.891555,1225.426488,10492.714303
1141.451337,-6203.721595,-1302.015643,10875.660081
1141.451636,-10186.357681,-4671.938485,12101.086569
1141.451934,-12407.443191,-8577.985416,12024.497413
1141.452232,-9497.055282,-8731.163727,12254.264880
1141.452531,-2221.085509,-8271.628794,9803.411904
1141.452845,5208.062574,-5820.775818,8884.342038
1141.453140,7429.148083,-2221.085509,9956.590215
1141.453435,7122.791461,-382.945777,10722.481770
1141.453730,5361.240885,2450.852976,9573.644437
1141.454025,1378.604799,1991.318043,8960.931193
1141.454320,-3369.922842,306.356622,10262.946837
1141.454615,-5591.008351,-1761.550576,10645.892614
1141.454909,-1914.728887,306.356622,9956.590215
1141.455222,2297.674665,1225.426488,9267.287815
1141.455521,459.534933,2297.674665,11641.551636
1141.455819,-3369.922842,1991.318043,14168.993767
1141.456118,-3063.566220,3829.457775,13249.923901
1141.456416,-1148.837332,2910.387909,9880.001059
1141.456715,-2067.907198,-0.000000,9650.233593
1141.457013,-842.480710,-4825.116796,10722.481770
1141.457312,2374.263820,-5054.884263,11794.729947
1141.457611,7275.969772,-2374.263820,10262.946837
1141.457911,7122.791461,-76.589155,10416.125148
1141.458210,3906.046930,919.069866,11335.195014
1141.458509,-0.000000,459.534933,11794.729947
1141.458808,-4135.814397,1531.783110,12637.210657
1141.459108,-3982.636086,1838.139732,10109.768526
1141.459407,-2757.209598,2144.496354,9267.287815
1141.459706,1378.604799,2450.852976,9650.233593
1141.460013,1684.961421,4288.992708,10952.249236
1141.460316,1378.604799,5591.008351,10952.249236
1141.460618,1072.248177,4595.349330,10492.714303
1141.460921,-1302.015643,153.178311,9956.590215
1141.461224,-3676.279464,-3752.868619,10569.303459
1141.461526,-4135.814397,-6433.489062,10262.946837
1141.461829,-1455.193954,-8884.342038,9114.109504
1141.462131,1991.318043,-9726.822748,8118.450483
1141.462452,2297.674665,-8577.985416,10186.357681
1141.462748,1531.783110,-5054.884263,9114.109504
1141.463045,-2757.209598,-3293.333686,9956.590215
1141.463341,-4825.116796,-4059.225241,10952.249236
1141.463638,-6969.613150,-5667.597507,11335.195014
1141.463934,-5437.830040,-4059.225241,11028.838392
1141.464231,1684.961421,-689.302399,8118.450483
1141.464527,9267.287815,4288.992708,6127.132440
1141.464846,11794.729947,6203.721595,8195.039638
1141.465139,7582.326394,5744.186662,10875.660081
1141.465432,2297.674665,3369.922842,11488.373325
1141.465724,-2450.852976,-76.589155,11182.016703
1141.466017,-7199.380617,-5514.419196,10875.660081
1141.466310,-8884.342038,-11411.784169,11794.729947
1141.466603,-6510.078217,-11718.140791,12254.264880
1141.466895,-382.945777,-8884.342038,11182.016703
1141.467212,2680.620442,-3446.511997,11335.195014
1141.467511,1991.318043,459.534933,12407.443191
1141.467810,-382.945777,3369.922842,12713.799813
1141.468108,-2067.907198,6816.434839,12101.086569
1141.468407,-229.767466,9267.287815,9497.055282
1141.468706,1991.318043,8195.039638,8195.039638
1141.469004,3446.511997,6663.256528,9573.644437
1141.469303,5208.062574,5437.830040,10569.303459
1141.469603,5667.597507,6356.899906,11182.016703
1141.469903,4365.581863,5744.186662,11028.838392
1141.470204,459.534933,3982.636086,11028.838392
1141.470505,-4442.171019,459.534933,10875.660081
1141.470806,-8577.985416,-3752.868619,11794.729947
1141.471106,-6203.721595,-5973.954129,11182.016703
1141.471407,-1148.837332,-7046.202306,9650.233593
1141.471708,2833.798753,-5820.775818,9573.644437
1141.472015,2297.674665,-4825.116796,10569.303459
1141.472312,-76.589155,-1761.550576,12560.621502
1141.472609,-0.000000,919.069866,11182.016703
1141.472906,-689.302399,3982.636086,8807.752882
1141.473203,-1608.372265,3063.566220,8654.574571
1141.473500,-1608.372265,1072.248177,9343.876971
1141.473797,2680.620442,1531.783110,8501.396260
1141.474094,5820.775818,2910.387909,7505.737239
1141.474402,3906.046930,-382.945777,10109.768526
1141.474701,-536.124088,-4825.116796,12407.443191
1141.475001,-2221.085509,-5820.775818,12101.086569
1141.475301,-2757.209598,-7352.558928,10722.481770
1141.475601,-3216.744531,-9726.822748,9573.644437
1141.475901,-1608.372265,-12024.497413,10262.946837
1141.476200,1838.139732,-10645.892614,10569.303459
1141.476500,3446.511997,-6586.667373,10262.946837
1141.476783,1531.783110,-2221.085509,11641.551636
1141.477088,-1455.193954,-229.767466,12101.086569
1141.477393,-2221.085509,2450.852976,10033.179370
1141.477698,-4288.992708,2910.387909,10875.660081
1141.478002,-4825.116796,1991.318043,10722.481770
1141.478307,-689.302399,1838.139732,9956.590215
1141.478612,5973.954129,4288.992708,9114.109504
1141.478917,8501.396260,4595.349330,9650.233593
1141.479154,5667.597507,4288.992708,10799.070925
1141.479463,765.891555,1225.426488,11641.551636
1141.479772,-3369.922842,-2527.442131,11794.729947
1141.480080,-6663.256528,-4901.705952,12254.264880
1141.480389,-8884.342038,-5973.954129,11488.373325
1141.480698,-5284.651729,-4518.760174,9803.411904
1141.481007,306.356622,-229.767466,9497.055282
1141.481316,2297.674665,3829.457775,9956.590215
1141.481606,1072.248177,6203.721595,11794.729947
1141.481905,459.534933,8041.861327,11488.373325
1141.482204,-0.000000,7888.683016,9267.287815
1141.482503,-0.000000,5284.651729,8654.574571
1141.482802,612.713244,2450.852976,9573.644437
1141.483102,3752.868619,1684.961421,9420.466126
1141.483401,8501.396260,1225.426488,8501.396260
1141.483700,7046.202306,459.534933,9497.055282
1141.483986,919.069866,-229.767466,11182.016703
1141.484288,-3982.636086,-2067.907198,11641.551636
1141.484590,-7965.272172,-4365.581863,11182.016703
1141.484891,-9880.001059,-5208.062574,11794.729947
1141.485193,-8271.628794,-6893.023995,11947.908258
1141.485495,-3523.101153,-5667.597507,10722.481770
1141.485797,2374.263820,-3599.690308,9420.466126
1141.486099,3599.690308,-1761.550576,10799.070925
1141.486406,1991.318043,-1608.372265,11641.551636
1141.486703,1991.318043,-995.659021,12101.086569
1141.487000,2986.977064,-536.124088,10262.946837
1141.487297,3906.046930,-2680.620442,8118.450483
1141.487594,4671.938485,-3752.868619,7888.683016
1141.487892,4748.527641,-5820.775818,9726.822748
1141.488189,4365.581863,-4671.938485,10262.946837
1141.488486,2527.442131,-2680.620442,10569.303459
1141.488783,-2910.387909,-842.480710,13249.923901
1141.489083,-7122.791461,-1914.728887,12713.799813
1141.489383,-10033.179370,-842.480710,12177.675724
1141.489684,-9190.698660,-1302.015643,11641.551636
1141.489984,-5284.651729,-3293.333686,10033.179370
1141.490284,1072.248177,-2833.798753,9573.644437
1141.490585,4212.403552,-842.480710,10262.946837
1141.490885,7046.202306,-76.589155,10262.946837
1141.491180,6280.310751,1991.318043,9803.411904
1141.491480,3752.868619,1684.961421,9956.590215
1141.491780,919.069866,-229.767466,8960.931193
1141.492080,-1914.728887,-1302.015643,9956.590215
1141.492380,765.891555,-536.124088,9267.287815
1141.492681,2297.674665,919.069866,8654.574571
1141.492981,-0.000000,2757.209598,10722.481770
1141.493281,-382.945777,5744.186662,12177.675724
1141.493593,-2221.085509,6510.078217,11182.016703
1141.493890,-3369.922842,7122.791461,10262.946837
1141.494187,-5744.186662,2910.387909,11488.373325
1141.494485,-5591.008351,-536.124088,12101.086569
1141.494782,765.891555,-1148.837332,10186.357681
1141.495080,4748.527641,-229.767466,9114.109504
1141.495377,4212.403552,-2221.085509,11182.016703
1141.495675,919.069866,-3140.155375,12943.567279
1141.495984,-536.124088,-1914.728887,11182.016703
1141.496283,-382.945777,-842.480710,8501.396260
1141.496582,-2374.263820,-2986.977064,8960.931193
1141.496882,-5437.830040,-5514.419196,11488.373325
1141.497181,-2757.209598,-5208.062574,11488.373325
1141.497480,3752.868619,-689.302399,8501.396260
1141.497780,5820.775818,2450.852976,8960.931193
1141.498079,1531.783110,612.713244,11411.784169
1141.498386,-1608.372265,-0.000000,12484.032346
1141.498684,-1761.550576,1072.248177,11335.195014
1141.498983,-1302.015643,-842.480710,8501.396260
1141.499281,-2757.209598,-5054.884263,10262.946837
1141.499579,-2067.907198,-8884.342038,11182.016703
1141.499877,765.891555,-8424.807105,10109.768526
1141.500175,612.713244,-6586.667373,11028.838392
1141.500473,-842.480710,-5361.240885,11335.195014
1141.500789,-1761.550576,-4212.403552,11182.016703
1141.501088,-1914.728887,-2221.085509,10109.768526
1141.501386,-1608.372265,153.178311,9114.109504
1141.501685,919.069866,1225.426488,9037.520349
1141.501983,3906.046930,3216.744531,8501.396260
1141.502282,6433.489062,5131.473418,9037.520349
1141.502580,3906.046930,6203.721595,11335.195014
1141.502878,1072.248177,6203.721595,12024.497413
1141.503193,-1302.015643,5744.186662,11641.551636
1141.503492,-3063.566220,2910.387909,10262.946837
1141.503790,-6510.078217,-1302.015643,10875.660081
1141.504089,-4978.295107,-4901.705952,11028.838392
1141.504388,-1914.728887,-4825.116796,10722.481770
1141.504686,1684.961421,-3140.155375,10416.125148
1141.504985,1531.783110,-2067.907198,11641.551636
1141.505284,1072.248177,153.178311,13249.923901
1141.505572,459.534933,3216.744531,12254.264880
1141.505872,459.534933,4748.527641,9343.876971
1141.506172,153.178311,4978.295107,9420.466126
1141.506472,2297.674665,4135.814397,8731.163727
1141.506772,3446.511997,3523.101153,8654.574571
1141.507072,2680.620442,4442.171019,10416.125148
1141.507372,1225.426488,2910.387909,10875.660081
1141.507673,-1302.015643,-229.767466,11028.838392
1141.507972,-4288.992708,-2680.620442,11871.319102
1141.508272,-6203.721595,-5667.597507,10875.660081
1141.508572,-6510.078217,-9650.233593,9650.233593
1141.508872,-2604.031287,-11564.962480,10492.714303
1141.509172,1684.961421,-10339.535992,9726.822748
1141.509472,3446.511997,-6893.023995,10416.125148
1141.509772,3446.511997,-4671.938485,10109.768526
1141.510072,1531.783110,-2221.085509,9650.233593
1141.510379,-689.302399,-689.302399,10262.946837
1141.510678,-3216.744531,-536.124088,9956.590215
1141.510978,-1608.372265,306.356622,8807.752882
1141.511277,765.891555,459.534933,8654.574571
1141.511576,4212.403552,765.891555,8348.217949
1141.511875,5208.062574,1684.961421,9956.590215
1141.512175,3293.333686,1072.248177,12101.086569
1141.512474,1072.248177,765.891555,11028.838392
1141.512794,-995.659021,-995.659021,8884.342038
1141.513091,-5591.008351,-4059.225241,10875.660081
1141.513388,-9037.520349,-9037.520349,12713.799813
1141.513685,-8118.450483,-10645.892614,12943.567279
1141.513982,-2374.263820,-5208.062574,11641.551636
1141.514279,459.534933,-689.302399,10875.660081
1141.514576,459.534933,2910.387909,11947.908258
1141.514873,459.534933,7429.148083,11794.729947
1141.515192,2986.977064,10416.125148,9037.520349
1141.515490,3140.155375,9267.287815,7888.683016
1141.515789,1684.961421,5897.364973,9956.590215
1141.516087,4212.403552,4595.349330,10262.946837
1141.516385,7429.148083,4978.295107,10262.946837
1141.516684,7429.148083,4288.992708,10033.179370
1141.516982,3293.333686,1684.961421,11488.373325
1141.517280,-2604.031287,-689.302399,14475.350389
1141.517593,-6816.434839,-2374.263820,12101.086569
1141.517889,-8424.807105,-2986.977064,10645.892614
1141.518185,-8424.807105,-4365.581863,11488.373325
1141.518481,-5284.651729,-4825.116796,10875.660081
1141.518777,-1148.837332,-2680.620442,11182.016703
1141.519073,1838.139732,919.069866,10952.249236
1141.519369,1991.318043,1531.783110,11028.838392
1141.519665,4212.403552,2450.852976,9573.644437
1141.519965,4901.705952,3063.566220,7429.148083
1141.520265,4212.403552,1072.248177,8041.861327
1141.520566,4901.705952,-2833.798753,8041.861327
1141.520867,7046.202306,-2833.798753,7122.791461
1141.521168,5973.954129,-2986.977064,8884.342038
1141.521468,-689.302399,-5514.419196,11564.962480
1141.521769,-6203.721595,-6433.489062,13020.156435
1141.522070,-8271.628794,-5820.775818,12254.264880
1141.522377,-10952.249236,-6739.845684,11794.729947
1141.522674,-13173.334746,-8424.807105,13249.923901
1141.522971,-7812.093861,-7199.380617,11947.908258
1141.523268,1991.318043,-2680.620442,9803.411904
1141.523565,7735.504705,919.069866,9803.411904
1141.523861,8501.396260,1991.318043,9114.109504
1141.524158,7429.148083,1378.604799,10033.179370
1141.524455,7046.202306,1991.318043,8807.752882
1141.524769,3599.690308,459.534933,8041.861327
1141.525072,-76.589155,-1914.728887,9114.109504
1141.525375,765.891555,-3906.046930,9114.109504
1141.525678,2374.263820,-2527.442131,10109.768526
1141.525980,306.356622,-382.945777,11718.140791
1141.526283,-4748.527641,-0.000000,13709.458834
1141.526586,-7199.380617,1225.426488,13556.280523
1141.526889,-6969.613150,3216.744531,11794.729947
1141.527162,-6663.256528,3369.922842,10875.660081
1141.527464,-6816.434839,1684.961421,10569.303459
1141.527767,-1302.015643,1072.248177,10722.481770
1141.528070,6280.310751,1991.318043,9956.590215
1141.528372,8960.931193,3676.279464,9956.590215
1141.528675,8501.396260,3829.457775,10416.125148
1141.528978,6280.310751,3063.566220,10186.357681
1141.529280,3140.155375,1991.318043,9956.590215
1141.529517,2144.496354,2297.674665,8807.752882
1141.529823,765.891555,1072.248177,8501.396260
1141.530129,612.713244,-229.767466,9267.287815
1141.530435,-1302.015643,-2067.907198,12560.621502
1141.530741,-3829.457775,-382.945777,13096.745590
1141.531047,-4135.814397,2297.674665,12407.443191
1141.531353,-5284.651729,1684.961421,11258.605858
1141.531659,-9037.520349,153.178311,11641.551636
1141.531959,-9037.520349,-1302.015643,11335.195014
1141.532259,-3216.744531,-1608.372265,9880.001059
1141.532559,2374.263820,-3446.511997,8960.931193
1141.532859,5514.419196,-5208.062574,9803.411904
1141.533159,5054.884263,-5208.062574,11488.373325
1141.533459,5361.240885,-4901.705952,10875.660081
1141.533759,5054.884263,-5208.062574,9267.287815
1141.534059,3446.511997,-5054.884263,8424.807105
1141.534349,306.356622,-6127.132440,8195.039638
1141.534653,1378.604799,-4212.403552,9420.466126
1141.534956,2833.798753,-2221.085509,10109.768526
1141.535260,2680.620442,919.069866,10109.768526
1141.535563,-229.767466,1378.604799,12177.675724
1141.535866,-5591.008351,1225.426488,13709.458834
1141.536170,-7122.791461,1838.139732,12560.621502
1141.536473,-9573.644437,1684.961421,10416.125148
1141.536713,-9190.698660,-1455.193954,10875.660081
1141.537022,-3829.457775,-6127.132440,11335.195014
1141.537332,2986.977064,-5514.419196,9956.590215
1141.537641,7046.202306,-3446.511997,9420.466126
1141.537951,4212.403552,-3906.046930,10033.179370
1141.538261,1531.783110,-3140.155375,11488.373325
1141.538570,2833.798753,-382.945777,10569.303459
1141.538880,3140.155375,1378.604799,7658.915550
1141.539163,459.534933,2450.852976,8041.861327
1141.539460,612.713244,2144.496354,9114.109504
1141.539756,4901.705952,5437.830040,9114.109504
1141.540052,3140.155375,7735.504705,10875.660081
1141.540349,-1761.550576,6663.256528,12407.443191
1141.540645,-6356.899906,5744.186662,13556.280523
1141.540942,-6050.543284,5284.651729,12101.086569
1141.541238,-5131.473418,3829.457775,9803.411904
1141.541565,-6969.613150,-689.302399,10645.892614
1141.541862,-3369.922842,-4518.760174,10722.481770
1141.542158,1991.318043,-6280.310751,10416.125148
1141.542454,4518.760174,-5820.775818,11794.729947
1141.542750,4748.527641,-4825.116796,11182.016703
1141.543046,2374.263820,-4059.225241,10186.357681
1141.543343,2374.263820,-2680.620442,8654.574571
1141.543639,306.356622,-1914.728887,8041.861327
1141.543950,-1914.728887,-995.659021,9497.055282
1141.544250,306.356622,612.713244,10262.946837
1141.544549,4365.581863,4135.814397,8807.752882
1141.544848,3140.155375,6050.543284,9803.411904
1141.545147,-1455.193954,3676.279464,12713.799813
1141.545446,-6356.899906,459.534933,13249.923901
1141.545745,-5131.473418,-382.945777,10799.070925
1141.546045,-5131.473418,-3752.868619,9420.466126
1141.546358,-5591.008351,-10339.535992,9803.411904
1141.546656,-1914.728887,-11871.319102,11182.016703
1141.546954,1838.139732,-11718.140791,12407.443191
1141.547252,3752.868619,-9190.698660,11641.551636
1141.547550,3599.690308,-4059.225241,11028.838392
1141.547847,2297.674665,-842.480710,9267.287815
1141.548145,-1148.837332,1225.426488,8501.396260
1141.548443,-2374.263820,3063.566220,8884.342038
1141.548750,612.713244,4978.295107,9803.411904
1141.549049,2527.442131,4748.527641,9956.590215
1141.549348,5208.062574,6050.543284,9650.233593
1141.549647,3446.511997,6816.434839,10722.481770
1141.549946,765.891555,4595.349330,11718.140791
1141.550245,-1302.015643,1378.604799,11947.908258
1141.550544,-4748.527641,-229.767466,10033.179370
1141.550842,-7122.791461,-4518.760174,10492.714303
1141.551139,-6663.256528,-8271.628794,11182.016703
1141.551439,-1761.550576,-7046.202306,11258.605858
1141.551738,2986.977064,-4365.581863,11335.195014
1141.552038,2680.620442,-1761.550576,12407.443191
1141.552337,765.891555,1684.961421,12560.621502
1141.552637,2527.442131,5437.830040,10033.179370
1141.552936,2297.674665,8348.217949,8807.752882
1141.553236,2374.263820,8807.752882,7888.683016
1141.553531,4518.760174,6663.256528,8195.039638
1141.553831,4901.705952,5131.473418,9803.411904
1141.554131,5514.419196,4135.814397,11947.908258
1141.554432,2833.798753,2910.387909,11641.551636
1141.554732,-76.589155,-536.124088,9956.590215
1141.555032,-5591.008351,-5361.240885,11028.838392
1141.555332,-12254.264880,-9880.001059,11718.140791
1141.555632,-14628.528700,-11564.962480,12637.210657
1141.555944,-9037.520349,-11718.140791,11641.551636
1141.556245,-2910.387909,-9880.001059,10569.303459
1141.556545,1991.318043,-5514.419196,11718.140791
1141.556846,3293.333686,-1761.550576,10875.660081
1141.557147,5361.240885,1225.426488,9267.287815
1141.557448,7275.969772,1991.318043,6969.613150
1141.557748,4671.938485,1225.426488,7122.791461
1141.558049,1684.961421,-1302.015643,9114.109504
1141.558358,5667.597507,-536.124088,7582.326394
1141.558654,8654.574571,-229.767466,7735.504705
1141.558949,4365.581863,-1761.550576,10262.946837
1141.559244,-3063.566220,-4212.403552,13556.280523
1141.559540,-7199.380617,-3906.046930,14168.993767
1141.559835,-8424.807105,-3140.155375,11411.784169
1141.560130,-10799.070925,-3140.155375,9956.590215
1141.560426,-11411.784169,-5208.062574,12101.086569
1141.560732,-6663.256528,-5208.062574,12407.443191
1141.561035,2527.442131,-1608.372265,10186.357681
1141.561337,5820.775818,1991.318043,10645.892614
1141.561639,6280.310751,2757.209598,11335.195014
1141.561942,5973.954129,4442.171019,10722.481770
1141.562244,5361.240885,5897.364973,8807.752882
1141.562546,3752.868619,4748.527641,7582.326394
1141.562849,1838.139732,1991.318043,9114.109504
1141.563165,3446.511997,1378.604799,10109.768526
1141.563463,6280.310751,3063.566220,9803.411904
1141.563760,5054.884263,4978.295107,10569.303459
1141.564058,612.713244,3829.457775,12101.086569
1141.564356,-4748.527641,919.069866,13173.334746
1141.564654,-9190.698660,306.356622,12790.388968
1141.564951,-9726.822748,765.891555,12101.086569
1141.565249,-7505.737239,-842.480710,10722.481770
1141.565563,-4288.992708,-2067.907198,11182.016703
1141.565858,-2067.907198,-1761.550576,11947.908258
1141.566153,765.891555,-536.124088,11641.551636
1141.566448,2527.442131,-842.480710,11028.838392
1141.566743,3752.868619,-2374.263820,8960.931193
1141.567038,3140.155375,-3446.511997,7735.504705
1141.567333,3140.155375,-4825.116796,7735.504705
1141.567628,6280.310751,-5208.062574,7812.093861
1141.567941,8807.752882,-3906.046930,8501.396260
1141.568239,7122.791461,-689.302399,10109.768526
1141.568537,4212.403552,612.713244,9650.233593
1141.568836,-2067.907198,1225.426488,10875.660081
1141.569134,-6663.256528,153.178311,12254.264880
1141.569433,-11258.605858,-1455.193954,11947.908258
1141.569731,-13326.513057,-4212.403552,11641.551636
1141.570030,-9343.876971,-6893.023995,11718.140791
1141.570329,-3523.101153,-7352.558928,12101.086569
1141.570628,2297.674665,-5667.597507,11794.729947
1141.570928,6280.310751,-4671.938485,10416.125148
1141.571227,6433.489062,-4671.938485,9956.590215
1141.571526,5667.597507,-3752.868619,9267.287815
1141.571825,5054.884263,-2221.085509,7505.737239
1141.572125,2833.798753,-3140.155375,6969.613150
1141.572424,2374.263820,-3906.046930,8195.039638
1141.572731,4059.225241,-76.589155,9650.233593
1141.573033,3446.511997,4288.992708,11182.016703
1141.573336,-842.480710,6203.721595,12254.264880
1141.573639,-4748.527641,7582.326394,12866.978124
1141.573941,-7122.791461,7888.683016,11794.729947
1141.574244,-8118.450483,6050.543284,10416.125148
1141.574546,-10339.535992,1991.318043,12254.264880
1141.574849,-6050.543284,-2067.907198,12560.621502
1141.575169,1684.961421,-3140.155375,11641.551636
1141.575467,5820.775818,-2374.263820,11794.729947
1141.575764,8195.039638,-1455.193954,10569.303459
1141.576061,5361.240885,-1302.015643,10186.357681
1141.576358,3752.868619,-536.124088,9803.411904
1141.576655,1531.783110,612.713244,9114.109504
1141.576952,-842.480710,1684.961421,9650.233593
1141.577249,1378.604799,4135.814397,9573.644437
1141.577567,3599.690308,5591.008351,8807.752882
1141.577860,2986.977064,7888.683016,10262.946837
1141.578153,-689.302399,6203.721595,12407.443191
1141.578446,-4595.349330,4595.349330,12943.567279
1141.578739,-5897.364973,2450.852976,10875.660081
1141.579031,-6816.434839,-1455.193954,10109.768526
1141.579324,-5284.651729,-5973.954129,10722.481770
1141.579617,-2067.907198,-9650.233593,11182.016703
1141.579934,2680.620442,-9880.001059,10722.481770
1141.580233,4748.527641,-9190.698660,10109.768526
1141.580531,4059.225241,-8884.342038,10416.125148
1141.580830,2680.620442,-8271.628794,9267.287815
1141.581128,153.178311,-6739.845684,9114.109504
1141.581427,-2604.031287,-6739.845684,10262.946837
1141.581725,-1608.372265,-4901.705952,10722.481770
1141.582024,4748.527641,-842.480710,8884.342038
1141.582324,8960.931193,5284.651729,8348.217949
1141.582625,7122.791461,6050.543284,9114.109504
1141.582925,1378.604799,6050.543284,11488.373325
1141.583226,-2604.031287,3216.744531,11335.195014
1141.583527,-7352.558928,612.713244,11335.195014
1141.583828,-11871.319102,-5054.884263,12101.086569
1141.584128,-11564.962480,-10339.535992,13403.102212
1141.584429,-5437.830040,-11105.427547,12943.567279
1141.584736,1838.139732,-7658.915550,10875.660081
1141.585033,4518.760174,-5667.597507,9650.233593
1141.585330,2374.263820,-4518.760174,11105.427547
1141.585627,2833.798753,-1914.728887,10416.125148
1141.585924,2527.442131,2297.674665,9650.233593
1141.586221,2833.798753,6050.543284,7658.915550
1141.586518,4059.225241,7122.791461,8271.628794
1141.586815,5208.062574,9114.109504,9803.411904
1141.587123,7275.969772,11182.016703,10875.660081
1141.587423,3446.511997,11335.195014,11182.016703
1141.587723,-842.480710,8041.861327,11028.838392
1141.588023,-5591.008351,4135.814397,11794.729947
1141.588322,-7505.737239,919.069866,12407.443191
1141.588622,-9037.520349,-2221.085509,12713.799813
1141.588922,-4135.814397,-5514.419196,10109.768526
1141.589222,153.178311,-5820.775818,10645.892614
1141.589539,612.713244,-6433.489062,11488.373325
1141.589838,919.069866,-5208.062574,11641.551636
1141.590137,-76.589155,-2374.263820,11028.838392
1141.590436,-229.767466,-1914.728887,9573.644437
1141.590735,-1608.372265,-0.000000,9650.233593
1141.591034,-1148.837332,3676.279464,9956.590215
1141.591334,3446.511997,5897.364973,7812.093861
1141.591633,5667.597507,4978.295107,8501.396260
1141.591950,3293.333686,3829.457775,10722.481770
1141.592247,1378.604799,1531.783110,12101.086569
1141.592544,-689.302399,-1608.372265,11182.016703
1141.592840,-2450.852976,-4212.403552,9803.411904
1141.593137,-3216.744531,-7658.915550,9420.466126
1141.593434,-1914.728887,-10339.535992,10569.303459
1141.593730,459.534933,-11105.427547,10569.303459
1141.594027,4518.760174,-9343.876971,9573.644437
1141.594317,3140.155375,-5208.062574,10339.535992
1141.594616,612.713244,-3599.690308,10569.303459
1141.594915,-2450.852976,-2833.798753,11335.195014
1141.595214,-7199.380617,-2986.977064,12024.497413
1141.595513,-7505.737239,-1761.550576,10722.481770
1141.595813,-4825.116796,153.178311,10109.768526
1141.596112,1531.783110,3063.566220,9497.055282
1141.596411,6433.489062,5591.008351,9114.109504
1141.596725,5973.954129,6356.899906,9956.590215
1141.597023,4365.581863,5897.364973,10492.714303
1141.597322,1531.783110,2450.852976,10569.303459
1141.597621,-995.659021,-229.767466,9803.411904
1141.597919,-4595.349330,-3446.511997,11028.838392
1141.598218,-3369.922842,-6739.845684,10569.303459
1141.598517,-842.480710,-7046.202306,11182.016703
1141.598816,612.713244,-4671.938485,12713.799813
1141.599123,-229.767466,-382.945777,12177.675724
1141.599419,-995.659021,2757.209598,11105.427547
1141.599716,-842.480710,4748.527641,11028.838392
1141.600012,-382.945777,6050.543284,9726.822748
1141.600309,153.178311,6203.721595,8884.342038
1141.600605,2297.674665,4442.171019,9573.644437
1141.600901,4518.760174,3829.457775,10262.946837
1141.601198,5208.062574,4595.349330,11641.551636
1141.601561,3140.155375,3982.636086,10569.303459
1141.601854,-229.767466,1072.248177,10416.125148
1141.602148,-3982.636086,-1148.837332,11182.016703
1141.602441,-6050.543284,-2986.977064,10722.481770
1141.602734,-7352.558928,-5208.062574,9573.644437
1141.603028,-5284.651729,-7199.380617,10416.125148
1141.603321,-1914.728887,-7352.558928,11182.016703
1141.603614,459.534933,-5667.597507,12101.086569
1141.603909,1684.961421,-2374.263820,11488.373325
1141.604210,1072.248177,-1302.015643,9343.876971
1141.604511,919.069866,-995.659021,9267.287815
1141.604812,-382.945777,-1148.837332,9956.590215
1141.605113,765.891555,-2221.085509,9114.109504
1141.605414,5054.884263,-689.302399,7888.683016
1141.605715,7122.791461,-536.124088,8195.039638
1141.606015,4059.225241,-382.945777,10262.946837
1141.606304,-689.302399,-536.124088,12560.621502
1141.606604,-2757.209598,-229.767466,11335.195014
1141.606905,-3676.279464,-995.659021,9420.466126
1141.607206,-4288.992708,-2833.798753,8501.396260
1141.607507,-4442.171019,-3599.690308,10569.303459
1141.607807,-1302.015643,-3906.046930,10799.070925
1141.608108,2986.977064,-2833.798753,10722.481770
1141.608409,2374.263820,-2067.907198,11411.784169
1141.608695,-229.767466,-2221.085509,12713.799813
1141.608998,-2910.387909,-2221.085509,12943.567279
1141.609300,-2910.387909,-1148.837332,9573.644437
1141.609603,-2604.031287,1072.248177,9573.644437
1141.609906,-1148.837332,459.534933,10569.303459
1141.610208,1838.139732,1684.961421,9956.590215
1141.610511,4748.527641,5591.008351,10569.303459
1141.610814,3906.046930,8041.861327,10952.249236
1141.611121,1684.961421,6663.256528,11641.551636
1141.611420,-689.302399,4825.116796,12407.443191
1141.611720,-2450.852976,2757.209598,10722.481770
1141.612020,-2450.852976,1072.248177,9650.233593
1141.612320,-0.000000,-689.302399,9573.644437
1141.612619,3293.333686,-2833.798753,11182.016703
1141.612919,3140.155375,-2986.977064,11335.195014
1141.613219,1072.248177,-1148.837332,11488.373325
1141.613548,-2221.085509,-2986.977064,11641.551636
1141.613841,-2604.031287,-3906.046930,10262.946837
1141.614133,-4442.171019,-3446.511997,10109.768526
1141.614426,-3982.636086,-1914.728887,8348.217949
1141.614719,-1302.015643,-1761.550576,8731.163727
1141.615011,2144.496354,-382.945777,10416.125148
1141.615304,4671.938485,1531.783110,11488.373325
1141.615597,2297.674665,3523.101153,10722.481770
1141.615911,2297.674665,3829.457775,9190.698660
1141.616210,306.356622,1531.783110,9497.055282
1141.616508,-1761.550576,-1455.193954,8577.985416
1141.616807,-3369.922842,-4518.760174,9037.520349
1141.617106,-2374.263820,-9037.520349,9956.590215
1141.617404,-76.589155,-11258.605858,11028.838392
1141.617703,-76.589155,-9726.822748,12713.799813
1141.618002,153.178311,-6586.667373,10569.303459
1141.618290,-229.767466,-4825.116796,10645.892614
1141.618590,1072.248177,-2833.798753,9420.466126
1141.618890,-382.945777,-995.659021,9803.411904
1141.619190,-995.659021,765.891555,9420.466126
1141.619490,1531.783110,2297.674665,8348.217949
1141.619790,2833.798753,4135.814397,10109.768526
1141.620090,2680.620442,5897.364973,12101.086569
1141.620390,-995.659021,5744.186662,12790.388968
1141.620690,-1302.015643,4978.295107,10875.660081
1141.620989,-2067.907198,3063.566220,10109.768526
1141.621288,-4825.116796,-382.945777,10722.481770
1141.621587,-4978.295107,-3906.046930,11794.729947
1141.621887,-842.480710,-5361.240885,10875.660081
1141.622186,4365.581863,-4518.760174,10875.660081
1141.622485,2527.442131,-3140.155375,11718.140791
1141.622784,306.356622,-995.659021,12713.799813
1141.623091,-229.767466,2144.496354,12560.621502
1141.623391,-76.589155,3982.636086,9956.590215
1141.623691,459.534933,6050.543284,8041.861327
1141.623991,-689.302399,6356.899906,9114.109504
1141.624292,-1455.193954,5284.651729,10722.481770
1141.624592,612.713244,5131.473418,11182.016703
1141.624892,2833.798753,7582.326394,11028.838392
1141.625192,1378.604799,4825.116796,11335.195014
1141.625542,-2067.907198,-229.767466,11641.551636
1141.625835,-2604.031287,-1455.193954,10569.303459
1141.626129,-382.945777,-3752.868619,8577.985416
1141.626423,1378.604799,-7965.272172,8501.396260
1141.626717,612.713244,-11258.605858,11182.016703
1141.627010,1225.426488,-9190.698660,10799.070925
1141.627304,2144.496354,-5208.062574,10416.125148
1141.627598,459.534933,-4212.403552,11028.838392
1141.627899,-1148.837332,-3906.046930,10262.946837
1141.628201,-3063.566220,-1455.193954,9956.590215
1141.628502,-3829.457775,1225.426488,8960.931193
1141.628804,-76.589155,1378.604799,7888.683016
1141.629105,3752.868619,1378.604799,9726.822748
1141.629407,5361.240885,2297.674665,10722.481770
1141.629708,3140.155375,2297.674665,11182.016703
1141.630009,153.178311,306.356622,11182.016703
1141.630323,-536.124088,-2986.977064,8960.931193
1141.630619,-3676.279464,-6893.023995,9420.466126
1141.630915,-6510.078217,-10033.179370,11794.729947
1141.631211,-3369.922842,-11105.427547,11335.195014
1141.631507,1991.318043,-8424.807105,9880.001059
1141.631803,5667.597507,-2986.977064,9573.644437
1141.632099,2527.442131,-842.480710,10416.125148
1141.632395,-2221.085509,919.069866,11641.551636
1141.632694,-3369.922842,3063.566220,10645.892614
1141.632992,-5437.830040,3063.566220,11028.838392
1141.633289,-6203.721595,1378.604799,11105.427547
1141.633586,-2910.387909,1378.604799,10569.303459
1141.633884,5514.419196,5131.473418,9420.466126
1141.634181,10262.946837,7582.326394,10262.946837
1141.634479,7275.969772,7122.791461,10262.946837
1141.634776,2986.977064,3982.636086,10262.946837
1141.635083,-1148.837332,-0.000000,11258.605858
1141.635384,-4748.527641,-4212.403552,11335.195014
1141.635685,-6203.721595,-6586.667373,10875.660081
1141.635986,-2450.852976,-6433.489062,10109.768526
1141.636287,306.356622,-4518.760174,11335.195014
1141.636588,2374.263820,-689.302399,12254.264880
1141.636889,459.534933,3676.279464,12713.799813
1141.637190,-1455.193954,5284.651729,11488.373325
1141.637499,-1914.728887,5744.186662,9956.590215
1141.637800,-3063.566220,6203.721595,9803.411904
1141.638101,-1455.193954,4748.527641,8654.574571
1141.638402,1225.426488,1531.783110,9803.411904
1141.638703,3906.046930,-536.124088,11028.838392
1141.639004,4365.581863,-1455.193954,11028.838392
1141.639305,2144.496354,-995.659021,11641.551636
1141.639606,-0.000000,-2527.442131,10875.660081
1141.639925,-1302.015643,-4901.705952,9420.466126
1141.640221,-2067.907198,-4825.116796,8041.861327
1141.640517,-2374.263820,-7812.093861,9190.698660
1141.640813,-1914.728887,-10186.357681,10722.481770
1141.641109,306.356622,-7965.272172,12101.086569
1141.641405,1378.604799,-3599.690308,11718.140791
1141.641701,2297.674665,-1148.837332,11335.195014
1141.641997,306.356622,612.713244,11182.016703
1141.642315,-2221.085509,3063.566220,9267.287815
1141.642609,-2604.031287,2604.031287,9114.109504
1141.642904,-1148.837332,459.534933,9267.287815
1141.643198,1531.783110,-995.659021,10109.768526
1141.643493,1991.318043,-1761.550576,11488.373325
1141.643787,-0.000000,-1914.728887,11564.962480
1141.644081,-229.767466,-1148.837332,12101.086569
1141.644376,-1148.837332,-2527.442131,10416.125148
1141.644676,-3829.457775,-3752.868619,9956.590215
1141.644976,-5744.186662,-3906.046930,10262.946837
1141.645276,-1914.728887,-3906.046930,9803.411904
1141.645576,2986.977064,-2374.263820,9726.822748
1141.645876,5667.597507,765.891555,10416.125148
1141.646176,3446.511997,1991.318043,12560.621502
1141.646476,-0.000000,2910.387909,11488.373325
1141.646776,-76.589155,4595.349330,10569.303459
1141.647106,-1302.015643,4288.992708,9956.590215
1141.647403,-2450.852976,3369.922842,9650.233593
1141.647700,-689.302399,2450.852976,10109.768526
1141.647997,3599.690308,3829.457775,9267.287815
1141.648294,5208.062574,5131.473418,10722.481770
1141.648591,1684.961421,3676.279464,10722.481770
1141.648888,-2374.263820,765.891555,10109.768526
1141.649185,-4825.116796,-1455.193954,11028.838392
1141.649493,-7965.272172,-5054.884263,11182.016703
1141.649793,-8271.628794,-7965.272172,11335.195014
1141.650093,-2450.852976,-8424.807105,10109.768526
1141.650392,3599.690308,-4365.581863,9573.644437
1141.650692,6739.845684,-382.945777,9956.590215
1141.650992,3906.046930,1838.139732,10339.535992
1141.651292,919.069866,1991.318043,10722.481770
1141.651592,-842.480710,765.891555,10109.768526
1141.651875,-3829.457775,-1761.550576,10109.768526
1141.652178,-2450.852976,-3140.155375,9267.287815
1141.652481,3446.511997,-1148.837332,8348.217949
1141.652783,5208.062574,-76.589155,9803.411904
1141.653086,3906.046930,-76.589155,11564.962480
1141.653389,612.713244,2144.496354,12713.799813
1141.653692,-2450.852976,1225.426488,10416.125148
1141.653995,-4595.349330,-1148.837332,9803.411904
1141.654277,-8731.163727,-4212.403552,10262.946837
1141.654579,-7505.737239,-6433.489062,11947.908258
1141.654882,-1455.193954,-7199.380617,10875.660081
1141.655185,2680.620442,-5820.775818,11182.016703
1141.655487,3140.155375,-4059.225241,12101.086569
1141.655790,1991.318043,-1608.372265,12407.443191
1141.656093,2144.496354,1531.783110,12101.086569
1141.656395,1531.783110,2604.031287,8195.039638
1141.656685,-0.000000,1991.318043,6969.613150
1141.656984,-76.589155,1225.426488,10109.768526
1141.657284,2297.674665,2450.852976,10875.660081
1141.657583,5208.062574,3829.457775,10952.249236
1141.657882,5054.884263,6663.256528,10416.125148
1141.658181,2297.674665,6356.899906,10186.357681
1141.658480,-2604.031287,4135.814397,11794.729947
1141.658779,-7122.791461,2450.852976,11488.373325
1141.659088,-6050.543284,-229.767466,10492.714303
1141.659387,-3063.566220,-4671.938485,10569.303459
1141.659685,-536.124088,-6433.489062,11794.729947
1141.659984,919.069866,-4825.116796,11641.551636
1141.660282,2297.674665,-1608.372265,11028.838392
1141.660581,1838.139732,-995.659021,10799.070925
1141.660879,-1455.193954,-1761.550576,11182.016703
1141.661178,-3829.457775,-536.124088,9956.590215
1141.661485,-2910.387909,1684.961421,8807.752882
1141.661785,2527.442131,2450.852976,6969.613150
1141.662084,6280.310751,2757.209598,7735.504705
1141.662384,5667.597507,4442.171019,10569.303459
1141.662684,2144.496354,3216.744531,11335.195014
1141.662984,306.356622,1991.318043,10569.303459
1141.663283,-1608.372265,-1455.193954,9880.001059
1141.663583,-2604.031287,-5208.062574,9573.644437
1141.663880,-3829.457775,-9726.822748,10262.946837
1141.664178,-2067.907198,-12177.675724,10722.481770
1141.664476,1072.248177,-10799.070925,10416.125148
1141.664775,2527.442131,-7352.558928,12713.799813
1141.665073,-842.480710,-5208.062574,12637.210657
1141.665371,-2067.907198,-1761.550576,11488.373325
1141.665670,-3523.101153,612.713244,10569.303459
1141.665968,-4135.814397,2450.852976,8960.931193
1141.666263,-3523.101153,459.534933,9420.466126
1141.666563,765.891555,1684.961421,10262.946837
1141.666863,5820.775818,3829.457775,9803.411904
1141.667163,7046.202306,6050.543284,9956.590215
1141.667463,3293.333686,5744.186662,11335.195014
1141.667764,-2221.085509,612.713244,12254.264880
1141.668064,-4442.171019,-2374.263820,11182.016703
1141.668364,-5437.830040,-4901.705952,11182.016703
1141.668676,-4748.527641,-8884.342038,10109.768526
1141.668973,-382.945777,-10033.179370,9956.590215
1141.669270,5820.775818,-5667.597507,10262.946837
1141.669568,6586.667373,-2067.907198,10262.946837
1141.669865,1531.783110,-229.767466,12407.443191
1141.670163,-1302.015643,3063.566220,12713.799813
1141.670460,-689.302399,6816.434839,9573.644437
1141.670758,-1608.372265,8348.217949,8118.450483
1141.671057,-76.589155,7735.504705,9573.644437
1141.671357,2144.496354,6969.613150,10416.125148
1141.671657,4671.938485,7122.791461,10722.481770
1141.671957,2144.496354,6663.256528,10875.660081
1141.672257,-995.659021,6050.543284,12254.264880
1141.672557,-3523.101153,1838.139732,11794.729947
1141.672857,-6050.543284,-2986.977064,9726.822748
1141.673157,-6816.434839,-6433.489062,9803.411904
1141.673464,-4978.295107,-10339.535992,10569.303459
1141.673763,-536.124088,-10952.249236,11335.195014
1141.674061,5361.240885,-9190.698660,10875.660081
1141.674359,5973.954129,-4671.938485,10416.125148
1141.674657,3599.690308,-2221.085509,10722.481770
1141.674955,765.891555,-0.000000,10109.768526
1141.675253,-842.480710,2757.209598,9573.644437
1141.675551,-382.945777,3063.566220,9114.109504
1141.675867,2374.263820,1378.604799,8424.807105
1141.676169,4518.760174,1991.318043,9420.466126
1141.676470,4901.705952,1531.783110,10262.946837
1141.676771,459.534933,153.178311,12407.443191
1141.677072,-2757.209598,-1608.372265,13403.102212
1141.677373,-4595.349330,-3752.868619,12254.264880
1141.677674,-6510.078217,-6127.132440,10339.535992
1141.677975,-8118.450483,-8884.342038,10262.946837
1141.678289,-4288.992708,-11105.427547,9726.822748
1141.678585,1378.604799,-10492.714303,10416.125148
1141.678882,4212.403552,-6433.489062,11947.908258
1141.679178,3906.046930,-2680.620442,11182.016703
1141.679474,2680.620442,919.069866,10569.303459
1141.679771,1684.961421,4135.814397,9956.590215
1141.680067,153.178311,5284.651729,9114.109504
1141.680363,-1302.015643,5437.830040,8654.574571
1141.680651,1378.604799,4442.171019,9114.109504
1141.680951,4748.527641,5437.830040,9803.411904
1141.681251,5514.419196,4978.295107,10875.660081
1141.681551,2680.620442,4748.527641,11411.784169
1141.681851,-536.124088,2757.209598,11182.016703
1141.682151,-3982.636086,306.356622,11258.605858
1141.682451,-7199.380617,-1914.728887,11488.373325
1141.682751,-7122.791461,-3446.511997,9880.001059
1141.683050,-4288.992708,-4365.581863,10262.946837
1141.683350,-1148.837332,-4365.581863,11794.729947
1141.683649,306.356622,-2221.085509,11794.729947
1141.683948,-76.589155,1991.318043,12024.497413
1141.684247,459.534933,2604.031287,10875.660081
1141.684546,-1302.015643,1991.318043,10645.892614
1141.684846,-76.589155,2450.852976,9880.001059
1141.685145,1838.139732,2910.387909,7888.683016
1141.685452,6893.023995,2757.209598,8195.039638
1141.685752,9114.109504,1225.426488,9190.698660
1141.686052,7046.202306,1072.248177,10262.946837
1141.686352,3906.046930,1991.318043,10569.303459
1141.686652,612.713244,-382.945777,9803.411904
1141.686952,-6050.543284,-5054.884263,10875.660081
1141.687252,-10186.357681,-7658.915550,11335.195014
1141.687552,-9037.520349,-8577.985416,12101.086569
1141.687873,-5897.364973,-9880.001059,11641.551636
1141.688173,-1914.728887,-9343.876971,12254.264880
1141.688474,-689.302399,-5054.884263,12560.621502
1141.688774,1531.783110,-689.302399,11488.373325
1141.689074,2680.620442,-382.945777,10109.768526
1141.689375,2297.674665,1225.426488,8960.931193
1141.689675,2680.620442,1991.318043,7582.326394
1141.689975,4748.527641,919.069866,7275.969772
1141.690248,5667.597507,-689.302399,9267.287815
1141.690548,5208.062574,-1455.193954,10799.070925
1141.690848,2297.674665,765.891555,11182.016703
1141.691148,-1148.837332,1991.318043,11488.373325
1141.691449,-2757.209598,1991.318043,10569.303459
1141.691749,-7122.791461,153.178311,10569.303459
1141.692049,-8424.807105,-1608.372265,10952.249236
1141.692349,-4288.992708,-4671.938485,10569.303459
1141.692666,-536.124088,-4212.403552,11488.373325
1141.692965,2144.496354,-3293.333686,12713.799813
1141.693263,919.069866,-1302.015643,12407.443191
1141.693562,1991.318043,612.713244,12024.497413
1141.693861,3293.333686,2450.852976,9803.411904
1141.694159,2374.263820,3369.922842,8271.628794
1141.694458,153.178311,3829.457775,8960.931193
1141.694757,2144.496354,3676.279464,8195.039638
1141.695056,4671.938485,3523.101153,8884.342038
1141.695354,4059.225241,5131.473418,11028.838392
1141.695651,-1302.015643,3063.566220,12407.443191
1141.695949,-5284.651729,2450.852976,12101.086569
1141.696246,-5591.008351,1991.318043,10109.768526
1141.696543,-4595.349330,612.713244,8807.752882
1141.696841,-6050.543284,-4059.225241,10109.768526
1141.697138,-4595.349330,-7046.202306,12254.264880
1141.697445,1225.426488,-7046.202306,11564.962480
1141.697747,5054.884263,-4825.116796,10569.303459
1141.698049,2297.674665,-5054.884263,11258.605858
1141.698350,-382.945777,-5208.062574,10262.946837
1141.698652,-1761.550576,-4059.225241,10416.125148
1141.698954,-382.945777,-2221.085509,9573.644437
1141.699255,1684.961421,-1914.728887,7429.148083
1141.699557,4365.581863,-76.589155,8654.574571
1141.699837,6893.023995,1684.961421,9650.233593
1141.700142,5361.240885,4288.992708,11182.016703
1141.700448,1225.426488,5437.830040,12101.086569
1141.700753,-3982.636086,3523.101153,11641.551636
1141.701058,-7658.915550,-229.767466,11947.908258
1141.701363,-8731.163727,-4059.225241,10722.481770
1141.701668,-6816.434839,-7658.915550,10875.660081
1141.701973,-2067.907198,-10339.535992,10875.660081
1141.702292,2144.496354,-10033.179370,11641.551636
1141.702588,5208.062574,-7812.093861,10416.125148
1141.702884,4212.403552,-4212.403552,11947.908258
1141.703180,3293.333686,-1608.372265,10875.660081
1141.703476,2680.620442,612.713244,8118.450483
1141.703772,1838.139732,2604.031287,7275.969772
1141.704068,2297.674665,4288.992708,8654.574571
1141.704364,2297.674665,4288.992708,10799.070925
1141.704681,4748.527641,6510.078217,11028.838392
1141.704976,4059.225241,8960.931193,11182.016703
1141.705270,-1455.193954,8807.752882,11871.319102
1141.705565,-5591.008351,6663.256528,12407.443191
1141.705859,-8424.807105,3829.457775,11794.729947
1141.706154,-8424.807105,-689.302399,10875.660081
1141.706448,-6203.721595,-5667.597507,11028.838392
1141.706743,-3982.636086,-7965.272172,11028.838392
1141.707043,2833.798753,-6739.845684,11641.551636
1141.707342,4518.760174,-5208.062574,11794.729947
1141.707641,4365.581863,-3906.046930,9956.590215
1141.707940,3599.690308,-1761.550576,9650.233593
1141.708239,459.534933,1378.604799,8807.752882
1141.708538,1225.426488,1991.318043,8041.861327
1141.708838,3140.155375,1684.961421,7582.326394
1141.709137,6280.310751,2910.387909,8577.985416
1141.709451,3293.333686,3369.922842,11105.427547
1141.709749,-382.945777,2910.387909,12101.086569
1141.710048,-2910.387909,2450.852976,11947.908258
1141.710347,-5284.651729,-0.000000,10569.303459
1141.710645,-8577.985416,-4059.225241,11411.784169
1141.710944,-9497.055282,-7965.272172,11182.016703
1141.711243,-3063.566220,-9343.876971,9956.590215
1141.711542,2374.263820,-9497.055282,9803.411904
1141.711849,4212.403552,-8271.628794,10722.481770
1141.712146,2297.674665,-7046.202306,12713.799813
1141.712443,919.069866,-4059.225241,11182.016703
1141.712740,1378.604799,-689.302399,8960.931193
1141.713038,612.713244,765.891555,8654.574571
1141.713335,-1302.015643,765.891555,8041.861327
1141.713632,2986.977064,1838.139732,8654.574571
1141.713929,5514.419196,3982.636086,10033.179370
1141.714226,5514.419196,4288.992708,11641.551636
1141.714527,1072.248177,3982.636086,12407.443191
1141.714828,-1455.193954,3216.744531,12254.264880
1141.715129,-3063.566220,1991.318043,10569.303459
1141.715430,-6510.078217,-1761.550576,10186.357681
1141.715731,-8118.450483,-4365.581863,11947.908258
1141.716032,-3523.101153,-5514.419196,10416.125148
1141.716333,1684.961421,-2374.263820,10799.070925
1141.716628,1991.318043,-1761.550576,10799.070925
1141.716929,-1148.837332,153.178311,13020.156435
1141.717230,-2067.907198,1225.426488,12790.388968
1141.717531,-1148.837332,3063.566220,10262.946837
1141.717832,459.534933,3829.457775,7888.683016
1141.718133,3293.333686,4442.171019,7735.504705
1141.718434,7122.791461,3676.279464,9573.644437
1141.718735,10416.125148,3982.636086,9573.644437
1141.719023,8041.861327,3982.636086,10109.768526
1141.719324,2527.442131,2604.031287,11488.373325
1141.719624,-2374.263820,-229.767466,11182.016703
1141.719925,-5744.186662,-2067.907198,9267.287815
1141.720226,-8271.628794,-4825.116796,9267.287815
1141.720527,-10492.714303,-8118.450483,12024.497413
1141.720827,-7352.558928,-9037.520349,12713.799813
1141.721128,-1148.837332,-5514.419196,11718.140791
1141.721442,459.534933,-2067.907198,12407.443191
1141.721741,-842.480710,-1148.837332,12330.854035
1141.722039,306.356622,919.069866,10262.946837
1141.722338,2680.620442,2450.852976,8501.396260
1141.722637,3293.333686,612.713244,7352.558928
1141.722936,5973.954129,-2221.085509,8348.217949
1141.723234,7275.969772,-2527.442131,9650.233593
1141.723533,9267.287815,-2374.263820,9573.644437
1141.723840,5361.240885,-2374.263820,10952.249236
1141.724140,-842.480710,-2374.263820,11794.729947
1141.724440,-5591.008351,-3140.155375,10722.481770
1141.724739,-9343.876971,-1914.728887,10722.481770
1141.725039,-8884.342038,-2833.798753,10416.125148
1141.725338,-6663.256528,-5208.062574,10569.303459
1141.725638,-2910.387909,-5208.062574,11794.729947
1141.725938,-76.589155,-2221.085509,12943.567279
1141.726234,2374.263820,-995.659021,12330.854035
1141.726532,2527.442131,153.178311,11028.838392
1141.726829,3446.511997,2450.852976,9420.466126
1141.727126,3752.868619,3369.922842,7888.683016
1141.727424,2833.798753,765.891555,8195.039638
1141.727721,5054.884263,-76.589155,7735.504705
1141.728019,6127.132440,1531.783110,10569.303459
1141.728316,3906.046930,2910.387909,11182.016703
1141.728631,459.534933,3369.922842,11182.016703
1141.728929,-3063.566220,4135.814397,12254.264880
1141.729228,-5591.008351,4442.171019,11488.373325
1141.729527,-8271.628794,2450.852976,10033.179370
1141.729825,-8271.628794,612.713244,10262.946837
1141.730124,-3982.636086,-2067.907198,11182.016703
1141.730423,-1608.372265,-2221.085509,12560.621502
1141.730722,1072.248177,-1148.837332,11794.729947
1141.731033,1838.139732,-842.480710,11182.016703
1141.731330,1378.604799,-689.302399,11182.016703
1141.731627,2144.496354,-229.767466,8807.752882
1141.731923,1531.783110,-536.124088,8654.574571
1141.732220,1072.248177,-2374.263820,9037.520349
1141.732517,4901.705952,-842.480710,8654.574571
1141.732813,6586.667373,1225.426488,9267.287815
1141.733110,5054.884263,2757.209598,9956.590215
1141.733410,-689.302399,1838.139732,12637.210657
1141.733712,-4442.171019,-0.000000,12484.032346
1141.734015,-7352.558928,-1914.728887,10952.249236
1141.734317,-8424.807105,-4671.938485,11488.373325
1141.734620,-5284.651729,-7352.558928,10875.660081
1141.734922,-536.124088,-7812.093861,10262.946837
1141.735225,4748.527641,-6893.023995,10722.481770
1141.735527,2986.977064,-5208.062574,11028.838392
1141.735834,1072.248177,-4901.705952,12713.799813
1141.736130,-842.480710,-3140.155375,11028.838392
1141.736426,459.534933,-995.659021,7812.093861
1141.736722,459.534933,-382.945777,7582.326394
1141.737018,1225.426488,-1608.372265,8424.807105
1141.737314,4059.225241,-842.480710,10875.660081
1141.737610,6127.132440,1378.604799,10416.125148
1141.737906,5054.884263,4442.171019,10875.660081
1141.738226,306.356622,3982.636086,11182.016703
1141.738523,-4978.295107,3369.922842,11182.016703
1141.738820,-6510.078217,1378.604799,10416.125148
1141.739117,-8118.450483,-842.480710,10645.892614
1141.739414,-5284.651729,-4671.938485,11641.551636
1141.739711,-1455.193954,-5820.775818,10109.768526
1141.740008,4518.760174,-3446.511997,11182.016703
1141.740305,4748.527641,-2374.263820,11182.016703
1141.740624,2833.798753,-1914.728887,12254.264880
1141.740922,1072.248177,1378.604799,11182.016703
1141.741221,2297.674665,5284.651729,8195.039638
1141.741519,153.178311,6050.543284,7735.504705
1141.741817,459.534933,4825.116796,8348.217949
1141.742115,765.891555,4748.527641,11028.838392
1141.742414,1072.248177,5591.008351,11564.962480
1141.742712,-382.945777,4825.116796,12024.497413
1141.743025,-3369.922842,1838.139732,12790.388968
1141.743323,-5591.008351,306.356622,11028.838392
1141.743622,-6050.543284,-536.124088,10109.768526
1141.743920,-4442.171019,-5054.884263,9803.411904
1141.744219,-1302.015643,-7965.272172,10416.125148
1141.744517,1991.318043,-7812.093861,10722.481770
1141.744816,3599.690308,-6433.489062,11335.195014
1141.745114,3906.046930,-3906.046930,10262.946837
1141.745414,1991.318043,-2680.620442,10875.660081
1141.745714,-382.945777,-842.480710,10875.660081
1141.746015,-842.480710,1838.139732,8501.396260
1141.746316,-382.945777,1531.783110,8195.039638
1141.746617,1225.426488,-382.945777,8960.931193
1141.746917,1991.318043,306.356622,10799.070925
1141.747218,2680.620442,1684.961421,11028.838392
1141.747519,1684.961421,1378.604799,10569.303459
1141.747826,-1761.550576,-1608.372265,11488.373325
1141.748123,-5284.651729,-3906.046930,11028.838392
1141.748420,-5591.008351,-4901.705952,10722.481770
1141.748717,-4442.171019,-7812.093861,9956.590215
1141.749014,-382.945777,-8424.807105,9497.055282
1141.749310,4059.225241,-6893.023995,10109.768526
1141.749607,2374.263820,-3906.046930,10416.125148
1141.749904,765.891555,-2374.263820,11947.908258
1141.750218,-2604.031287,-76.589155,12713.799813
1141.750521,-2604.031287,3063.566220,11182.016703
1141.750824,-1608.372265,6663.256528,8807.752882
1141.751126,765.891555,6510.078217,8654.574571
1141.751429,4059.225241,5591.008351,10569.303459
1141.751732,7582.326394,6816.434839,10569.303459
1141.752035,7122.791461,6663.256528,9803.411904
1141.752338,2680.620442,3063.566220,11488.373325
1141.752656,-1608.372265,-842.480710,12101.086569
1141.752952,-3829.457775,-2527.442131,10722.481770
1141.753248,-4595.349330,-3752.868619,9650.233593
1141.753544,-4288.992708,-6586.667373,9573.644437
1141.753841,-3523.101153,-6586.667373,12330.854035
1141.754137,-536.124088,-4059.225241,12101.086569
1141.754433,153.178311,459.534933,12407.443191
1141.754729,-995.659021,1531.783110,11028.838392
1141.755046,-2067.907198,2757.209598,9956.590215
1141.755341,-2067.907198,4595.349330,9573.644437
1141.755636,-1302.015643,4748.527641,8960.931193
1141.755932,919.069866,1072.248177,9267.287815
1141.756227,3906.046930,-382.945777,10109.768526
1141.756522,5361.240885,-229.767466,10875.660081
1141.756817,3293.333686,-1455.193954,10875.660081
1141.757113,1991.318043,-1608.372265,10262.946837
1141.757413,-229.767466,-3140.155375,8884.342038
1141.757710,-2910.387909,-5054.884263,9037.520349
1141.758007,-6203.721595,-8424.807105,9803.411904
1141.758305,-4135.814397,-9037.520349,10416.125148
1141.758602,1072.248177,-7199.380617,10416.125148
1141.758900,2297.674665,-4671.938485,12101.086569
1141.759197,306.356622,-2527.442131,11794.729947
1141.759494,-689.302399,919.069866,11411.784169
1141.759825,-1455.193954,4825.116796,10416.125148
1141.760122,-1148.837332,4442.171019,8807.752882
1141.760419,-2604.031287,1991.318043,9573.644437
1141.760716,-76.589155,-0.000000,9267.287815
1141.761012,4365.581863,-689.302399,9803.411904
1141.761309,3599.690308,-995.659021,11182.016703
1141.761606,919.069866,-382.945777,12790.388968
1141.761903,-1914.728887,-2221.085509,12254.264880
1141.762211,-3829.457775,-1455.193954,10722.481770
1141.762511,-4748.527641,-1761.550576,9803.411904
1141.762811,-4288.992708,-3446.511997,9420.466126
1141.763111,-995.659021,-3446.511997,10339.535992
1141.763410,3293.333686,-1608.372265,10875.660081
1141.763710,2986.977064,459.534933,11794.729947
1141.764010,3446.511997,1991.318043,12177.675724
1141.764310,2374.263820,3369.922842,11641.551636
1141.764593,459.534933,3676.279464,10033.179370
1141.764897,-689.302399,4442.171019,9420.466126
1141.765202,-536.124088,5131.473418,9267.287815
1141.765506,3293.333686,3982.636086,8731.163727
1141.765810,5208.062574,3676.279464,10492.714303
1141.766115,1225.426488,3216.744531,11794.729947
1141.766419,-2450.852976,1531.783110,12101.086569
1141.766723,-6203.721595,-1455.193954,12254.264880
1141.767040,-8424.807105,-4518.760174,11028.838392
1141.767338,-8271.628794,-5667.597507,10722.481770
1141.767635,-4442.171019,-6893.023995,10262.946837
1141.767933,1838.139732,-6433.489062,9267.287815
1141.768230,7122.791461,-4212.403552,9267.287815
1141.768527,5667.597507,-2221.085509,10645.892614
1141.768825,2374.263820,-3752.868619,11182.016703
1141.769122,-229.767466,-2986.977064,11182.016703
1141.769412,-995.659021,-1455.193954,9726.822748
1141.769708,612.713244,-995.659021,7735.504705
1141.770004,2374.263820,-2067.907198,8195.039638
1141.770299,4671.938485,-1914.728887,10033.179370
1141.770595,5973.954129,-536.124088,10569.303459
1141.770891,2374.263820,1531.783110,11794.729947
1141.771187,-689.302399,2450.852976,10875.660081
1141.771483,-6816.434839,459.534933,10186.357681
1141.771792,-10799.070925,-1455.193954,11794.729947
1141.772090,-11258.605858,-2527.442131,11488.373325
1141.772389,-6050.543284,-5820.775818,10722.481770
1141.772687,-382.945777,-7352.558928,10875.660081
1141.772986,4212.403552,-5820.775818,11335.195014
1141.773284,5361.240885,-3906.046930,12177.675724
1141.773583,5973.954129,-1455.193954,11488.373325
1141.773881,6280.310751,1378.604799,8807.752882
1141.774188,4212.403552,4135.814397,7735.504705
1141.774489,153.178311,3216.744531,8501.396260
1141.774790,1225.426488,3982.636086,8960.931193
1141.775090,2833.798753,5437.830040,10875.660081
1141.775391,2833.798753,5437.830040,11182.016703
1141.775691,-1302.015643,6356.899906,11488.373325
1141.775992,-3676.279464,6816.434839,11335.195014
1141.776292,-6969.613150,4825.116796,11641.551636
1141.776589,-9190.698660,1378.604799,11794.729947
1141.776889,-8118.450483,-536.124088,11182.016703
1141.777188,-2604.031287,-3293.333686,11488.373325
1141.777488,2527.442131,-5667.597507,11028.838392
1141.777787,4901.705952,-6280.310751,11335.195014
1141.778087,5054.884263,-5361.240885,11182.016703
1141.778386,3140.155375,-4518.760174,10109.768526
1141.778686,459.534933,-2680.620442,9956.590215
1141.778981,306.356622,153.178311,8118.450483
1141.779281,1378.604799,1684.961421,7812.093861
1141.779581,3446.511997,2450.852976,8041.861327
1141.779881,5208.062574,4135.814397,10109.768526
1141.780181,2144.496354,4825.116796,12024.497413
1141.780482,-689.302399,4825.116796,11641.551636
1141.780782,-4748.527641,2450.852976,11488.373325
1141.781082,-8271.628794,-2527.442131,11641.551636
1141.781394,-9497.055282,-5667.597507,12101.086569
1141.781691,-5744.186662,-8884.342038,10262.946837
1141.781988,-1302.015643,-11718.140791,10722.481770
1141.782286,4212.403552,-12177.675724,10722.481770
1141.782583,4901.705952,-9037.520349,11182.016703
1141.782881,4059.225241,-6586.667373,10875.660081
1141.783178,306.356622,-5208.062574,10875.660081
1141.783475,-2757.209598,-1455.193954,10262.946837
1141.783775,-1608.372265,1991.318043,8041.861327
1141.784075,1378.604799,4595.349330,8654.574571
1141.784375,4901.705952,6050.543284,7888.683016
1141.784675,8960.931193,8348.217949,9114.109504
1141.784975,5514.419196,8807.752882,11335.195014
1141.785275,765.891555,6203.721595,12101.086569
1141.785575,-4978.295107,1684.961421,12713.799813
1141.785875,-8731.163727,-842.480710,11794.729947
1141.786183,-9190.698660,-4212.403552,10262.946837
1141.786481,-6816.434839,-7046.202306,10722.481770
1141.786780,-3829.457775,-9497.055282,11794.729947
1141.787079,306.356622,-6893.023995,12790.388968
1141.787378,2374.263820,-3293.333686,13326.513057
1141.787677,4365.581863,919.069866,9956.590215
1141.787976,4365.581863,5591.008351,9114.109504
1141.788275,2680.620442,9114.109504,8424.807105
1141.788591,2527.442131,9650.233593,8195.039638
1141.788890,4671.938485,8348.217949,7582.326394
1141.789188,5820.775818,8195.039638,9420.466126
1141.789487,4518.760174,6050.543284,9956.590215
1141.789785,-76.589155,3829.457775,12407.443191
1141.790084,-2221.085509,765.891555,12560.621502
1141.790382,-4825.116796,-1148.837332,10033.179370
1141.790681,-7199.380617,-4212.403552,9573.644437
1141.790995,-10799.070925,-9037.520349,10569.303459
1141.791294,-7658.915550,-12177.675724,12101.086569
1141.791592,-3676.279464,-11105.427547,13403.102212
1141.791891,459.534933,-10186.357681,11641.551636
1141.792190,2297.674665,-5667.597507,10416.125148
1141.792488,2680.620442,-1914.728887,10186.357681
1141.792787,3752.868619,1072.248177,9573.644437
1141.793086,5667.597507,3676.279464,6969.613150
1141.793374,4059.225241,3216.744531,7429.148083
1141.793674,4901.705952,2144.496354,8348.217949
1141.793974,6280.310751,919.069866,9343.876971
1141.794274,3906.046930,459.534933,10569.303459
1141.794574,-842.480710,-1761.550576,12101.086569
1141.794874,-6356.899906,-4671.938485,12407.443191
1141.795174,-7965.272172,-3906.046930,12101.086569
1141.795473,-9190.698660,-5667.597507,10416.125148
1141.795773,-9573.644437,-9190.698660,10875.660081
1141.796072,-5744.186662,-8577.985416,12790.388968
1141.796371,1991.318043,-6127.132440,11028.838392
1141.796671,4901.705952,-2221.085509,10722.481770
1141.796970,4901.705952,765.891555,11028.838392
1141.797269,4365.581863,3216.744531,10262.946837
1141.797568,4671.938485,4442.171019,8807.752882
1141.797868,4212.403552,6356.899906,7888.683016
1141.798175,3446.511997,4825.116796,8118.450483
1141.798475,3599.690308,4288.992708,10033.179370
1141.798775,5820.775818,5744.186662,10569.303459
1141.799075,3599.690308,6510.078217,11182.016703
1141.799375,-1148.837332,4442.171019,11641.551636
1141.799675,-6510.078217,2297.674665,13249.923901
1141.799975,-10645.892614,-689.302399,12101.086569
1141.800275,-11258.605858,-1761.550576,12177.675724
1141.800544,-10492.714303,-4825.116796,11794.729947
1141.800849,-3982.636086,-4671.938485,10262.946837
1141.801155,1378.604799,-2221.085509,10569.303459
1141.801460,4518.760174,-536.124088,10416.125148
1141.801765,4365.581863,919.069866,10722.481770
1141.802071,4748.527641,765.891555,9956.590215
1141.802376,4212.403552,1378.604799,8807.752882
1141.802681,5667.597507,1531.783110,6433.489062
1141.803000,5667.597507,-229.767466,7199.380617
1141.803298,5973.954129,-1455.193954,9267.287815
1141.803596,4518.760174,-382.945777,10339.535992
1141.803894,-842.480710,-1455.193954,12713.799813
1141.804193,-4595.349330,-2221.085509,12407.443191
1141.804491,-8884.342038,-2221.085509,11182.016703
1141.804789,-11718.140791,-1455.193954,11335.195014
1141.805087,-11947.908258,-4059.225241,11028.838392
1141.805400,-8577.985416,-7046.202306,11182.016703
1141.805695,-1761.550576,-7046.202306,12101.086569
1141.805991,3599.690308,-5820.775818,10875.660081
1141.806286,8960.931193,-3752.868619,9956.590215
1141.806581,10416.125148,-2527.442131,9343.876971
1141.806876,9420.466126,-842.480710,8654.574571
1141.807172,5514.419196,306.356622,7735.504705
1141.807467,2527.442131,-229.767466,7582.326394
1141.807767,2374.263820,-536.124088,8501.396260
1141.808067,-689.302399,-995.659021,11947.908258
1141.808368,-1148.837332,1225.426488,12790.388968
1141.808669,-4135.814397,4595.349330,12254.264880
1141.808970,-6969.613150,4442.171019,12560.621502
1141.809270,-10799.070925,4442.171019,13403.102212
1141.809571,-11258.605858,3829.457775,11947.908258
1141.809872,-7199.380617,3523.101153,10416.125148
1141.810179,-1914.728887,-689.302399,9420.466126
1141.810476,4212.403552,-2833.798753,10875.660081
1141.810773,7275.969772,-3446.511997,11335.195014
1141.811070,8807.752882,-2986.977064,10109.768526
1141.811367,7888.683016,-3293.333686,9650.233593
1141.811664,4901.705952,-2680.620442,9114.109504
1141.811961,3599.690308,-76.589155,8654.574571
1141.812257,1225.426488,1072.248177,7888.683016
1141.812600,2527.442131,3216.744531,9114.109504
1141.812899,765.891555,3523.101153,11488.373325
1141.813199,-2374.263820,4825.116796,12560.621502
1141.813498,-5131.473418,7735.504705,13249.923901
1141.813797,-7352.558928,6050.543284,11411.784169
1141.814097,-8731.163727,3829.457775,10569.303459
1141.814396,-8884.342038,1684.961421,11028.838392
1141.814696,-5437.830040,-2986.977064,10569.303459
1141.815014,-1148.837332,-6586.667373,10875.660081
1141.815307,5973.954129,-8424.807105,9956.590215
1141.815600,6893.023995,-8577.985416,10416.125148
1141.815892,6893.023995,-9497.055282,9114.109504
1141.816185,4059.225241,-8424.807105,9420.466126
1141.816478,765.891555,-7199.380617,9803.411904
1141.816770,-689.302399,-5667.597507,9803.411904
1141.817063,153.178311,-2527.442131,9190.698660
1141.817380,4671.938485,1225.426488,8501.396260
1141.817678,5361.240885,4748.527641,10416.125148
1141.817976,1991.318043,6203.721595,12024.497413
1141.818274,-1914.728887,8041.861327,11182.016703
1141.818572,-4978.295107,6663.256528,11028.838392
1141.818869,-10645.892614,3063.566220,11488.373325
1141.819167,-12407.443191,-2680.620442,12790.388968
1141.819465,-8731.163727,-6739.845684,11258.605858
1141.819765,-995.659021,-7965.272172,11488.373325
1141.820064,5208.062574,-7965.272172,11182.016703
1141.820363,7122.791461,-5820.775818,9956.590215
1141.820662,6586.667373,-3599.690308,9726.822748
1141.820961,4059.225241,-2374.263820,9114.109504
1141.821261,765.891555,-689.302399,10262.946837
1141.821560,306.356622,1531.783110,8501.396260
1141.821859,3293.333686,5437.830040,6969.613150
1141.822173,6280.310751,6663.256528,8654.574571
1141.822471,4748.527641,8501.396260,10952.249236
1141.822770,1378.604799,9650.233593,13709.458834
1141.823069,-995.659021,8807.752882,11488.373325
1141.823368,-4442.171019,7122.791461,12560.621502
1141.823666,-7658.915550,3523.101153,11947.908258
1141.823965,-10952.249236,-76.589155,10569.303459
1141.824264,-7199.380617,-3752.868619,10722.481770
1141.824605,-2450.852976,-7199.380617,11641.551636
1141.824897,-842.480710,-8577.985416,12943.567279
1141.825189,2527.442131,-6127.132440,12101.086569
1141.825482,5514.419196,-4365.581863,9114.109504
1141.825774,5208.062574,-2374.263820,8501.396260
1141.826067,3906.046930,-0.000000,9420.466126
1141.826359,2527.442131,3676.279464,8041.861327
1141.826651,4212.403552,4442.171019,6510.078217
1141.826948,2986.977064,2450.852976,10109.768526
1141.827249,-382.945777,2144.496354,13096.745590
1141.827550,-995.659021,1838.139732,11028.838392
1141.827851,-2067.907198,612.713244,10186.357681
1141.828152,-4825.116796,-3140.155375,11335.195014
1141.828453,-6663.256528,-6280.310751,11335.195014
1141.828754,-5591.008351,-8884.342038,11028.838392
1141.829055,-3369.922842,-9880.001059,11028.838392
1141.829350,-0.000000,-10186.357681,11411.784169
1141.829651,-382.945777,-8731.163727,11411.784169
1141.829952,612.713244,-6586.667373,11028.838392
1141.830253,1225.426488,-4671.938485,10416.125148
1141.830554,1838.139732,-1608.372265,9267.287815
1141.830854,1838.139732,153.178311,8041.861327
1141.831155,3906.046930,1378.604799,7582.326394
1141.831456,5973.954129,4135.814397,8960.931193
1141.831744,6127.132440,5284.651729,9956.590215
1141.832045,2986.977064,5131.473418,11335.195014
1141.832346,-229.767466,4442.171019,11641.551636
1141.832647,-2450.852976,3063.566220,9956.590215
1141.832948,-5437.830040,-229.767466,10109.768526
1141.833248,-6969.613150,-2680.620442,10875.660081
1141.833549,-5284.651729,-5667.597507,10875.660081
1141.833850,-4442.171019,-7046.202306,12407.443191
1141.834159,-1148.837332,-2527.442131,13556.280523
1141.834458,-995.659021,-76.589155,12713.799813
1141.834758,-689.302399,2144.496354,10875.660081
1141.835057,153.178311,4978.295107,10416.125148
1141.835357,306.356622,6356.899906,9497.055282
1141.835656,4059.225241,5897.364973,8195.039638
1141.835955,6433.489062,4288.992708,7812.093861
1141.836255,7735.504705,4442.171019,10109.768526
1141.836596,7735.504705,4595.349330,11488.373325
1141.836891,4059.225241,4288.992708,11182.016703
1141.837185,153.178311,1684.961421,10875.660081
1141.837480,-2450.852976,153.178311,10109.768526
1141.837775,-6510.078217,-1455.193954,9956.590215
1141.838070,-8731.163727,-5667.597507,10722.481770
1141.838365,-6356.899906,-7812.093861,11794.729947
1141.838660,-3523.101153,-5820.775818,12254.264880
1141.838956,-536.124088,-5361.240885,12790.388968
1141.839254,-1761.550576,-2680.620442,11641.551636
1141.839551,-382.945777,-842.480710,10875.660081
1141.839848,-229.767466,-76.589155,10262.946837
1141.840146,-76.589155,-1914.728887,8960.931193
1141.840443,1991.318043,-2833.798753,8195.039638
1141.840740,6893.023995,-3599.690308,8041.861327
1141.841038,9956.590215,-3140.155375,8884.342038
1141.841352,7046.202306,-3446.511997,10339.535992
1141.841651,-0.000000,-2680.620442,11488.373325
1141.841949,-2757.209598,-2374.263820,10492.714303
1141.842248,-5591.008351,-1914.728887,9650.233593
1141.842547,-7199.380617,-3140.155375,11028.838392
1141.842845,-7505.737239,-5208.062574,10875.660081
1141.843144,-2757.209598,-4671.938485,9803.411904
1141.843443,3906.046930,-2833.798753,10722.481770
1141.843754,2527.442131,-1914.728887,12254.264880
1141.844054,-1148.837332,-2833.798753,12101.086569
1141.844354,-842.480710,-0.000000,10339.535992
1141.844654,1225.426488,1684.961421,8731.163727
1141.844954,-536.124088,459.534933,9650.233593
1141.845254,1531.783110,-76.589155,8960.931193
1141.845554,5514.419196,2450.852976,9420.466126
1141.845854,8348.217949,3369.922842,10262.946837
1141.846154,3293.333686,3216.744531,11488.373325
1141.846451,-2221.085509,3829.457775,12254.264880
1141.846747,-5897.364973,3829.457775,12254.264880
1141.847044,-6663.256528,3063.566220,9650.233593
1141.847341,-6663.256528,1838.139732,10262.946837
1141.847638,-3829.457775,-842.480710,11182.016703
1141.847934,919.069866,-2067.907198,10799.070925
1141.848231,5054.884263,-1455.193954,11488.373325
1141.848538,5054.884263,-1302.015643,11182.016703
1141.848840,1684.961421,-1608.372265,11411.784169
1141.849141,-1148.837332,-995.659021,9573.644437
1141.849443,-1455.193954,-0.000000,8654.574571
1141.849744,-2604.031287,-995.659021,9650.233593
1141.850046,-1761.550576,-2221.085509,9420.466126
1141.850347,1072.248177,-1608.372265,11488.373325
1141.850649,3906.046930,919.069866,11335.195014
1141.850965,3293.333686,1838.139732,10799.070925
1141.851263,1225.426488,3063.566220,9573.644437
1141.851562,-689.302399,2604.031287,8501.396260
1141.851860,-1914.728887,306.356622,8807.752882
1141.852159,-3369.922842,-4059.225241,8960.931193
1141.852457,-2910.387909,-8424.807105,11794.729947
1141.852756,459.534933,-9497.055282,11641.551636
1141.853054,2297.674665,-8424.807105,11258.605858
1141.853368,1991.318043,-7352.558928,11182.016703
1141.853663,-1914.728887,-5973.954129,11488.373325
1141.853958,-2221.085509,-2986.977064,11182.016703
1141.854253,-1761.550576,-0.000000,8195.039638
1141.854548,-2374.263820,-76.589155,9114.109504
1141.854843,1225.426488,459.534933,8807.752882
1141.855138,4212.403552,2757.209598,10722.481770
1141.855433,4518.760174,3676.279464,11488.373325
1141.855745,1684.961421,5437.830040,12101.086569
1141.856044,-1148.837332,5897.364973,11488.373325
1141.856342,-2221.085509,5131.473418,9803.411904
1141.856641,-3676.279464,2450.852976,9573.644437
1141.856939,-5284.651729,-382.945777,11182.016703
1141.857238,-3523.101153,-5054.884263,11794.729947
1141.857536,1684.961421,-5973.954129,10875.660081
1141.857835,2986.977064,-4212.403552,11488.373325
1141.858134,1072.248177,-3752.868619,11871.319102
1141.858435,-76.589155,-1302.015643,10952.249236
1141.858736,-0.000000,1991.318043,10262.946837
1141.859037,1991.318043,5284.651729,8884.342038
1141.859337,612.713244,5437.830040,9573.644437
1141.859638,2833.798753,7582.326394,8348.217949
1141.859939,5208.062574,7275.969772,9956.590215
1141.860240,765.891555,4825.116796,12254.264880
1141.860547,-2604.031287,3216.744531,11641.551636
1141.860844,-4288.992708,919.069866,10416.125148
1141.861141,-4825.116796,-1914.728887,9420.466126
1141.861437,-5437.830040,-5361.240885,10416.125148
1141.861734,-2374.263820,-8731.163727,9956.590215
1141.862031,919.069866,-8577.985416,9420.466126
1141.862328,5820.775818,-6893.023995,9803.411904
1141.862625,2833.798753,-6280.310751,11794.729947
1141.862939,-536.124088,-5820.775818,11641.551636
1141.863239,-2757.209598,-2680.620442,10722.481770
1141.863540,-4825.116796,-689.302399,9803.411904
1141.863840,-3676.279464,919.069866,9114.109504
1141.864140,-76.589155,1531.783110,9114.109504
1141.864440,3906.046930,1684.961421,9573.644437
1141.864741,6127.132440,1225.426488,10722.481770
1141.865041,5361.240885,1531.783110,10875.660081
1141.865360,3906.046930,919.069866,9650.233593
1141.865659,-689.302399,-3446.511997,9803.411904
1141.865958,-4288.992708,-5973.954129,10722.481770
1141.866257,-5591.008351,-9037.520349,10645.892614
1141.866555,-2757.209598,-10186.357681,10416.125148
1141.866854,1531.783110,-9190.698660,10109.768526
1141.867153,2374.263820,-5973.954129,11947.908258
1141.867452,1378.604799,-2221.085509,12790.388968
1141.867769,-2604.031287,-536.124088,11947.908258
1141.868065,-4442.171019,3523.101153,10722.481770
1141.868360,-4442.171019,6050.543284,10109.768526
1141.868655,-4135.814397,6510.078217,9650.233593
1141.868951,1378.604799,7888.683016,9267.287815
1141.869246,4365.581863,6663.256528,9956.590215
1141.869541,7122.791461,5897.364973,11028.838392
1141.869836,4365.581863,4978.295107,11028.838392
1141.870136,919.069866,2757.209598,10875.660081
1141.870434,-2757.209598,-689.302399,11182.016703
1141.870731,-4288.992708,-1608.372265,10109.768526
1141.871029,-3216.744531,-3599.690308,9880.001059
1141.871326,-382.945777,-5514.419196,9956.590215
1141.871623,2374.263820,-3599.690308,10875.660081
1141.871921,2680.620442,-689.302399,12101.086569
1141.872218,1838.139732,1225.426488,12177.675724
1141.872549,-689.302399,4288.992708,11641.551636
1141.872846,-1302.015643,4978.295107,9803.411904
1141.873143,-1608.372265,5744.186662,8501.396260
1141.873440,-1455.193954,3676.279464,8654.574571
1141.873736,1531.783110,1838.139732,9573.644437
1141.874033,4518.760174,-0.000000,11182.016703
1141.874330,3293.333686,-536.124088,11335.195014
1141.874627,1378.604799,-2067.907198,10722.481770
1141.874935,-2757.209598,-4518.760174,10109.768526
1141.875235,-4748.527641,-5667.597507,9956.590215
1141.875535,-6356.899906,-6739.845684,10109.768526
1141.875835,-5897.364973,-9190.698660,9650.233593
1141.876134,-3829.457775,-9497.055282,10722.481770
1141.876434,2986.977064,-7658.915550,11182.016703
1141.876734,5054.884263,-3752.868619,11182.016703
1141.877034,3293.333686,-2527.442131,10262.946837
1141.877317,1378.604799,-0.000000,10416.125148
1141.877622,-536.124088,1378.604799,9420.466126
1141.877927,-382.945777,1225.426488,8807.752882
1141.878231,-1455.193954,-1608.372265,9726.822748
1141.878536,-382.945777,-2527.442131,10569.303459
1141.878841,2833.798753,-1148.837332,11641.551636
1141.879146,2297.674665,-689.302399,11028.838392
1141.879450,-76.589155,-229.767466,11488.373325
1141.879768,-4135.814397,-1761.550576,10722.481770
1141.880065,-4825.116796,-536.124088,10416.125148
1141.880362,-3829.457775,-1302.015643,9956.590215
1141.880660,-1761.550576,-2374.263820,10109.768526
1141.880957,1531.783110,-3446.511997,11182.016703
1141.881255,4365.581863,-689.302399,10875.660081
1141.881552,4059.225241,2144.496354,12254.264880
1141.881849,2144.496354,2757.209598,11182.016703
1141.882081,-2067.907198,4135.814397,10875.660081
1141.882385,-1302.015643,5284.651729,10109.768526
1141.882689,-536.124088,5897.364973,8960.931193
1141.882994,1225.426488,4288.992708,9114.109504
1141.883298,2833.798753,3829.457775,11258.605858
1141.883602,4059.225241,4595.349330,11794.729947
1141.883906,2297.674665,4442.171019,10875.660081
1141.884210,-0.000000,3216.744531,10109.768526
1141.884519,-3982.636086,1531.783110,9956.590215
1141.884818,-6510.078217,-842.480710,10722.481770
1141.885116,-5437.830040,-4365.581863,10799.070925
1141.885415,-2910.387909,-6739.845684,9956.590215
1141.885713,306.356622,-6433.489062,11258.605858
1141.886012,1378.604799,-6433.489062,12101.086569
1141.886310,2144.496354,-2374.263820,11182.016703
1141.886609,1991.318043,-689.302399,9726.822748
1141.886916,-536.124088,-229.767466,9420.466126
1141.887216,-2604.031287,-1148.837332,9803.411904
1141.887517,-76.589155,-229.767466,8195.039638
1141.887817,4671.938485,-229.767466,7735.504705
1141.888118,6280.310751,-1914.728887,9956.590215
1141.888419,4518.760174,-1148.837332,10722.481770
1141.888719,2527.442131,919.069866,10722.481770
1141.889020,-536.124088,1225.426488,9573.644437
1141.889316,-6356.899906,-2680.620442,10262.946837
1141.889617,-9037.520349,-3906.046930,12254.264880
1141.889917,-7122.791461,-5820.775818,9956.590215
1141.890217,-1914.728887,-7658.915550,9573.644437
1141.890517,1072.248177,-9190.698660,11028.838392
1141.890818,1531.783110,-7199.380617,14015.815456
1141.891118,2527.442131,-4518.760174,12407.443191
1141.891418,1838.139732,-995.659021,10875.660081
1141.891713,1838.139732,1378.604799,9267.287815
1141.892013,-0.000000,2910.387909,9037.520349
1141.892314,1225.426488,5284.651729,8041.861327
1141.892614,3446.511997,5897.364973,8577.985416
1141.892914,1838.139732,4135.814397,12407.443191
1141.893214,1378.604799,4748.527641,12484.032346
1141.893514,153.178311,7122.791461,11182.016703
1141.893815,-2221.085509,5591.008351,9803.411904
1141.894126,-5284.651729,1991.318043,10109.768526
1141.894424,-5284.651729,-536.124088,11335.195014
1141.894721,-2450.852976,-3140.155375,10569.303459
1141.895019,153.178311,-5667.597507,10262.946837
1141.895316,2833.798753,-6739.845684,11641.551636
1141.895614,2680.620442,-6893.023995,13173.334746
1141.895911,1531.783110,-4901.705952,11335.195014
1141.896208,153.178311,-1148.837332,9420.466126
1141.896517,-2221.085509,153.178311,8654.574571
1141.896817,-2757.209598,1991.318043,9803.411904
1141.897116,-1761.550576,3829.457775,9803.411904
1141.897416,919.069866,5897.364973,10262.946837
1141.897715,3446.511997,7275.969772,11028.838392
1141.898015,2833.798753,6816.434839,10416.125148
1141.898314,1838.139732,6663.256528,10109.768526
1141.898613,-842.480710,3676.279464,9114.109504
1141.898921,-2757.209598,-1455.193954,8731.163727
1141.899219,-4825.116796,-7046.202306,11028.838392
1141.899517,-1608.372265,-10952.249236,10262.946837
1141.899815,765.891555,-12177.675724,10416.125148
1141.900113,2297.674665,-12484.032346,12254.264880
1141.900411,765.891555,-9190.698660,12407.443191
1141.900709,-1148.837332,-5361.240885,11182.016703
1141.901007,-1302.015643,153.178311,8501.396260
1141.901323,-2374.263820,3216.744531,8577.985416
1141.901622,-4595.349330,2144.496354,10875.660081
1141.901920,-3523.101153,1225.426488,10722.481770
1141.902219,3140.155375,4595.349330,9726.822748
1141.902517,6280.310751,4442.171019,9420.466126
1141.902816,4365.581863,4442.171019,10722.481770
1141.903114,2374.263820,3063.566220,9803.411904
1141.903413,153.178311,2297.674665,9190.698660
1141.903727,-2221.085509,-2527.442131,9573.644437
1141.904026,-5437.830040,-7658.915550,10722.481770
1141.904325,-5131.473418,-10645.892614,12254.264880
1141.904623,-1148.837332,-10492.714303,11794.729947
1141.904922,306.356622,-9343.876971,12254.264880
1141.905221,153.178311,-5820.775818,12254.264880
1141.905519,-0.000000,-842.480710,10875.660081
1141.905818,459.534933,4595.349330,9880.001059
1141.906106,1684.961421,8960.931193,9114.109504
1141.906405,3446.511997,11028.838392,8807.752882
1141.906704,5054.884263,12407.443191,8884.342038
1141.907004,6127.132440,11182.016703,9420.466126
1141.907303,3446.511997,9420.466126,11411.784169
1141.907602,-1302.015643,4288.992708,12101.086569
1141.907901,-4442.171019,-842.480710,11794.729947
1141.908200,-6663.256528,-4671.938485,10416.125148
1141.908500,-6816.434839,-6893.023995,10262.946837
1141.908799,-5131.473418,-10033.179370,9650.233593
1141.909098,-3676.279464,-11105.427547,10875.660081
1141.909397,-842.480710,-9343.876971,12790.388968
1141.909697,1378.604799,-6127.132440,12254.264880
1141.909996,1838.139732,-3752.868619,10569.303459
1141.910295,1225.426488,-0.000000,9803.411904
1141.910594,919.069866,2604.031287,9267.287815
1141.910901,1225.426488,3676.279464,8041.861327
1141.911201,4212.403552,4595.349330,7965.272172
1141.911501,3752.868619,4442.171019,9956.590215
1141.911802,3752.868619,4288.992708,11794.729947
1141.912102,1072.248177,2910.387909,11564.962480
1141.912402,-76.589155,1072.248177,10109.768526
1141.912702,-3369.922842,-1761.550576,9803.411904
1141.913002,-7505.737239,-5973.954129,10569.303459
1141.913305,-6969.613150,-8577.985416,11182.016703
1141.913606,-3982.636086,-10186.357681,9726.822748
1141.913906,-1148.837332,-10952.249236,11182.016703
1141.914206,765.891555,-8884.342038,13556.280523
1141.914507,3140.155375,-4059.225241,12177.675724
1141.914807,4671.938485,153.178311,10262.946837
1141.915107,2374.263820,3829.457775,8424.807105
1141.915408,765.891555,5897.364973,9420.466126
1141.915726,-76.589155,6050.543284,8960.931193
1141.916025,1378.604799,5591.008351,8501.396260
1141.916323,2527.442131,4978.295107,11335.195014
1141.916621,3140.155375,3829.457775,11871.319102
1141.916920,1991.318043,5284.651729,12637.210657
1141.917218,1378.604799,4978.295107,9803.411904
1141.917516,-3369.922842,2144.496354,9573.644437
1141.917814,-4595.349330,-229.767466,10416.125148
1141.918127,-6050.543284,-4212.403552,10569.303459
1141.918423,-4748.527641,-7965.272172,12560.621502
1141.918718,-1302.015643,-8577.985416,12560.621502
1141.919013,1531.783110,-6280.310751,12101.086569
1141.919308,2833.798753,-3446.511997,10875.660081
1141.919604,2374.263820,-76.589155,9497.055282
1141.919899,459.534933,2910.387909,9803.411904
1141.920194,1531.783110,4825.116796,9190.698660
1141.920494,2144.496354,4978.295107,8041.861327
1141.920795,3752.868619,5284.651729,9343.876971
1141.921095,5361.240885,3982.636086,10416.125148
1141.921396,2527.442131,1684.961421,12407.443191
1141.921697,612.713244,1378.604799,12713.799813
1141.921998,-2757.209598,-229.767466,10109.768526
1141.922299,-6663.256528,-1914.728887,10109.768526
1141.922599,-11411.784169,-6433.489062,11028.838392
1141.922906,-9573.644437,-8577.985416,11182.016703
1141.923207,-5744.186662,-9726.822748,12024.497413
1141.923507,-1455.193954,-10339.535992,11947.908258
1141.923807,2680.620442,-9037.520349,12407.443191
1141.924107,4671.938485,-5820.775818,10722.481770
1141.924407,7122.791461,-3293.333686,9650.233593
1141.924707,7046.202306,-1302.015643,8041.861327
1141.925008,5208.062574,1072.248177,7429.148083
1141.925322,4518.760174,1378.604799,7275.969772
1141.925621,2680.620442,1838.139732,7965.272172
1141.925921,-842.480710,3063.566220,13249.923901
1141.926220,-2067.907198,2450.852976,13709.458834
1141.926520,-3523.101153,2910.387909,11488.373325
1141.926819,-4595.349330,3676.279464,10262.946837
1141.927118,-6969.613150,1991.318043,10569.303459
1141.927418,-7505.737239,-536.124088,10416.125148
1141.927656,-6356.899906,-2374.263820,11488.373325
1141.927960,-2221.085509,-4059.225241,11641.551636
1141.928264,1684.961421,-4671.938485,11871.319102
1141.928569,4901.705952,-4059.225241,11488.373325
1141.928873,6127.132440,-4212.403552,10722.481770
1141.929177,4901.705952,-1761.550576,9803.411904
1141.929481,6739.845684,1378.604799,8041.861327
1141.929785,4901.705952,2757.209598,8195.039638
1141.930103,3599.690308,4442.171019,8960.931193
1141.930400,2680.620442,6510.078217,10569.303459
1141.930698,1684.961421,8195.039638,10875.660081
1141.930996,-1148.837332,8195.039638,11794.729947
1141.931294,-4825.116796,5744.186662,12101.086569
1141.931592,-8118.450483,4442.171019,11182.016703
1141.931890,-7812.093861,1531.783110,10952.249236
1141.932187,-8118.450483,-2833.798753,10875.660081
1141.932487,-5591.008351,-5973.954129,10952.249236
1141.932787,-2757.209598,-7658.915550,11488.373325
1141.933087,459.534933,-7812.093861,12407.443191
1141.933387,2144.496354,-8424.807105,13096.745590
1141.933687,2374.263820,-7505.737239,10952.249236
1141.933987,3599.690308,-4671.938485,8654.574571
1141.934287,5208.062574,-995.659021,6050.543284
1141.934587,4901.705952,-995.659021,7735.504705
1141.934878,4901.705952,-76.589155,9650.233593
1141.935179,5208.062574,1838.139732,9956.590215
1141.935480,4059.225241,4288.992708,11335.195014
1141.935782,2833.798753,4595.349330,9803.411904
1141.936083,-842.480710,3982.636086,10109.768526
1141.936384,-6050.543284,1225.426488,10799.070925
1141.936685,-9343.876971,-2986.977064,10875.660081
1141.936987,-10339.535992,-7199.380617,11794.729947
1141.937294,-7505.737239,-9880.001059,12101.086569
1141.937591,-5131.473418,-13096.745590,12943.567279
1141.937888,-3216.744531,-11258.605858,13096.745590
1141.938185,2833.798753,-8271.628794,11641.551636
1141.938483,6586.667373,-2680.620442,8348.217949
1141.938780,7046.202306,-229.767466,8348.217949
1141.939077,5973.954129,2910.387909,7429.148083
1141.939374,5973.954129,4825.116796,7122.791461
1141.939671,6280.310751,6816.434839,9420.466126
1141.939972,4212.403552,6050.543284,10952.249236
1141.940273,153.178311,6663.256528,12943.567279
1141.940574,-1148.837332,7122.791461,12407.443191
1141.940875,-2450.852976,7888.683016,9803.411904
1141.941176,-5591.008351,4748.527641,10416.125148
1141.941477,-9880.001059,-0.000000,12177.675724
1141.941779,-10645.892614,-4365.581863,12790.388968
1141.942073,-8424.807105,-6280.310751,13020.156435
1141.942374,-4825.116796,-6893.023995,13403.102212
1141.942675,-2374.263820,-7658.915550,13096.745590
1141.942976,2374.263820,-4901.705952,11028.838392
1141.943277,6739.845684,-689.302399,8348.217949
1141.943578,8807.752882,1072.248177,6356.899906
1141.943878,7122.791461,2757.209598,7582.326394
1141.944179,8348.217949,4825.116796,7888.683016
1141.944468,7122.791461,6816.434839,8654.574571
1141.944768,5208.062574,7122.791461,10109.768526
1141.945068,-0.000000,5131.473418,11335.195014
1141.945368,-5131.473418,1991.318043,12407.443191
1141.945668,-7658.915550,-229.767466,12254.264880
1141.945968,-8118.450483,-3446.511997,10722.481770
1141.946268,-7965.272172,-7352.558928,11641.551636
1141.946568,-5437.830040,-9880.001059,12177.675724
1141.946877,-1148.837332,-8731.163727,9956.590215
1141.947176,1531.783110,-7199.380617,11641.551636
1141.947474,919.069866,-5667.597507,11488.373325
1141.947773,-382.945777,-4518.760174,10569.303459
1141.948071,765.891555,-1455.193954,9267.287815
1141.948370,3599.690308,1225.426488,7275.969772
1141.948668,3293.333686,-229.767466,8501.396260
1141.948967,5667.597507,765.891555,8195.039638
1141.949274,6739.845684,2757.209598,9573.644437
1141.949573,5820.775818,3982.636086,11641.551636
1141.949873,306.356622,3523.101153,11794.729947
1141.950173,-3063.566220,3063.566220,11182.016703
1141.950472,-6510.078217,612.713244,10416.125148
1141.950772,-8271.628794,-2067.907198,11182.016703
1141.951072,-6816.434839,-5667.597507,11028.838392
1141.951372,-3676.279464,-5208.062574,12254.264880
1141.951668,1838.139732,-4825.116796,11182.016703
1141.951971,2833.798753,-2833.798753,11488.373325
1141.952274,2833.798753,-995.659021,11488.373325
1141.952577,1378.604799,1225.426488,9573.644437
1141.952880,-1302.015643,2910.387909,10416.125148
1141.953183,-1914.728887,2604.031287,10262.946837
1141.953486,1838.139732,2910.387909,10416.125148
1141.953788,6586.667373,3982.636086,9420.466126
1141.954083,8807.752882,4288.992708,8654.574571
1141.954383,6280.310751,2757.209598,10416.125148
1141.954684,3752.868619,2144.496354,10875.660081
1141.954984,-842.480710,765.891555,9803.411904
1141.955284,-6050.543284,-2680.620442,10416.125148
1141.955584,-10492.714303,-4212.403552,11182.016703
1141.955884,-8884.342038,-6433.489062,10722.481770
1141.956184,-6050.543284,-6127.132440,11488.373325
1141.956472,-3982.636086,-6127.132440,12254.264880
1141.956773,-2221.085509,-4059.225241,13096.745590
1141.957074,612.713244,-3293.333686,11335.195014
1141.957375,2297.674665,919.069866,9190.698660
1141.957676,1378.604799,1838.139732,9343.876971
1141.957976,2144.496354,1838.139732,8654.574571
1141.958277,5054.884263,1225.426488,8501.396260
1141.958578,7582.326394,765.891555,9267.287815
1141.958887,7429.148083,-382.945777,10722.481770
1141.959186,3599.690308,-842.480710,11641.551636
1141.959485,1991.318043,-1455.193954,10569.303459
1141.959783,-2757.209598,-842.480710,10262.946837
1141.960082,-6969.613150,-1455.193954,9803.411904
1141.960380,-10645.892614,-3906.046930,10952.249236
1141.960679,-8118.450483,-4059.225241,12560.621502
1141.960978,-4442.171019,-4212.403552,11794.729947
1141.961285,-995.659021,-4518.760174,12713.799813
1141.961582,459.534933,-3293.333686,12101.086569
1141.961880,3752.868619,-842.480710,10875.660081
1141.962177,3446.511997,1225.426488,9573.644437
1141.962474,1991.318043,2297.674665,8731.163727
1141.962772,1378.604799,2297.674665,9956.590215
1141.963069,2986.977064,3216.744531,8807.752882
1141.963367,6280.310751,4442.171019,9573.644437
1141.963683,5054.884263,4135.814397,10033.179370
1141.963982,2680.620442,3063.566220,11258.605858
1141.964280,1072.248177,2757.209598,10569.303459
1141.964578,-2374.263820,2604.031287,9573.644437
1141.964877,-4978.295107,-536.124088,9573.644437
1141.965175,-6203.721595,-3752.868619,11258.605858
1141.965474,-5437.830040,-2986.977064,12560.621502
1141.965772,-1455.193954,-3906.046930,11182.016703
1141.966086,459.534933,-2680.620442,11335.195014
1141.966386,1225.426488,-1914.728887,11564.962480
1141.966685,1684.961421,-1761.550576,9650.233593
1141.966984,-842.480710,-536.124088,9650.233593
1141.967283,-1148.837332,-76.589155,9267.287815
1141.967582,-689.302399,-995.659021,9114.109504
1141.967881,306.356622,-0.000000,10109.768526
1141.968180,3293.333686,919.069866,10262.946837
1141.968468,2374.263820,1072.248177,10262.946837
1141.968768,1072.248177,1225.426488,11335.195014
1141.969068,-536.124088,1531.783110,10416.125148
1141.969368,-1302.015643,153.178311,8960.931193
1141.969668,-1148.837332,-1455.193954,9573.644437
1141.969968,-689.302399,-5820.775818,10262.946837
1141.970268,-382.945777,-7046.202306,11335.195014
1141.970568,1378.604799,-7658.915550,10875.660081
1141.970867,-1455.193954,-7812.093861,12560.621502
1141.971166,-2450.852976,-7658.915550,13096.745590
1141.971466,-3982.636086,-3906.046930,11028.838392
1141.971765,-1761.550576,-76.589155,8501.396260
1141.972064,-995.659021,765.891555,9114.109504
1141.972363,-0.000000,1225.426488,10262.946837
1141.972662,4059.225241,3676.279464,9650.233593
1141.972962,5667.597507,4595.349330,10033.179370
1141.973269,2374.263820,3063.566220,11488.373325
1141.973566,919.069866,2757.209598,10569.303459
1141.973863,-1761.550576,3676.279464,9956.590215
1141.974159,-4748.527641,1225.426488,9267.287815
1141.974456,-5897.364973,-1608.372265,10722.481770
1141.974753,-5284.651729,-4365.581863,11794.729947
1141.975050,-76.589155,-4212.403552,11794.729947
1141.975347,3446.511997,-2833.798753,10569.303459
1141.975661,4748.527641,-2374.263820,10033.179370
1141.975965,2986.977064,-2221.085509,11105.427547
1141.976268,-382.945777,-229.767466,11105.427547
1141.976572,-689.302399,3369.922842,9650.233593
1141.976876,-382.945777,4442.171019,9267.287815
1141.977179,1531.783110,4442.171019,9803.411904
1141.977483,4059.225241,6203.721595,10416.125148
1141.977787,5514.419196,8041.861327,9956.590215
1141.978105,2144.496354,6663.256528,9956.590215
1141.978399,-2910.387909,2757.209598,11182.016703
1141.978693,-6356.899906,-229.767466,12713.799813
1141.978986,-6816.434839,-2067.907198,11182.016703
1141.979280,-4595.349330,-5208.062574,9420.466126
1141.979573,-2757.209598,-7658.915550,11105.427547
1141.979867,1072.248177,-8884.342038,12407.443191
1141.980160,4059.225241,-6433.489062,11335.195014
1141.980477,3446.511997,-4212.403552,11028.838392
1141.980775,-76.589155,-3446.511997,11488.373325
1141.981073,-995.659021,-995.659021,10109.768526
1141.981371,-1914.728887,2297.674665,8960.931193
1141.981669,-229.767466,2450.852976,6586.667373
1141.981967,306.356622,-0.000000,9267.287815
1141.982264,1378.604799,459.534933,10875.660081
1141.982562,4518.760174,1072.248177,11335.195014
1141.982862,2374.263820,153.178311,11335.195014
1141.983159,-0.000000,-1302.015643,10262.946837
1141.983457,-1302.015643,-2374.263820,9956.590215
1141.983754,-4748.527641,-4518.760174,9497.055282
1141.984051,-2910.387909,-6127.132440,8960.931193
1141.984349,-1761.550576,-8424.807105,9956.590215
1141.984646,-842.480710,-8731.163727,12101.086569
1141.984944,-76.589155,-6739.845684,12560.621502
1141.985274,-536.124088,-3293.333686,11488.373325
1141.985571,-1608.372265,153.178311,10952.249236
1141.985868,-1455.193954,2910.387909,10875.660081
1141.986165,-536.124088,5897.364973,8807.752882
1141.986462,1531.783110,7275.969772,8041.861327
1141.986759,3752.868619,6356.899906,8960.931193
1141.987056,4901.705952,5284.651729,10722.481770
1141.987353,4518.760174,3369.922842,12101.086569
1141.987661,2527.442131,2910.387909,10799.070925
1141.987960,-76.589155,1072.248177,11028.838392
1141.988260,-2221.085509,-995.659021,10262.946837
1141.988560,-3523.101153,-2680.620442,10416.125148
1141.988860,-3676.279464,-4212.403552,10569.303459
1141.989160,-1455.193954,-4365.581863,10262.946837
1141.989459,919.069866,-3599.690308,11258.605858
1141.989759,-536.124088,-3446.511997,13709.458834
1141.990042,-1761.550576,-1914.728887,12101.086569
1141.990345,-1914.728887,1684.961421,10262.946837
1141.990648,-2374.263820,3216.744531,8577.985416
1141.990951,-1148.837332,2297.674665,9956.590215
1141.991254,1838.139732,3676.279464,9420.466126
1141.991557,4212.403552,3829.457775,9343.876971
1141.991860,5820.775818,3676.279464,10416.125148
1141.992163,3140.155375,1991.318043,10722.481770
1141.992444,-536.124088,-0.000000,11641.551636
1141.992746,-3523.101153,-1302.015643,9803.411904
1141.993048,-6356.899906,-3906.046930,9573.644437
1141.993350,-7122.791461,-7352.558928,10875.660081
1141.993652,-5437.830040,-9650.233593,11335.195014
1141.993954,-76.589155,-8118.450483,11182.016703
1141.994256,6127.132440,-5054.884263,9956.590215
1141.994558,5208.062574,-3140.155375,9956.590215
1141.994848,2527.442131,-1148.837332,9956.590215
1141.995147,765.891555,1072.248177,9956.590215
1141.995446,153.178311,3063.566220,9420.466126
1141.995745,-76.589155,2450.852976,9267.287815
1141.996044,-536.124088,765.891555,9956.590215
1141.996343,1684.961421,765.891555,10722.481770
1141.996643,1531.783110,459.534933,11641.551636
1141.996942,-1302.015643,-0.000000,12254.264880
1141.997256,-3523.101153,459.534933,11335.195014
1141.997554,-5591.008351,-76.589155,9803.411904
1141.997853,-5437.830040,-689.302399,9803.411904
1141.998152,-4978.295107,-1761.550576,10262.946837
1141.998450,-1455.193954,-3599.690308,10722.481770
1141.998749,2527.442131,-4518.760174,10875.660081
1141.999048,2986.977064,-3599.690308,11641.551636
1141.999347,2680.620442,-2527.442131,12101.086569
1141.999654,459.534933,-1148.837332,10569.303459
1141.999953,-76.589155,919.069866,10799.070925
1142.000253,306.356622,2144.496354,9956.590215
1142.000553,2527.442131,4442.171019,9114.109504
1142.000853,5820.775818,4748.527641,9573.644437
1142.001153,7046.202306,4978.295107,9803.411904
1142.001452,5361.240885,3676.279464,11028.838392
1142.001752,919.069866,1684.961421,10109.768526
1142.002049,-2604.031287,306.356622,10339.535992
1142.002348,-7122.791461,-2067.907198,11028.838392
1142.002648,-8884.342038,-3752.868619,11488.373325
1142.002948,-6816.434839,-5514.419196,11028.838392
1142.003247,-2067.907198,-3140.155375,9956.590215
1142.003547,1072.248177,-3599.690308,10492.714303
1142.003846,-76.589155,-3752.868619,11947.908258
1142.004146,-3063.566220,-5054.884263,13096.745590
1142.004441,-3063.566220,-4365.581863,11335.195014
1142.004741,-2450.852976,-2986.977064,9956.590215
1142.005042,765.891555,-995.659021,8654.574571
1142.005343,5361.240885,-689.302399,7199.380617
1142.005644,8654.574571,3063.566220,8807.752882
1142.005945,9650.233593,4442.171019,9267.287815
1142.006246,4059.225241,3829.457775,11182.016703
1142.006547,-689.302399,3216.744531,10722.481770
1142.006835,-4595.349330,1991.318043,10109.768526
1142.007136,-7965.272172,-536.124088,10109.768526
1142.007436,-8884.342038,-4671.938485,10569.303459
1142.007737,-3063.566220,-5973.954129,10569.303459
1142.008038,919.069866,-6739.845684,10262.946837
1142.008339,3293.333686,-7352.558928,12254.264880
1142.008640,1378.604799,-6739.845684,13709.458834
1142.008940,-689.302399,-4365.581863,11335.195014
1142.009226,-1148.837332,-536.124088,10033.179370
1142.009525,-4748.527641,919.069866,9803.411904
1142.009825,-1455.193954,3829.457775,9956.590215
1142.010124,1991.318043,5437.830040,9420.466126
1142.010424,7046.202306,6816.434839,9420.466126
1142.010723,7429.148083,6510.078217,10875.660081
1142.011023,4212.403552,6663.256528,11182.016703
1142.011322,1838.139732,6203.721595,10262.946837
1142.011663,-1302.015643,4748.527641,9803.411904
1142.011957,-3676.279464,1991.318043,9114.109504
1142.012251,-6816.434839,-2067.907198,10799.070925
1142.012545,-3369.922842,-5054.884263,11182.016703
1142.012839,153.178311,-7352.558928,11335.195014
1142.013133,1225.426488,-9343.876971,13403.102212
1142.013427,459.534933,-8424.807105,12254.264880
1142.013721,-76.589155,-4671.938485,11182.016703
1142.014038,-842.480710,-1148.837332,10109.768526
1142.014335,-3829.457775,1378.604799,9267.287815
1142.014633,-3063.566220,3216.744531,9420.466126
1142.014931,765.891555,5591.008351,8731.163727
1142.015229,4365.581863,5897.364973,9803.411904
1142.015526,4518.760174,5897.364973,10569.303459
1142.015824,2833.798753,4135.814397,10416.125148
1142.016122,1838.139732,1531.783110,9267.287815
1142.016436,-1455.193954,-382.945777,9956.590215
1142.016735,-4442.171019,-4825.116796,10109.768526
1142.017034,-5744.186662,-9726.822748,10262.946837
1142.017332,-4748.527641,-12484.032346,11794.729947
1142.017631,-689.302399,-13403.102212,12407.443191
1142.017930,153.178311,-11871.319102,12713.799813
1142.018228,919.069866,-8884.342038,12407.443191
1142.018527,1225.426488,-4212.403552,9956.590215
1142.018839,1531.783110,459.534933,9114.109504
1142.019138,1531.783110,2910.387909,8195.039638
1142.019437,2833.798753,4825.116796,8348.217949
1142.019736,3599.690308,6050.543284,8501.396260
1142.020035,4901.705952,8041.861327,9803.411904
1142.020334,2833.798753,6510.078217,11411.784169
1142.020634,-995.659021,3523.101153,12560.621502
1142.020933,-4595.349330,1531.783110,12101.086569
1142.021232,-5131.473418,306.356622,9956.590215
1142.021531,-5284.651729,-2680.620442,9573.644437
1142.021831,-3982.636086,-5820.775818,9803.411904
1142.022130,-3369.922842,-8271.628794,10875.660081
1142.022429,-536.124088,-7812.093861,13096.745590
1142.022728,-842.480710,-7046.202306,13479.691368
1142.023027,459.534933,-4365.581863,12560.621502
1142.023327,2527.442131,1531.783110,9650.233593
1142.023599,5973.954129,7429.148083,6969.613150
1142.023905,7735.504705,9803.411904,6893.023995
1142.024212,7888.683016,9803.411904,8195.039638
1142.024518,5973.954129,9803.411904,10262.946837
1142.024824,3140.155375,7735.504705,10569.303459
1142.025131,-1914.728887,5744.186662,12101.086569
1142.025437,-6050.543284,1991.318043,12254.264880
1142.025744,-10186.357681,-1761.550576,12024.497413
1142.026060,-11411.784169,-4365.581863,12254.264880
1142.026357,-9343.876971,-6586.667373,11258.605858
1142.026654,-4442.171019,-9190.698660,10109.768526
1142.026951,-0.000000,-8731.163727,11028.838392
1142.027248,2833.798753,-7505.737239,11335.195014
1142.027545,3140.155375,-6433.489062,11488.373325
1142.027842,4671.938485,-3752.868619,9803.411904
1142.028139,7122.791461,-76.589155,7582.326394
1142.028457,6280.310751,1684.961421,6969.613150
1142.028752,4518.760174,1378.604799,7735.504705
1142.029047,3599.690308,1225.426488,9956.590215
1142.029342,4901.705952,3063.566220,9956.590215
1142.029637,-0.000000,1838.139732,12254.264880
1142.029932,-5437.830040,1072.248177,12790.388968
1142.030227,-8424.807105,-229.767466,12101.086569
1142.030522,-9343.876971,-1148.837332,11028.838392
1142.030835,-10339.535992,-5361.240885,10875.660081
1142.031131,-8424.807105,-9726.822748,12177.675724
1142.031427,-2604.031287,-10645.892614,11335.195014
1142.031723,5361.240885,-8271.628794,9803.411904
1142.032019,6893.023995,-6586.667373,10569.303459
1142.032314,6127.132440,-4518.760174,10569.303459
1142.032610,5973.954129,-536.124088,8348.217949
1142.032906,4365.581863,3216.744531,8041.861327
1142.033206,1991.318043,4135.814397,8654.574571
1142.033507,1072.248177,4442.171019,9190.698660
1142.033808,2527.442131,5131.473418,9956.590215
1142.034109,3752.868619,6050.543284,11947.908258
1142.034410,919.069866,4135.814397,12254.264880
1142.034710,-2221.085509,4135.814397,12713.799813
1142.035011,-4825.116796,4748.527641,11182.016703
1142.035312,-6969.613150,2144.496354,9956.590215
1142.035653,-9037.520349,-0.000000,11182.016703
1142.035949,-6356.899906,-2067.907198,10875.660081
1142.036245,-3216.744531,-3599.690308,11105.427547
1142.036541,2144.496354,-3906.046930,10569.303459
1142.036837,4518.760174,-3906.046930,11182.016703
1142.037133,3140.155375,-3752.868619,11258.605858
1142.037429,3599.690308,-1302.015643,9497.055282
1142.037725,1838.139732,-382.945777,9037.520349
1142.038039,2833.798753,1684.961421,9420.466126
1142.038339,5054.884263,3523.101153,8424.807105
1142.038638,4901.705952,4595.349330,8731.163727
1142.038938,5820.775818,4748.527641,9956.590215
1142.039237,1684.961421,3216.744531,11488.373325
1142.039537,-3216.744531,1684.961421,12101.086569
1142.039836,-9726.822748,-2067.907198,12254.264880
1142.040136,-12254.264880,-3446.511997,11488.373325
1142.040454,-12254.264880,-5667.597507,10569.303459
1142.040751,-9343.876971,-7965.272172,10569.303459
1142.041048,-5591.008351,-9726.822748,12713.799813
1142.041345,306.356622,-8577.985416,13403.102212
1142.041642,7582.326394,-6127.132440,9650.233593
1142.041938,9497.055282,-3446.511997,8654.574571
1142.042235,9267.287815,-1608.372265,7429.148083
1142.042532,7888.683016,-689.302399,7735.504705
1142.042804,5973.954129,-842.480710,7888.683016
1142.043105,4671.938485,-536.124088,8041.861327
1142.043406,2297.674665,-229.767466,10722.481770
1142.043707,-689.302399,1225.426488,12866.978124
1142.044008,-3982.636086,2297.674665,14322.172078
1142.044309,-6356.899906,3063.566220,12254.264880
1142.044610,-7965.272172,4748.527641,10875.660081
1142.044911,-10033.179370,2604.031287,11182.016703
1142.045211,-9880.001059,-382.945777,11641.551636
1142.045511,-5591.008351,-2527.442131,11718.140791
1142.045811,612.713244,-2986.977064,10875.660081
1142.046111,4365.581863,-3752.868619,11028.838392
1142.046411,6127.132440,-3599.690308,11335.195014
1142.046711,7735.504705,-1761.550576,10109.768526
1142.047011,7275.969772,1072.248177,8960.931193
1142.047311,6893.023995,2297.674665,7275.969772
1142.047641,5208.062574,2910.387909,7735.504705
1142.047938,5973.954129,4442.171019,9420.466126
1142.048235,2374.263820,4825.116796,10952.249236
1142.048532,-2450.852976,4748.527641,12101.086569
1142.048829,-5591.008351,4442.171019,12560.621502
1142.049126,-7122.791461,4288.992708,11335.195014
1142.049423,-9497.055282,1531.783110,11105.427547
1142.049720,-10033.179370,-536.124088,11028.838392
1142.050028,-8271.628794,-3752.868619,11182.016703
1142.050328,-3369.922842,-5208.062574,10799.070925
1142.050628,612.713244,-5973.954129,11947.908258
1142.050927,3752.868619,-6280.310751,10722.481770
1142.051227,5054.884263,-5820.775818,9497.055282
1142.051527,5054.884263,-4518.760174,8577.985416
1142.051827,3752.868619,-4059.225241,7888.683016
1142.052127,4059.225241,-3140.155375,7888.683016
1142.052410,5514.419196,-1455.193954,8424.807105
1142.052713,5973.954129,-229.767466,8807.752882
1142.053015,4671.938485,1531.783110,10799.070925
1142.053318,1225.426488,2910.387909,10722.481770
1142.053621,-2604.031287,3523.101153,12101.086569
1142.053924,-8271.628794,2757.209598,12101.086569
1142.054227,-11871.319102,-382.945777,11718.140791
1142.054530,-12407.443191,-2986.977064,12560.621502
1142.054812,-8424.807105,-6433.489062,11182.016703
1142.055114,-3523.101153,-7658.915550,10645.892614
1142.055417,2527.442131,-8271.628794,11564.962480
1142.055720,5667.597507,-6739.845684,10569.303459
1142.056022,7046.202306,-4671.938485,9420.466126
1142.056325,6739.845684,-2221.085509,8577.985416
1142.056628,6127.132440,1225.426488,8041.861327
1142.056930,5667.597507,3523.101153,7352.558928
1142.057220,4518.760174,4748.527641,8348.217949
1142.057516,2374.263820,5897.364973,11105.427547
1142.057812,-76.589155,5897.364973,13249.923901
1142.058108,-2604.031287,6356.899906,12943.567279
1142.058403,-4595.349330,6203.721595,12560.621502
1142.058699,-7199.380617,4595.349330,11488.373325
1142.058995,-9190.698660,1684.961421,11947.908258
1142.059291,-7352.558928,-1761.550576,11105.427547
1142.059651,-4135.814397,-4212.403552,11028.838392
1142.059945,1684.961421,-4901.705952,10799.070925
1142.060239,4901.705952,-6739.845684,10416.125148
1142.060533,5361.240885,-5514.419196,10569.303459
1142.060826,7735.504705,-3752.868619,8654.574571
1142.061120,5514.419196,-536.124088,7812.093861
1142.061414,2680.620442,612.713244,9573.644437
1142.061708,1225.426488,1225.426488,8807.752882
1142.062015,-0.000000,3676.279464,10186.357681
1142.062315,919.069866,4825.116796,10262.946837
1142.062614,-2221.085509,4135.814397,12407.443191
1142.062914,-3676.279464,3369.922842,13556.280523
1142.063214,-4135.814397,1684.961421,10109.768526
1142.063514,-3982.636086,306.356622,10569.303459
1142.063813,-6050.543284,-3599.690308,10569.303459
1142.064113,-4288.992708,-6433.489062,10416.125148
1142.064410,-229.767466,-9190.698660,10722.481770
1142.064708,2527.442131,-9497.055282,9956.590215
1142.065007,2527.442131,-9190.698660,12101.086569
1142.065306,1684.961421,-6280.310751,10875.660081
1142.065605,3906.046930,-3140.155375,7965.272172
1142.065904,1838.139732,-2067.907198,8807.752882
1142.066203,1378.604799,-536.124088,9420.466126
1142.066501,2833.798753,-0.000000,9267.287815
1142.066796,3599.690308,1838.139732,9573.644437
1142.067096,2833.798753,2297.674665,11641.551636
1142.067396,-76.589155,2297.674665,12407.443191
1142.067695,-3063.566220,3063.566220,11794.729947
1142.067995,-3982.636086,3523.101153,10722.481770
1142.068295,-6356.899906,1072.248177,9803.411904
1142.068594,-6203.721595,-995.659021,11641.551636
1142.068894,-3369.922842,-2680.620442,11641.551636
1142.069182,2144.496354,-1914.728887,9573.644437
1142.069482,4518.760174,-2374.263820,10492.714303
1142.069782,2527.442131,-1455.193954,11411.784169
1142.070082,306.356622,-995.659021,11488.373325
1142.070382,-1914.728887,1378.604799,11028.838392
1142.070682,-536.124088,1991.318043,8960.931193
1142.070982,-0.000000,2910.387909,9497.055282
1142.071282,4365.581863,3063.566220,9267.287815
1142.071582,7582.326394,3982.636086,9803.411904
1142.071882,6280.310751,2910.387909,11335.195014
1142.072182,3293.333686,2297.674665,11794.729947
1142.072482,-2221.085509,1684.961421,12407.443191
1142.072782,-6663.256528,919.069866,11182.016703
1142.073082,-7352.558928,306.356622,10416.125148
1142.073382,-7199.380617,-76.589155,8884.342038
1142.073682,-3523.101153,-1761.550576,9420.466126
1142.073989,-1148.837332,-4825.116796,12407.443191
1142.074292,153.178311,-5361.240885,12866.978124
1142.074594,1838.139732,-3446.511997,10569.303459
1142.074896,1378.604799,-3752.868619,9650.233593
1142.075198,459.534933,-4365.581863,9803.411904
1142.075501,459.534933,-2986.977064,10875.660081
1142.075803,2144.496354,-2067.907198,8654.574571
1142.076105,4671.938485,-1148.837332,7429.148083
1142.076421,6739.845684,-2527.442131,9190.698660
1142.076715,3140.155375,-2374.263820,12254.264880
1142.077009,612.713244,-2221.085509,12560.621502
1142.077302,-689.302399,-382.945777,9573.644437
1142.077596,-3369.922842,-229.767466,9573.644437
1142.077890,-6203.721595,-3293.333686,9956.590215
1142.078183,-6816.434839,-3752.868619,11028.838392
1142.078477,-5591.008351,-3906.046930,12101.086569
1142.078796,-689.302399,-3293.333686,10569.303459
1142.079094,-382.945777,-3446.511997,12943.567279
1142.079392,2144.496354,-689.302399,11718.140791
1142.079690,3446.511997,1378.604799,9267.287815
1142.079988,2297.674665,3063.566220,8654.574571
1142.080287,765.891555,1838.139732,9114.109504
1142.080585,2297.674665,2450.852976,9573.644437
1142.080883,4059.225241,1991.318043,8731.163727
1142.081196,4901.705952,2604.031287,10262.946837
1142.081495,3140.155375,2450.852976,12101.086569
1142.081793,765.891555,2604.031287,11182.016703
1142.082092,-1455.193954,4135.814397,9956.590215
1142.082390,-4135.814397,3216.744531,10875.660081
1142.082689,-5591.008351,1531.783110,10875.660081
1142.082987,-4442.171019,306.356622,10722.481770
1142.083286,-536.124088,-1148.837332,10109.768526
1142.083585,-1761.550576,-3446.511997,12407.443191
1142.083884,-1914.728887,-4212.403552,13556.280523
1142.084184,-1455.193954,-2374.263820,11488.373325
1142.084483,-76.589155,-689.302399,9267.287815
1142.084782,153.178311,-842.480710,8195.039638
1142.085081,919.069866,-842.480710,9803.411904
1142.085380,4365.581863,1531.783110,9650.233593
1142.085680,7582.326394,3216.744531,7582.326394
1142.085987,5973.954129,3216.744531,9267.287815
1142.086289,1378.604799,1378.604799,12407.443191
1142.086592,-2067.907198,459.534933,11641.551636
1142.086894,-4825.116796,153.178311,9650.233593
1142.087197,-7505.737239,-1148.837332,9956.590215
1142.087499,-10186.357681,-6893.023995,11794.729947
1142.087802,-6510.078217,-8424.807105,12790.388968
1142.088105,-1148.837332,-6893.023995,10416.125148
1142.088425,2374.263820,-7352.558928,11182.016703
1142.088722,1531.783110,-7199.380617,12024.497413
1142.089019,2833.798753,-4365.581863,10262.946837
1142.089316,2374.263820,-1914.728887,9267.287815
1142.089613,1991.318043,-842.480710,8731.163727
1142.089910,3906.046930,459.534933,8041.861327
1142.090207,6586.667373,1378.604799,7429.148083
1142.090504,5973.954129,919.069866,10262.946837
1142.090743,2374.263820,612.713244,12560.621502
1142.091048,-229.767466,2604.031287,12254.264880
1142.091353,-3829.457775,3216.744531,11182.016703
1142.091658,-6356.899906,1378.604799,10875.660081
1142.091963,-10339.535992,-0.000000,12713.799813
1142.092268,-9880.001059,-229.767466,12407.443191
1142.092573,-4978.295107,-2067.907198,10875.660081
1142.092878,459.534933,-2833.798753,11411.784169
1142.093195,4365.581863,-4212.403552,11182.016703
1142.093494,5514.419196,-2680.620442,11641.551636
1142.093792,7046.202306,153.178311,9650.233593
1142.094091,8501.396260,3369.922842,6356.899906
1142.094390,5820.775818,3063.566220,7429.148083
1142.094688,2374.263820,2297.674665,9114.109504
1142.094987,612.713244,3216.744531,11488.373325
1142.095286,1072.248177,4595.349330,10722.481770
1142.095586,-1455.193954,2910.387909,11182.016703
1142.095883,-4288.992708,1531.783110,12866.978124
1142.096180,-6356.899906,2450.852976,11718.140791
1142.096478,-5744.186662,1684.961421,9573.644437
1142.096775,-5744.186662,612.713244,9573.644437
1142.097073,-4135.814397,-3140.155375,10875.660081
1142.097370,-2067.907198,-5514.419196,12101.086569
1142.097667,2374.263820,-4825.116796,10722.481770
1142.097975,2986.977064,-3906.046930,10416.125148
1142.098276,1991.318043,-4825.116796,10875.660081
1142.098578,306.356622,-3599.690308,9803.411904
1142.098880,2374.263820,-842.480710,9267.287815
1142.099181,1838.139732,-229.767466,8348.217949
1142.099483,2986.977064,-1608.372265,8195.039638
1142.099785,3906.046930,-1148.837332,9420.466126
1142.100087,3446.511997,-1455.193954,10952.249236
1142.100332,-382.945777,-2986.977064,12713.799813
1142.100636,-3369.922842,-1761.550576,11794.729947
1142.100941,-4442.171019,-1302.015643,9956.590215
1142.101246,-5437.830040,-2527.442131,10262.946837
1142.101551,-5897.364973,-3140.155375,11335.195014
1142.101855,-1914.728887,-2986.977064,11028.838392
1142.102160,2144.496354,-2067.907198,9803.411904
1142.102465,4518.760174,-2374.263820,11028.838392
1142.102782,1225.426488,-2221.085509,12560.621502
1142.103082,-1302.015643,-382.945777,11335.195014
1142.103383,-3523.101153,1378.604799,10722.481770
1142.103684,-2604.031287,2604.031287,9573.644437
1142.103984,-1761.550576,2757.209598,10109.768526
1142.104285,2144.496354,2910.387909,9114.109504
1142.104586,5208.062574,4595.349330,9880.001059
1142.104886,5667.597507,2757.209598,11258.605858
1142.105201,3599.690308,1991.318043,10492.714303
1142.105498,1684.961421,1838.139732,10569.303459
1142.105796,-2374.263820,-382.945777,10722.481770
1142.106094,-4288.992708,-1148.837332,10722.481770
1142.106391,-3063.566220,-229.767466,9267.287815
1142.106689,-2221.085509,-1455.193954,9650.233593
1142.106986,-2450.852976,-2833.798753,12484.032346
1142.107284,-2604.031287,-2374.263820,13556.280523
1142.107560,-995.659021,459.534933,11488.373325
1142.107861,-689.302399,1378.604799,10262.946837
1142.108161,612.713244,2757.209598,9573.644437
1142.108461,-0.000000,2757.209598,9650.233593
1142.108761,3293.333686,3063.566220,9803.411904
1142.109061,6280.310751,2144.496354,8041.861327
1142.109361,6586.667373,1225.426488,9650.233593
1142.109661,2680.620442,-2680.620442,11258.605858
1142.109975,-536.124088,-3599.690308,11488.373325
1142.110274,-2374.263820,-3599.690308,10416.125148
1142.110572,-2910.387909,-4518.760174,8195.039638
1142.110871,-6510.078217,-6893.023995,10033.179370
1142.111170,-5591.008351,-8424.807105,10722.481770
1142.111468,-2067.907198,-6586.667373,11794.729947
1142.111767,153.178311,-3752.868619,11411.784169
1142.112066,-76.589155,-3906.046930,11794.729947
1142.112372,-229.767466,-382.945777,12560.621502
1142.112672,-76.589155,1378.604799,10109.768526
1142.112972,-76.589155,2144.496354,8960.931193
1142.113272,-229.767466,1531.783110,8501.396260
1142.113572,1378.604799,-0.000000,9267.287815
1142.113871,4365.581863,-1302.015643,9956.590215
1142.114171,4748.527641,-536.124088,10109.768526
1142.114471,2986.977064,-689.302399,11335.195014
1142.114767,-536.124088,-229.767466,10875.660081
1142.115068,-2450.852976,1225.426488,9650.233593
1142.115368,-3523.101153,1684.961421,10416.125148
1142.115668,-5437.830040,-382.945777,10109.768526
1142.115969,-4748.527641,-3140.155375,11335.195014
1142.116269,-1608.372265,-2986.977064,11028.838392
1142.116569,459.534933,-2374.263820,11641.551636
1142.116870,153.178311,-2986.977064,13173.334746
1142.117130,-1148.837332,-76.589155,12713.799813
1142.117435,2144.496354,4595.349330,9420.466126
1142.117741,1991.318043,4748.527641,8041.861327
1142.118047,919.069866,3982.636086,9114.109504
1142.118353,4212.403552,2757.209598,9803.411904
1142.118659,5973.954129,3982.636086,9343.876971
1142.118965,6586.667373,2144.496354,9650.233593
1142.119271,1531.783110,-0.000000,11794.729947
1142.119559,-1148.837332,153.178311,11488.373325
1142.119860,-1302.015643,1225.426488,10033.179370
1142.120160,-5897.364973,-842.480710,10109.768526
1142.120461,-9573.644437,-3446.511997,11488.373325
1142.120762,-6969.613150,-4365.581863,11028.838392
1142.121063,-2757.209598,-1761.550576,11258.605858
1142.121363,-229.767466,-4059.225241,12637.210657
1142.121664,-3063.566220,-5208.062574,12713.799813
1142.121973,-382.945777,-3599.690308,10645.892614
1142.122269,1991.318043,-2833.798753,9803.411904
1142.122565,2374.263820,-2833.798753,9420.466126
1142.122861,5667.597507,-2374.263820,7888.683016
1142.123158,8807.752882,-0.000000,6969.613150
1142.123454,8960.931193,-229.767466,8501.396260
1142.123750,3906.046930,-995.659021,11182.016703
1142.124046,-689.302399,612.713244,11182.016703
1142.124353,-3982.636086,612.713244,9956.590215
1142.124652,-6969.613150,-1914.728887,9956.590215
1142.124951,-9343.876971,-2680.620442,11182.016703
1142.125250,-6969.613150,-4059.225241,10952.249236
1142.125548,-3676.279464,-4365.581863,11182.016703
1142.125847,-76.589155,-4901.705952,12407.443191
1142.126146,765.891555,-3446.511997,13249.923901
1142.126445,612.713244,-2221.085509,12484.032346
1142.126761,2833.798753,306.356622,8654.574571
1142.127059,3293.333686,1991.318043,7582.326394
1142.127357,4059.225241,2297.674665,7888.683016
1142.127655,7735.504705,3369.922842,6510.078217
1142.127952,6280.310751,3369.922842,10186.357681
1142.128250,3599.690308,2910.387909,11794.729947
1142.128548,-536.124088,2604.031287,12101.086569
1142.128846,-2450.852976,4135.814397,11947.908258
1142.129160,-5284.651729,6050.543284,9956.590215
1142.129459,-11105.427547,1225.426488,11182.016703
