#time,accel_x,accel_y,accel_z
1097.691687,-536.124088,-842.480710,10722.481770
1097.691990,-842.480710,-842.480710,10875.660081
1097.692292,1072.248177,-229.767466,10492.714303
1097.692595,4518.760174,-382.945777,10262.946837
1097.692912,8041.861327,-76.589155,9803.411904
1097.693206,12943.567279,-76.589155,9420.466126
1097.693501,17538.916609,-0.000000,8960.931193
1097.693795,20066.358741,306.356622,8960.931193
1097.694090,22746.979183,153.178311,8501.396260
1097.694384,21138.606918,919.069866,9420.466126
1097.694679,20525.893674,1991.318043,8960.931193
1097.694974,18611.164786,1378.604799,9114.109504
1097.695297,15164.652789,1531.783110,10109.768526
1097.695593,14398.761234,306.356622,9803.411904
1097.695889,14168.993767,-0.000000,10952.249236
1097.696184,19300.467186,-76.589155,10569.303459
1097.696480,26040.312870,1072.248177,9267.287815
1097.696776,26576.436958,-382.945777,8577.985416
1097.697072,24202.173138,-2527.442131,10109.768526
1097.697368,16926.203365,-4518.760174,15394.420255
1097.697654,14398.761234,-3140.155375,14398.761234
1097.697956,12330.854035,-229.767466,12713.799813
1097.698259,7429.148083,-0.000000,12790.388968
1097.698562,306.356622,-1455.193954,13939.226301
1097.698865,-4288.992708,-1455.193954,18457.986475
1097.699167,-4135.814397,459.534933,17615.505765
1097.699470,-76.589155,4748.527641,13249.923901
1097.699773,2833.798753,8041.861327,10569.303459
1097.700080,3140.155375,6510.078217,9267.287815
1097.700377,5208.062574,1991.318043,8884.342038
1097.700674,8348.217949,-1302.015643,7888.683016
1097.700972,15164.652789,-7658.915550,5820.775818
1097.701269,22593.800872,-9726.822748,5208.062574
1097.701566,28644.344157,-9497.055282,5208.062574
1097.701863,30329.305578,-5208.062574,4595.349330
1097.702161,23666.049049,-1914.728887,6969.613150
1097.702457,9267.287815,-842.480710,11641.551636
1097.702757,-6663.256528,-995.659021,15394.420255
1097.703058,-23283.103272,1531.783110,16390.079277
1097.703358,-32780.158554,3676.279464,13632.869679
1097.703658,-37835.042817,1225.426488,14015.815456
1097.703959,-33316.282642,-1455.193954,14475.350389
1097.704259,-16466.668432,-3140.155375,10416.125148
1097.704559,3599.690308,-2067.907198,8195.039638
1097.704854,22593.800872,-1455.193954,6356.899906
1097.705155,34158.763353,-382.945777,5361.240885
1097.705456,37988.221128,3676.279464,6127.132440
1097.705757,33546.050109,4442.171019,8960.931193
1097.706058,20985.428607,3982.636086,10875.660081
1097.706359,2833.798753,-0.000000,11871.319102
1097.706660,-17309.149143,-5054.884263,13556.280523
1097.706960,-34694.887441,-12177.675724,16313.490121
1097.707261,-43426.051168,-17615.505765,17155.970832
1097.707560,-36915.972951,-20449.304518,15394.420255
1097.707859,-19070.699719,-15011.474478,11641.551636
1097.708158,2680.620442,-4518.760174,7122.791461
1097.708457,21291.785229,5591.008351,4748.527641
1097.708756,34924.654908,14475.350389,5208.062574
1097.709055,41281.554814,21598.141851,5208.062574
1097.709354,35920.313929,22670.390028,5667.597507
1097.709668,17998.451542,17385.738298,8195.039638
1097.709965,-2757.209598,6050.543284,11794.729947
1097.710261,-23819.227360,-7046.202306,13709.458834
1097.710558,-36915.972951,-18687.753942,16543.257588
1097.710855,-40056.128326,-28031.630913,15930.544344
1097.711152,-30405.894733,-29027.289934,13403.102212
1097.711448,-11947.908258,-19300.467186,10799.070925
1097.711745,10875.660081,-4901.705952,5973.954129
1097.712052,29257.057401,10262.946837,5361.240885
1097.712353,37298.918728,20525.893674,5514.419196
1097.712653,34618.298286,27955.041757,5514.419196
1097.712954,23895.816516,30482.483889,6663.256528
1097.713254,5667.597507,22517.211717,8960.931193
1097.713555,-13632.869679,8041.861327,12943.567279
1097.713855,-26116.902025,-4518.760174,16236.900966
1097.714156,-26346.669492,-12637.210657,15317.831100
1097.714452,-20602.482829,-17615.505765,12790.388968
1097.714750,-11564.962480,-18228.219009,11335.195014
1097.715048,-995.659021,-12024.497413,11028.838392
1097.715346,8348.217949,-6280.310751,12790.388968
1097.715645,12484.032346,-382.945777,13249.923901
1097.715943,15317.831100,7275.969772,10722.481770
1097.716241,14551.939545,10262.946837,7429.148083
1097.716539,8501.396260,7429.148083,7582.326394
1097.716853,1072.248177,2297.674665,10875.660081
1097.717152,-4595.349330,-1761.550576,11488.373325
1097.717451,-7658.915550,-2221.085509,10262.946837
1097.717749,-9497.055282,-2833.798753,10569.303459
1097.718048,-7965.272172,-2680.620442,11564.962480
1097.718347,-4442.171019,765.891555,13249.923901
1097.718646,1838.139732,3063.566220,11718.140791
1097.718944,5208.062574,3369.922842,10416.125148
1097.719244,3599.690308,-842.480710,11488.373325
1097.719545,1991.318043,-5361.240885,10569.303459
1097.719846,-76.589155,-9726.822748,10569.303459
1097.720146,-382.945777,-12024.497413,7658.915550
1097.720447,306.356622,-12790.388968,5667.597507
1097.720748,-1302.015643,-10339.535992,7735.504705
1097.721048,2144.496354,-4059.225241,9190.698660
1097.721349,3293.333686,3982.636086,11947.908258
1097.721648,3906.046930,10722.481770,11947.908258
1097.721948,153.178311,13173.334746,11028.838392
1097.722247,-6203.721595,12713.799813,11182.016703
1097.722546,-13020.156435,6816.434839,12101.086569
1097.722845,-17309.149143,-1302.015643,12790.388968
1097.723144,-13939.226301,-9650.233593,12560.621502
1097.723444,-3523.101153,-13403.102212,9420.466126
1097.723743,8501.396260,-12637.210657,6127.132440
1097.724050,16619.846743,-9343.876971,6280.310751
1097.724349,20832.250296,-4671.938485,8041.861327
1097.724649,20372.715363,2297.674665,10262.946837
1097.724948,13249.923901,9420.466126,10339.535992
1097.725247,153.178311,12254.264880,10339.535992
1097.725546,-13632.869679,9573.644437,12407.443191
1097.725846,-22976.746650,4748.527641,13862.637145
1097.726145,-24278.762293,-1148.837332,14475.350389
1097.726465,-19683.412963,-6127.132440,13862.637145
1097.726762,-7352.558928,-6586.667373,11947.908258
1097.727059,6280.310751,-2527.442131,9803.411904
1097.727356,18457.986475,1225.426488,8195.039638
1097.727654,22746.979183,4442.171019,9573.644437
1097.727951,20372.715363,5437.830040,9573.644437
1097.728248,12484.032346,5591.008351,8654.574571
1097.728545,459.534933,1531.783110,8654.574571
1097.728863,-12866.978124,-5820.775818,10722.481770
1097.729162,-20449.304518,-12484.032346,14168.993767
1097.729460,-18840.932253,-12943.567279,13173.334746
1097.729758,-10492.714303,-8118.450483,10186.357681
1097.730056,-2374.263820,-2067.907198,9267.287815
1097.730354,7046.202306,4288.992708,9803.411904
1097.730653,14398.761234,11028.838392,10262.946837
1097.730951,19760.002119,14934.885322,7965.272172
1097.731264,16926.203365,13632.869679,6969.613150
1097.731560,6739.845684,6510.078217,8654.574571
1097.731856,-3523.101153,-3906.046930,10262.946837
1097.732152,-12713.799813,-12943.567279,12254.264880
1097.732448,-17462.327454,-19300.467186,11947.908258
1097.732744,-19223.878030,-20908.839451,11641.551636
1097.733040,-13786.047990,-16083.722655,11182.016703
1097.733336,-4748.527641,-6739.845684,10186.357681
1097.733635,4365.581863,1838.139732,11182.016703
1097.733936,12024.497413,10416.125148,11028.838392
1097.734237,15317.831100,15241.241944,8807.752882
1097.734538,13096.745590,14628.528700,9114.109504
1097.734839,6127.132440,8654.574571,9803.411904
1097.735139,-2067.907198,-229.767466,10875.660081
1097.735440,-7352.558928,-9343.876971,11641.551636
1097.735741,-8424.807105,-13556.280523,11028.838392
1097.736048,-7352.558928,-12330.854035,10569.303459
1097.736345,-3063.566220,-8884.342038,10569.303459
1097.736642,2374.263820,-1914.728887,11794.729947
1097.736939,7582.326394,4748.527641,12560.621502
1097.737236,8807.752882,9803.411904,12254.264880
1097.737532,5361.240885,11947.908258,10416.125148
1097.737829,-842.480710,8654.574571,10722.481770
1097.738126,-6816.434839,1378.604799,11411.784169
1097.738440,-9343.876971,-5208.062574,11105.427547
1097.738743,-6510.078217,-8118.450483,9803.411904
1097.739046,-2604.031287,-8884.342038,7429.148083
1097.739349,919.069866,-6586.667373,8960.931193
1097.739651,4059.225241,-2986.977064,10645.892614
1097.739954,7122.791461,1991.318043,12101.086569
1097.740257,8195.039638,6816.434839,9956.590215
1097.740560,5667.597507,8654.574571,7888.683016
1097.740833,-2067.907198,4748.527641,8195.039638
1097.741135,-10952.249236,-995.659021,11335.195014
1097.741438,-15241.241944,-7199.380617,12713.799813
1097.741741,-11871.319102,-10033.179370,11335.195014
1097.742043,-4978.295107,-9650.233593,9114.109504
1097.742346,3140.155375,-5667.597507,8501.396260
1097.742648,10416.125148,1378.604799,9114.109504
1097.742951,17998.451542,10109.768526,9267.287815
1097.743262,19453.645497,14245.582923,8501.396260
1097.743558,13249.923901,14781.707011,9114.109504
1097.743855,612.713244,10109.768526,11335.195014
1097.744152,-11105.427547,1991.318043,12943.567279
1097.744448,-18075.040698,-6433.489062,13709.458834
1097.744745,-19683.412963,-12943.567279,13786.047990
1097.745042,-15853.955188,-15624.187722,12943.567279
1097.745339,-6050.543284,-11564.962480,11794.729947
1097.745638,5667.597507,-3293.333686,9573.644437
1097.745938,14858.296167,3676.279464,8960.931193
1097.746238,16619.846743,9267.287815,10109.768526
1097.746538,13709.458834,11182.016703,9267.287815
1097.746839,5514.419196,9114.109504,9956.590215
1097.747139,-4595.349330,3063.566220,10875.660081
1097.747439,-13020.156435,-5514.419196,11564.962480
1097.747739,-16849.614210,-14015.815456,13249.923901
1097.748046,-14322.172078,-16390.079277,12101.086569
1097.748346,-6969.613150,-12943.567279,9880.001059
1097.748646,2297.674665,-6127.132440,8654.574571
1097.748946,10569.303459,1072.248177,8654.574571
1097.749247,16083.722655,7122.791461,9956.590215
1097.749547,17385.738298,11947.908258,9267.287815
1097.749847,12943.567279,12560.621502,8041.861327
1097.750148,3446.511997,7122.791461,8041.861327
1097.750456,-9190.698660,-2986.977064,11488.373325
1097.750752,-16160.311810,-10952.249236,13249.923901
1097.751048,-16313.490121,-13556.280523,12254.264880
1097.751345,-11871.319102,-12637.210657,10569.303459
1097.751641,-6356.899906,-8424.807105,10569.303459
1097.751938,1225.426488,-1148.837332,11028.838392
1097.752234,11335.195014,6969.613150,9803.411904
1097.752531,15164.652789,11335.195014,9267.287815
1097.752848,10875.660081,10262.946837,9803.411904
1097.753148,2986.977064,6050.543284,10569.303459
1097.753449,-4595.349330,-0.000000,11335.195014
1097.753749,-9037.520349,-6739.845684,11794.729947
1097.754050,-11411.784169,-11411.784169,11488.373325
1097.754351,-9343.876971,-12024.497413,10645.892614
1097.754651,-3369.922842,-6586.667373,10262.946837
1097.754952,5054.884263,306.356622,9956.590215
1097.755234,11335.195014,7888.683016,10262.946837
1097.755536,13709.458834,12713.799813,10722.481770
1097.755839,11871.319102,13939.226301,9573.644437
1097.756142,3293.333686,9573.644437,10569.303459
1097.756444,-5437.830040,2604.031287,12024.497413
1097.756747,-12254.264880,-5208.062574,12407.443191
1097.757050,-13939.226301,-11411.784169,11488.373325
1097.757352,-11258.605858,-14475.350389,10339.535992
1097.757642,-4442.171019,-10799.070925,9573.644437
1097.757938,3599.690308,-4212.403552,8577.985416
1097.758234,11028.838392,1838.139732,8501.396260
1097.758530,13403.102212,6663.256528,9956.590215
1097.758825,11028.838392,10109.768526,10262.946837
1097.759121,5667.597507,9803.411904,8807.752882
1097.759417,-2374.263820,4825.116796,9573.644437
1097.759713,-11258.605858,-4365.581863,12407.443191
1097.760022,-13479.691368,-10799.070925,12713.799813
1097.760321,-10492.714303,-11718.140791,11335.195014
1097.760619,-2910.387909,-8884.342038,8807.752882
1097.760918,4901.705952,-4365.581863,7812.093861
1097.761216,10569.303459,2144.496354,8654.574571
1097.761515,15317.831100,7429.148083,9803.411904
1097.761813,13556.280523,10109.768526,9420.466126
1097.762112,6280.310751,8501.396260,9803.411904
1097.762419,-4135.814397,2450.852976,11641.551636
1097.762719,-14245.582923,-6433.489062,13786.047990
1097.763020,-17921.862387,-12943.567279,14781.707011
1097.763320,-15241.241944,-14858.296167,12407.443191
1097.763621,-7352.558928,-11411.784169,9726.822748
1097.763921,306.356622,-5514.419196,9267.287815
1097.764222,8195.039638,306.356622,9114.109504
1097.764522,13709.458834,6969.613150,9956.590215
1097.764819,15777.366033,10262.946837,8807.752882
1097.765119,10416.125148,8501.396260,9803.411904
1097.765418,765.891555,2910.387909,11488.373325
1097.765718,-7199.380617,-2833.798753,12713.799813
1097.766017,-11105.427547,-8424.807105,11947.908258
1097.766317,-11947.908258,-11258.605858,11794.729947
1097.766616,-9497.055282,-11564.962480,11411.784169
1097.766916,-3216.744531,-5820.775818,9573.644437
1097.767211,5667.597507,1991.318043,9037.520349
1097.767510,11335.195014,8348.217949,9650.233593
1097.767810,12790.388968,11641.551636,10109.768526
1097.768110,9956.590215,12560.621502,10262.946837
1097.768409,2833.798753,8960.931193,10262.946837
1097.768709,-5744.186662,1684.961421,12101.086569
1097.769009,-12713.799813,-5973.954129,12637.210657
1097.769308,-14092.404612,-10952.249236,11182.016703
1097.769620,-11105.427547,-12024.497413,9956.590215
1097.769920,-4978.295107,-9650.233593,9497.055282
1097.770220,2680.620442,-3906.046930,9267.287815
1097.770520,10109.768526,2450.852976,9114.109504
1097.770820,13249.923901,7275.969772,10109.768526
1097.771120,12790.388968,10416.125148,8884.342038
1097.771420,7582.326394,10109.768526,8654.574571
1097.771720,-1608.372265,4288.992708,10033.179370
1097.772029,-12407.443191,-4671.938485,13249.923901
1097.772325,-16007.133499,-10033.179370,14322.172078
1097.772621,-11871.319102,-10186.357681,11411.784169
1097.772917,-4135.814397,-7658.915550,9573.644437
1097.773213,2374.263820,-3293.333686,9573.644437
1097.773509,9267.287815,2757.209598,10109.768526
1097.773805,15011.474478,9114.109504,9726.822748
1097.774101,15777.366033,11794.729947,9573.644437
1097.774409,8195.039638,8960.931193,10416.125148
1097.774708,-1761.550576,3829.457775,11641.551636
1097.775006,-9343.876971,-2833.798753,12101.086569
1097.775305,-13020.156435,-9880.001059,12177.675724
1097.775604,-13479.691368,-13709.458834,12407.443191
1097.775903,-9343.876971,-11564.962480,11028.838392
1097.776202,-1914.728887,-7352.558928,9420.466126
1097.776501,6586.667373,-1455.193954,9114.109504
1097.776817,11028.838392,3829.457775,9803.411904
1097.777118,12330.854035,7429.148083,9420.466126
1097.777419,9267.287815,8654.574571,8731.163727
1097.777720,2527.442131,5284.651729,9267.287815
1097.778021,-5897.364973,-1302.015643,11028.838392
1097.778322,-11718.140791,-8577.985416,12713.799813
1097.778623,-12713.799813,-12177.675724,11641.551636
1097.778924,-9037.520349,-12177.675724,10262.946837
1097.779239,-3369.922842,-8118.450483,8807.752882
1097.779535,4671.938485,-842.480710,8577.985416
1097.779831,11335.195014,5591.008351,9267.287815
1097.780128,13556.280523,9650.233593,9956.590215
1097.780424,9650.233593,10569.303459,9956.590215
1097.780720,3293.333686,7888.683016,10416.125148
1097.781016,-4135.814397,1991.318043,11488.373325
1097.781313,-12407.443191,-5208.062574,12790.388968
1097.781601,-14628.528700,-10645.892614,12790.388968
1097.781901,-11718.140791,-11718.140791,11641.551636
1097.782201,-4135.814397,-8271.628794,9880.001059
1097.782501,3293.333686,-2680.620442,9573.644437
1097.782801,9650.233593,3676.279464,9573.644437
1097.783100,12637.210657,7275.969772,10569.303459
1097.783400,12943.567279,9956.590215,9726.822748
1097.783700,6893.023995,8654.574571,9956.590215
1097.784000,-3523.101153,2604.031287,11335.195014
1097.784299,-13939.226301,-7199.380617,13862.637145
1097.784598,-16849.614210,-13096.745590,14781.707011
1097.784898,-12101.086569,-13096.745590,11335.195014
1097.785197,-4442.171019,-9497.055282,8960.931193
1097.785496,4671.938485,-3446.511997,7735.504705
1097.785795,11871.319102,2910.387909,8501.396260
1097.786094,16773.025054,10109.768526,9573.644437
1097.786402,16390.079277,13939.226301,8654.574571
1097.786702,7429.148083,11028.838392,9420.466126
1097.787002,-2604.031287,4978.295107,11488.373325
1097.787302,-12407.443191,-3140.155375,12713.799813
1097.787602,-17615.505765,-10033.179370,12943.567279
1097.787902,-14781.707011,-13096.745590,12790.388968
1097.788202,-7658.915550,-10033.179370,9420.466126
1097.788502,-0.000000,-4671.938485,7888.683016
1097.788822,7888.683016,2450.852976,9114.109504
1097.789122,12177.675724,7582.326394,9803.411904
1097.789423,14168.993767,11182.016703,8960.931193
1097.789723,8807.752882,10875.660081,8807.752882
1097.790024,765.891555,6203.721595,9803.411904
1097.790324,-7505.737239,-1914.728887,11794.729947
1097.790624,-12254.264880,-9650.233593,12637.210657
1097.790925,-12407.443191,-12484.032346,12484.032346
1097.791198,-7965.272172,-11564.962480,10722.481770
1097.791498,-689.302399,-5973.954129,8577.985416
1097.791798,6739.845684,-76.589155,8501.396260
1097.792098,11641.551636,5897.364973,9880.001059
1097.792398,13096.745590,9267.287815,9803.411904
1097.792698,10875.660081,10262.946837,9420.466126
1097.792998,3293.333686,6203.721595,10722.481770
1097.793298,-5437.830040,-536.124088,11182.016703
1097.793616,-13326.513057,-8118.450483,14015.815456
1097.793914,-13786.047990,-12943.567279,12943.567279
1097.794213,-10799.070925,-12790.388968,11028.838392
1097.794511,-5131.473418,-9343.876971,9803.411904
1097.794810,-76.589155,-4365.581863,9803.411904
1097.795109,7429.148083,1838.139732,9956.590215
1097.795407,12790.388968,7275.969772,9803.411904
1097.795706,11488.373325,9573.644437,8960.931193
1097.796006,5667.597507,7429.148083,9956.590215
1097.796303,-3829.457775,2144.496354,12177.675724
1097.796600,-10645.892614,-5667.597507,12101.086569
1097.796898,-12407.443191,-10339.535992,13249.923901
1097.797195,-10339.535992,-12637.210657,11641.551636
1097.797493,-3829.457775,-9726.822748,9037.520349
1097.797790,3906.046930,-3599.690308,8348.217949
1097.798087,10722.481770,2297.674665,8348.217949
1097.798394,14551.939545,7275.969772,9956.590215
1097.798696,12943.567279,9956.590215,9880.001059
1097.798998,5667.597507,8807.752882,10262.946837
1097.799300,-3063.566220,4595.349330,11182.016703
1097.799601,-9880.001059,-1302.015643,12560.621502
1097.799903,-12254.264880,-6893.023995,11411.784169
1097.800205,-11947.908258,-11105.427547,11028.838392
1097.800506,-8424.807105,-10492.714303,10262.946837
1097.800787,-1761.550576,-6280.310751,9650.233593
1097.801092,5820.775818,306.356622,9573.644437
1097.801397,12024.497413,7122.791461,9956.590215
1097.801702,12637.210657,10569.303459,9420.466126
1097.802007,7122.791461,10416.125148,9650.233593
1097.802313,-76.589155,7735.504705,10569.303459
1097.802618,-7965.272172,153.178311,11794.729947
1097.802923,-13479.691368,-6433.489062,13403.102212
1097.803242,-14092.404612,-11564.962480,13096.745590
1097.803534,-7352.558928,-10033.179370,11028.838392
1097.803827,1225.426488,-5514.419196,8654.574571
1097.804120,8041.861327,-382.945777,8577.985416
1097.804412,12943.567279,5131.473418,9650.233593
1097.804705,14858.296167,9420.466126,9803.411904
1097.804998,12177.675724,11641.551636,9114.109504
1097.805291,5514.419196,8348.217949,9726.822748
1097.805608,-4135.814397,1225.426488,11182.016703
1097.805906,-12254.264880,-6739.845684,13173.334746
1097.806203,-14628.528700,-11258.605858,13020.156435
1097.806501,-13939.226301,-13403.102212,12560.621502
1097.806799,-8731.163727,-11258.605858,10875.660081
1097.807097,-382.945777,-4901.705952,9650.233593
1097.807394,8654.574571,2450.852976,8807.752882
1097.807692,14858.296167,8195.039638,8348.217949
1097.807992,13403.102212,9803.411904,9267.287815
1097.808291,7429.148083,8807.752882,9573.644437
1097.808590,-229.767466,3216.744531,9956.590215
1097.808890,-9343.876971,-5361.240885,11335.195014
1097.809189,-14092.404612,-13096.745590,12560.621502
1097.809488,-12866.978124,-15471.009411,12790.388968
1097.809787,-5131.473418,-10799.070925,9497.055282
1097.810086,3599.690308,-4059.225241,7429.148083
1097.810400,10262.946837,2604.031287,8960.931193
1097.810699,13862.637145,8501.396260,10416.125148
1097.810997,12943.567279,11488.373325,10109.768526
1097.811296,7735.504705,11641.551636,9420.466126
1097.811595,-2221.085509,6663.256528,10722.481770
1097.811894,-11258.605858,-1302.015643,12943.567279
1097.812192,-16313.490121,-9343.876971,14781.707011
1097.812491,-15853.955188,-12484.032346,14322.172078
1097.812798,-9880.001059,-11411.784169,11488.373325
1097.813095,-2067.907198,-6280.310751,9420.466126
1097.813392,8195.039638,306.356622,8348.217949
1097.813690,14858.296167,6356.899906,9114.109504
1097.813987,15164.652789,9267.287815,9650.233593
1097.814284,11182.016703,9573.644437,9573.644437
1097.814582,3446.511997,5284.651729,10186.357681
1097.814879,-5131.473418,-2067.907198,11028.838392
1097.815175,-11718.140791,-7965.272172,13249.923901
1097.815476,-13786.047990,-12330.854035,12560.621502
1097.815777,-9497.055282,-10799.070925,10492.714303
1097.816078,-2374.263820,-5514.419196,9803.411904
1097.816379,5973.954129,612.713244,8654.574571
1097.816680,11028.838392,6969.613150,8960.931193
1097.816982,14015.815456,10416.125148,9114.109504
1097.817283,9956.590215,10722.481770,9420.466126
1097.817577,2144.496354,7582.326394,10262.946837
1097.817878,-8118.450483,153.178311,12177.675724
1097.818179,-15700.776877,-7199.380617,13249.923901
1097.818480,-16466.668432,-12024.497413,13556.280523
1097.818781,-10952.249236,-10952.249236,11335.195014
1097.819082,-2221.085509,-6893.023995,8195.039638
1097.819383,5820.775818,-1608.372265,7735.504705
1097.819683,12484.032346,3523.101153,8195.039638
1097.819971,15930.544344,7122.791461,9190.698660
1097.820272,15164.652789,9573.644437,8501.396260
1097.820573,7582.326394,6969.613150,9190.698660
1097.820874,-1608.372265,1378.604799,10186.357681
1097.821175,-10645.892614,-5054.884263,13173.334746
1097.821475,-13786.047990,-9343.876971,14398.761234
1097.821776,-11564.962480,-10033.179370,12713.799813
1097.822077,-8271.628794,-7046.202306,10416.125148
1097.822391,-1148.837332,-2374.263820,9420.466126
1097.822689,5054.884263,3676.279464,9650.233593
1097.822988,10722.481770,8195.039638,9956.590215
1097.823287,10875.660081,9650.233593,10875.660081
1097.823586,7046.202306,8041.861327,10262.946837
1097.823884,153.178311,4288.992708,9956.590215
1097.824183,-6510.078217,-2680.620442,11028.838392
1097.824482,-11564.962480,-10492.714303,13249.923901
1097.824789,-12254.264880,-13862.637145,13403.102212
1097.825089,-7658.915550,-11411.784169,10033.179370
1097.825388,-842.480710,-6586.667373,8041.861327
1097.825688,6739.845684,-995.659021,8501.396260
1097.825988,11794.729947,3829.457775,9573.644437
1097.826287,13556.280523,6203.721595,9650.233593
1097.826587,10569.303459,7888.683016,9420.466126
1097.826887,3446.511997,5591.008351,9726.822748
1097.827183,-5284.651729,153.178311,10799.070925
1097.827481,-12101.086569,-5973.954129,13096.745590
1097.827778,-14628.528700,-9497.055282,13020.156435
1097.828075,-11258.605858,-9650.233593,10262.946837
1097.828373,-6510.078217,-5361.240885,9650.233593
1097.828670,-0.000000,-1302.015643,9803.411904
1097.828967,7046.202306,2450.852976,10569.303459
1097.829265,11335.195014,6510.078217,11028.838392
1097.829579,12330.854035,8807.752882,8960.931193
1097.829878,6739.845684,6663.256528,9956.590215
1097.830177,-995.659021,1072.248177,11182.016703
1097.830475,-8424.807105,-4901.705952,11794.729947
1097.830774,-10645.892614,-9037.520349,11335.195014
1097.831073,-10645.892614,-10492.714303,10569.303459
1097.831371,-7658.915550,-9343.876971,10416.125148
1097.831670,-1148.837332,-3599.690308,10416.125148
1097.831982,7275.969772,3216.744531,9803.411904
1097.832278,13709.458834,9803.411904,9803.411904
1097.832575,14245.582923,12560.621502,9267.287815
1097.832872,7429.148083,10875.660081,9650.233593
1097.833168,-2221.085509,5591.008351,11028.838392
1097.833465,-10645.892614,-1148.837332,13249.923901
1097.833762,-14781.707011,-8424.807105,13862.637145
1097.834058,-13326.513057,-11105.427547,12407.443191
1097.834358,-7199.380617,-9343.876971,9803.411904
1097.834661,1072.248177,-4901.705952,8041.861327
1097.834963,8960.931193,919.069866,8195.039638
1097.835266,13403.102212,5744.186662,9956.590215
1097.835568,13096.745590,8807.752882,10262.946837
1097.835871,8654.574571,9650.233593,9650.233593
1097.836174,2374.263820,7122.791461,8807.752882
1097.836476,-5131.473418,459.534933,10109.768526
1097.836783,-12254.264880,-9037.520349,13096.745590
1097.837079,-13786.047990,-12790.388968,13249.923901
1097.837375,-9343.876971,-10645.892614,10569.303459
1097.837671,-1608.372265,-6739.845684,8348.217949
1097.837967,4901.705952,-1148.837332,8271.628794
1097.838263,9803.411904,3982.636086,10109.768526
1097.838559,12330.854035,8041.861327,9573.644437
1097.838855,9267.287815,8807.752882,8960.931193
1097.839175,1378.604799,4978.295107,10109.768526
1097.839472,-9343.876971,-2986.977064,12790.388968
1097.839769,-14781.707011,-9650.233593,14168.993767
1097.840066,-12407.443191,-11871.319102,12943.567279
1097.840363,-6203.721595,-10339.535992,9573.644437
1097.840660,-76.589155,-6280.310751,8654.574571
1097.840957,6739.845684,-0.000000,8195.039638
1097.841254,12330.854035,5437.830040,8731.163727
1097.841573,14015.815456,7888.683016,9650.233593
1097.841871,10109.768526,7888.683016,9956.590215
1097.842169,2833.798753,5131.473418,10722.481770
1097.842467,-5284.651729,-382.945777,12407.443191
1097.842766,-12101.086569,-6739.845684,13556.280523
1097.843064,-14322.172078,-11871.319102,14015.815456
1097.843362,-12407.443191,-11871.319102,12101.086569
1097.843660,-6969.613150,-8884.342038,10645.892614
1097.843973,1378.604799,-2221.085509,8884.342038
1097.844272,9956.590215,3523.101153,7505.737239
1097.844570,14551.939545,8195.039638,9267.287815
1097.844869,14015.815456,8807.752882,9803.411904
1097.845167,7735.504705,7429.148083,10109.768526
1097.845466,306.356622,3063.566220,9956.590215
1097.845764,-8731.163727,-3446.511997,12330.854035
1097.846063,-14781.707011,-9650.233593,14015.815456
1097.846362,-14092.404612,-10339.535992,13096.745590
1097.846663,-7199.380617,-6586.667373,9803.411904
1097.846964,153.178311,-1455.193954,7429.148083
1097.847265,7046.202306,2450.852976,8654.574571
1097.847565,12943.567279,7275.969772,10109.768526
1097.847866,14551.939545,11182.016703,9573.644437
1097.848167,10416.125148,10262.946837,9114.109504
1097.848468,1531.783110,6203.721595,9956.590215
1097.848775,-6050.543284,306.356622,12254.264880
1097.849072,-11947.908258,-5973.954129,13403.102212
1097.849369,-13479.691368,-9190.698660,11564.962480
1097.849665,-10799.070925,-9343.876971,9650.233593
1097.849962,-4825.116796,-7352.558928,10262.946837
1097.850259,1991.318043,-3446.511997,10416.125148
1097.850556,9114.109504,2604.031287,9956.590215
1097.850853,12790.388968,7122.791461,9420.466126
1097.851167,11335.195014,8501.396260,8654.574571
1097.851470,6280.310751,6816.434839,9803.411904
1097.851772,-2757.209598,1072.248177,11028.838392
1097.852075,-10339.535992,-5361.240885,13403.102212
1097.852378,-12101.086569,-9726.822748,12713.799813
1097.852681,-8884.342038,-9650.233593,10492.714303
1097.852983,-3216.744531,-7352.558928,9497.055282
1097.853286,3293.333686,-2527.442131,8960.931193
1097.853559,9803.411904,3676.279464,9650.233593
1097.853862,15011.474478,8041.861327,9343.876971
1097.854164,13096.745590,9420.466126,9573.644437
1097.854467,6739.845684,8041.861327,9573.644437
1097.854770,-3063.566220,2144.496354,10722.481770
1097.855072,-12407.443191,-5820.775818,13249.923901
1097.855375,-17462.327454,-12484.032346,13862.637145
1097.855677,-15700.776877,-14475.350389,13096.745590
1097.855995,-9497.055282,-10339.535992,11028.838392
1097.856290,306.356622,-4059.225241,7888.683016
1097.856585,8041.861327,1378.604799,7735.504705
1097.856880,11335.195014,5591.008351,10262.946837
1097.857176,11488.373325,8041.861327,10339.535992
1097.857471,6893.023995,7888.683016,9650.233593
1097.857766,1225.426488,4288.992708,9726.822748
1097.858062,-5131.473418,-2680.620442,10722.481770
1097.858362,-8424.807105,-9037.520349,12254.264880
1097.858659,-7122.791461,-10186.357681,12101.086569
1097.858956,-2374.263820,-7658.915550,9650.233593
1097.859254,2680.620442,-2833.798753,8501.396260
1097.859551,7582.326394,1838.139732,9267.287815
1097.859849,10262.946837,6510.078217,10569.303459
1097.860146,9420.466126,9420.466126,11028.838392
1097.860444,5667.597507,9650.233593,10262.946837
1097.860774,-2910.387909,4748.527641,11947.908258
1097.861071,-11718.140791,-1761.550576,14015.815456
1097.861368,-16007.133499,-7812.093861,14245.582923
1097.861665,-14322.172078,-9037.520349,12560.621502
1097.861962,-8424.807105,-8118.450483,9343.876971
1097.862258,-1608.372265,-4212.403552,9420.466126
1097.862555,5820.775818,1072.248177,8807.752882
1097.862852,13556.280523,5897.364973,8118.450483
1097.863160,14398.761234,6663.256528,8577.985416
1097.863460,10416.125148,5131.473418,9956.590215
1097.863760,4059.225241,2757.209598,10109.768526
1097.864060,-2221.085509,-1608.372265,10875.660081
1097.864359,-9343.876971,-7812.093861,12101.086569
1097.864659,-11564.962480,-10952.249236,12101.086569
1097.864959,-9037.520349,-8731.163727,10569.303459
1097.865259,-3063.566220,-4365.581863,8424.807105
1097.865542,3140.155375,1684.961421,8348.217949
1097.865845,7046.202306,6203.721595,10109.768526
1097.866148,10569.303459,8960.931193,10722.481770
1097.866451,9956.590215,11028.838392,10262.946837
1097.866754,4518.760174,8195.039638,9956.590215
1097.867057,-3216.744531,1838.139732,11335.195014
1097.867360,-10645.892614,-4825.116796,12713.799813
1097.867662,-11564.962480,-10033.179370,12866.978124
1097.867944,-10033.179370,-12330.854035,11335.195014
1097.868246,-4748.527641,-9497.055282,10033.179370
1097.868549,2527.442131,-3906.046930,8118.450483
1097.868851,8654.574571,919.069866,7735.504705
1097.869153,11641.551636,4595.349330,10416.125148
1097.869455,11871.319102,7122.791461,9956.590215
1097.869757,6739.845684,6663.256528,9573.644437
1097.870060,153.178311,3982.636086,9956.590215
1097.870349,-7199.380617,-1914.728887,12713.799813
1097.870648,-10799.070925,-7812.093861,13709.458834
1097.870948,-10033.179370,-8271.628794,11794.729947
1097.871247,-5591.008351,-6433.489062,9420.466126
1097.871546,-1148.837332,-3906.046930,8807.752882
1097.871845,3293.333686,-229.767466,9956.590215
1097.872144,7122.791461,4288.992708,11335.195014
1097.872443,9267.287815,6356.899906,10722.481770
1097.872757,6739.845684,6663.256528,10033.179370
1097.873055,612.713244,4135.814397,10875.660081
1097.873353,-6356.899906,-1148.837332,11871.319102
1097.873650,-11411.784169,-6893.023995,13096.745590
1097.873948,-11258.605858,-10033.179370,12254.264880
1097.874246,-8577.985416,-10339.535992,9803.411904
1097.874544,-2604.031287,-6893.023995,9114.109504
1097.874842,4901.705952,-1608.372265,8960.931193
1097.875149,12484.032346,2910.387909,7888.683016
1097.875449,12484.032346,5131.473418,9956.590215
1097.875748,10875.660081,6663.256528,10262.946837
1097.876048,4901.705952,6510.078217,10109.768526
1097.876348,-3063.566220,1838.139732,11028.838392
1097.876648,-10952.249236,-4671.938485,12407.443191
1097.876947,-13786.047990,-8731.163727,13403.102212
1097.877247,-9726.822748,-8731.163727,10416.125148
1097.877544,-3982.636086,-6127.132440,9267.287815
1097.877843,3293.333686,-382.945777,9114.109504
1097.878143,7582.326394,4135.814397,9114.109504
1097.878443,11488.373325,8654.574571,10569.303459
1097.878742,9956.590215,10875.660081,10262.946837
1097.879042,3752.868619,9650.233593,10262.946837
1097.879341,-3523.101153,3829.457775,11258.605858
1097.879641,-10186.357681,-2986.977064,12713.799813
1097.879936,-10952.249236,-9343.876971,12330.854035
1097.880236,-10492.714303,-10799.070925,11718.140791
1097.880536,-4978.295107,-8424.807105,9650.233593
1097.880836,2144.496354,-3446.511997,7429.148083
1097.881136,8807.752882,1684.961421,8960.931193
1097.881436,12177.675724,5744.186662,10722.481770
1097.881737,12790.388968,9267.287815,9956.590215
1097.882037,8960.931193,9114.109504,8807.752882
1097.882348,1531.783110,4288.992708,9420.466126
1097.882646,-8118.450483,-2986.977064,12713.799813
1097.882943,-12866.978124,-9190.698660,13862.637145
1097.883241,-13020.156435,-10492.714303,12866.978124
1097.883538,-8577.985416,-7965.272172,10569.303459
1097.883836,-2604.031287,-2680.620442,9880.001059
1097.884133,3599.690308,3216.744531,9573.644437
1097.884430,9267.287815,8041.861327,9956.590215
1097.884740,11488.373325,9267.287815,9650.233593
1097.885039,8195.039638,7582.326394,9650.233593
1097.885338,2986.977064,3829.457775,10109.768526
1097.885638,-3216.744531,-2833.798753,10722.481770
1097.885937,-8424.807105,-10492.714303,12101.086569
1097.886236,-10339.535992,-14015.815456,11182.016703
1097.886536,-7505.737239,-12484.032346,9650.233593
1097.886835,-2450.852976,-8118.450483,8654.574571
1097.887142,2986.977064,-1914.728887,7735.504705
1097.887440,7429.148083,3216.744531,9343.876971
1097.887738,8654.574571,6050.543284,10722.481770
1097.888037,7046.202306,7275.969772,10416.125148
1097.888335,919.069866,5591.008351,10875.660081
1097.888633,-6203.721595,-382.945777,12637.210657
1097.888931,-11411.784169,-5667.597507,13862.637145
1097.889229,-11105.427547,-7812.093861,13249.923901
1097.889545,-6969.613150,-8118.450483,9880.001059
1097.889844,-1608.372265,-4825.116796,9190.698660
1097.890142,5820.775818,-0.000000,7505.737239
1097.890441,9956.590215,3369.922842,8348.217949
1097.890739,11335.195014,5591.008351,10722.481770
1097.891038,9420.466126,7429.148083,11794.729947
1097.891336,6280.310751,6050.543284,10645.892614
1097.891635,459.534933,2604.031287,10416.125148
1097.891949,-7658.915550,-3752.868619,12713.799813
1097.892248,-11947.908258,-8884.342038,14015.815456
1097.892546,-11564.962480,-8884.342038,12254.264880
1097.892845,-6203.721595,-4671.938485,8960.931193
1097.893144,-842.480710,-689.302399,8195.039638
1097.893442,4212.403552,2910.387909,8271.628794
1097.893741,8654.574571,6050.543284,11028.838392
1097.894040,11335.195014,8348.217949,10262.946837
1097.894351,8195.039638,7275.969772,8271.628794
1097.894648,306.356622,2910.387909,10416.125148
1097.894945,-8271.628794,-4901.705952,13556.280523
1097.895241,-13020.156435,-9343.876971,14475.350389
1097.895538,-11871.319102,-9343.876971,11641.551636
1097.895834,-6663.256528,-7352.558928,8501.396260
1097.896131,-1302.015643,-3140.155375,8041.861327
1097.896427,6586.667373,1684.961421,7888.683016
1097.896727,12177.675724,6510.078217,9267.287815
1097.897026,11794.729947,7429.148083,10799.070925
1097.897325,10416.125148,7582.326394,9956.590215
1097.897625,5361.240885,5897.364973,10109.768526
1097.897924,-1455.193954,1378.604799,10569.303459
1097.898223,-10339.535992,-5514.419196,13403.102212
1097.898522,-14322.172078,-8884.342038,13173.334746
1097.898822,-10339.535992,-7812.093861,11028.838392
1097.899129,-4978.295107,-5054.884263,9573.644437
1097.899428,-229.767466,-1148.837332,9190.698660
1097.899727,6127.132440,1838.139732,9420.466126
1097.900026,8960.931193,4135.814397,10262.946837
1097.900326,9114.109504,5131.473418,10416.125148
1097.900625,3906.046930,3829.457775,10875.660081
1097.900924,-2067.907198,-382.945777,11335.195014
1097.901223,-6663.256528,-5667.597507,12254.264880
1097.901544,-7658.915550,-8884.342038,11182.016703
1097.901844,-6356.899906,-9190.698660,9726.822748
1097.902145,-2450.852976,-5667.597507,8348.217949
1097.902445,2374.263820,-2067.907198,7735.504705
1097.902745,6280.310751,1684.961421,9650.233593
1097.903046,8960.931193,4748.527641,11335.195014
1097.903346,7582.326394,6203.721595,10569.303459
1097.903646,5054.884263,5897.364973,10416.125148
1097.903884,-1914.728887,2450.852976,11488.373325
1097.904190,-8118.450483,-3446.511997,12790.388968
1097.904495,-10952.249236,-8424.807105,13326.513057
1097.904800,-9726.822748,-8424.807105,12254.264880
1097.905105,-4748.527641,-5514.419196,8731.163727
1097.905410,306.356622,-2067.907198,6969.613150
1097.905715,4901.705952,765.891555,8577.985416
1097.906020,5973.954129,1991.318043,11488.373325
1097.906365,6739.845684,3216.744531,11258.605858
1097.906658,5361.240885,3829.457775,10416.125148
1097.906951,2144.496354,2144.496354,10875.660081
1097.907243,-4442.171019,-2221.085509,11794.729947
1097.907536,-7965.272172,-6433.489062,12713.799813
1097.907829,-8118.450483,-7658.915550,11335.195014
1097.908121,-4442.171019,-6127.132440,9420.466126
1097.908414,-76.589155,-1914.728887,8654.574571
1097.908714,6127.132440,2910.387909,7888.683016
1097.909015,10722.481770,6510.078217,9190.698660
1097.909315,12024.497413,7888.683016,10569.303459
1097.909616,8195.039638,8195.039638,10416.125148
1097.909917,1838.139732,5284.651729,11182.016703
1097.910218,-6510.078217,-0.000000,12560.621502
1097.910518,-13479.691368,-5514.419196,13403.102212
1097.910819,-15088.063633,-8577.985416,12407.443191
1097.911126,-11105.427547,-7812.093861,10492.714303
1097.911423,-4978.295107,-4901.705952,8807.752882
1097.911720,2680.620442,-995.659021,8195.039638
1097.912017,8807.752882,3063.566220,9267.287815
1097.912314,12177.675724,4288.992708,9956.590215
1097.912611,11335.195014,6203.721595,10416.125148
1097.912908,6280.310751,5437.830040,10109.768526
1097.913205,-76.589155,1378.604799,9803.411904
1097.913513,-7199.380617,-4365.581863,12254.264880
1097.913812,-9573.644437,-7965.272172,12790.388968
1097.914111,-7658.915550,-9037.520349,10416.125148
1097.914410,-2604.031287,-5208.062574,8041.861327
1097.914709,3293.333686,-1761.550576,7582.326394
1097.915007,6586.667373,1531.783110,9880.001059
1097.915306,10416.125148,4825.116796,11641.551636
1097.915605,11641.551636,7888.683016,9420.466126
1097.915922,8501.396260,7122.791461,9420.466126
1097.916221,306.356622,3523.101153,10416.125148
1097.916520,-7965.272172,-2374.263820,12560.621502
1097.916820,-12866.978124,-7352.558928,13249.923901
1097.917119,-14245.582923,-10186.357681,12407.443191
1097.917418,-11947.908258,-9190.698660,10416.125148
1097.917717,-6663.256528,-6127.132440,9420.466126
1097.918016,459.534933,-2221.085509,9803.411904
1097.918362,7122.791461,1991.318043,10875.660081
1097.918656,10416.125148,4978.295107,10722.481770
1097.918951,9803.411904,5744.186662,9573.644437
1097.919245,5973.954129,4748.527641,9803.411904
1097.919540,-536.124088,-689.302399,11641.551636
1097.919834,-7199.380617,-5973.954129,12943.567279
1097.920129,-9037.520349,-9650.233593,11335.195014
1097.920423,-5591.008351,-8424.807105,9726.822748
1097.920700,-995.659021,-5820.775818,8654.574571
1097.921000,4059.225241,-1302.015643,8654.574571
1097.921300,8807.752882,3216.744531,10416.125148
1097.921600,10569.303459,7275.969772,11488.373325
1097.921900,8654.574571,9114.109504,10722.481770
1097.922200,3293.333686,7735.504705,10569.303459
1097.922500,-4288.992708,2757.209598,11028.838392
1097.922800,-12407.443191,-4825.116796,14168.993767
1097.923114,-15088.063633,-9497.055282,14168.993767
1097.923413,-10186.357681,-9190.698660,10416.125148
1097.923711,-4595.349330,-5820.775818,8348.217949
1097.924010,612.713244,-2527.442131,8195.039638
1097.924309,6280.310751,1072.248177,9650.233593
1097.924607,11028.838392,5131.473418,10416.125148
1097.924906,11335.195014,7582.326394,9573.644437
1097.925205,5208.062574,6050.543284,9803.411904
1097.925512,-2067.907198,1838.139732,10875.660081
1097.925816,-7122.791461,-2986.977064,11794.729947
1097.926120,-9037.520349,-7046.202306,11794.729947
1097.926423,-8731.163727,-8424.807105,10799.070925
1097.926727,-4595.349330,-5054.884263,9267.287815
1097.927031,2297.674665,-995.659021,8348.217949
1097.927335,8195.039638,3982.636086,9573.644437
1097.927639,11641.551636,7275.969772,10875.660081
1097.927922,12024.497413,9956.590215,10109.768526
1097.928224,8195.039638,10416.125148,9267.287815
1097.928526,153.178311,5591.008351,10416.125148
1097.928829,-9497.055282,-1608.372265,13709.458834
1097.929131,-14092.404612,-8424.807105,14322.172078
1097.929433,-12101.086569,-10645.892614,12560.621502
1097.929735,-7658.915550,-8731.163727,9956.590215
1097.930037,-842.480710,-4671.938485,8501.396260
1097.930352,6893.023995,765.891555,8195.039638
1097.930646,11028.838392,4442.171019,10109.768526
1097.930940,10416.125148,5897.364973,9803.411904
1097.931234,4901.705952,5591.008351,9803.411904
1097.931528,153.178311,3216.744531,10722.481770
1097.931822,-6816.434839,-3599.690308,11794.729947
1097.932117,-10952.249236,-9343.876971,12943.567279
1097.932411,-10799.070925,-11871.319102,12101.086569
1097.932699,-5897.364973,-9497.055282,9650.233593
1097.932999,-689.302399,-5208.062574,7582.326394
1097.933299,4212.403552,-536.124088,7582.326394
1097.933599,7429.148083,2604.031287,9573.644437
1097.933899,8501.396260,4978.295107,11028.838392
1097.934199,7888.683016,7275.969772,10569.303459
1097.934499,4671.938485,5591.008351,9037.520349
1097.934800,-2067.907198,306.356622,10875.660081
1097.935109,-8424.807105,-7199.380617,13249.923901
1097.935408,-9497.055282,-10339.535992,12943.567279
1097.935707,-6510.078217,-9037.520349,10416.125148
1097.936007,-536.124088,-4365.581863,7735.504705
1097.936306,1072.248177,-1302.015643,8348.217949
1097.936606,3599.690308,1531.783110,9956.590215
1097.936905,6739.845684,4825.116796,11947.908258
1097.937204,6280.310751,6969.613150,11335.195014
1097.937511,1684.961421,4978.295107,11488.373325
1097.937811,-4748.527641,1684.961421,12407.443191
1097.938111,-8271.628794,-2680.620442,13020.156435
1097.938410,-8731.163727,-6127.132440,12790.388968
1097.938710,-6969.613150,-7199.380617,10645.892614
1097.939010,-2450.852976,-3906.046930,8807.752882
1097.939309,3752.868619,-382.945777,7429.148083
1097.939609,8041.861327,3369.922842,8501.396260
1097.939906,10262.946837,5131.473418,10416.125148
1097.940204,7122.791461,6050.543284,11641.551636
1097.940503,4518.760174,5897.364973,11105.427547
1097.940802,-536.124088,3829.457775,11028.838392
1097.941101,-5897.364973,-689.302399,11794.729947
1097.941400,-10339.535992,-6739.845684,12790.388968
1097.941699,-9343.876971,-8271.628794,11641.551636
1097.941997,-4595.349330,-6127.132440,8807.752882
1097.942290,1684.961421,-2833.798753,7352.558928
1097.942593,5514.419196,-76.589155,7888.683016
1097.942895,8195.039638,3216.744531,10569.303459
1097.943198,8041.861327,5131.473418,11028.838392
1097.943501,5054.884263,6510.078217,10416.125148
1097.943803,306.356622,4595.349330,10799.070925
1097.944106,-4825.116796,306.356622,10875.660081
1097.944409,-10186.357681,-5667.597507,12560.621502
1097.944697,-11564.962480,-9726.822748,12330.854035
1097.944998,-6969.613150,-8424.807105,9956.590215
1097.945299,-995.659021,-5514.419196,8960.931193
1097.945600,6127.132440,-1302.015643,7888.683016
1097.945900,10262.946837,2450.852976,9650.233593
1097.946201,12330.854035,6510.078217,9956.590215
1097.946502,10569.303459,8654.574571,9650.233593
1097.946803,4365.581863,5591.008351,9726.822748
1097.947102,-2450.852976,612.713244,11028.838392
1097.947402,-10186.357681,-6280.310751,13096.745590
1097.947702,-12254.264880,-10492.714303,13096.745590
1097.948002,-8271.628794,-10186.357681,10875.660081
1097.948302,-2910.387909,-6280.310751,8041.861327
1097.948602,2144.496354,-1761.550576,7888.683016
1097.948902,5054.884263,1225.426488,10262.946837
1097.949202,6127.132440,4978.295107,12407.443191
1097.949510,7122.791461,7735.504705,10645.892614
1097.949805,3293.333686,6510.078217,9573.644437
1097.950101,-2450.852976,1838.139732,10033.179370
1097.950397,-9343.876971,-4518.760174,13249.923901
1097.950693,-10799.070925,-10033.179370,13939.226301
1097.950989,-6816.434839,-10339.535992,11335.195014
1097.951285,-995.659021,-7199.380617,8654.574571
1097.951581,4901.705952,-2067.907198,7352.558928
1097.951901,9114.109504,2910.387909,8041.861327
1097.952198,10416.125148,5897.364973,10416.125148
1097.952496,8654.574571,7275.969772,10799.070925
1097.952793,5208.062574,7275.969772,10339.535992
1097.953090,-995.659021,3982.636086,10416.125148
1097.953387,-6816.434839,-2374.263820,12407.443191
1097.953684,-10799.070925,-8884.342038,13939.226301
1097.953981,-9190.698660,-9880.001059,12254.264880
1097.954299,-4978.295107,-7199.380617,8807.752882
1097.954598,-382.945777,-3293.333686,8195.039638
1097.954896,2527.442131,153.178311,8501.396260
1097.955194,5820.775818,4135.814397,9880.001059
1097.955492,5973.954129,5744.186662,11182.016703
1097.955791,3752.868619,5591.008351,11105.427547
1097.956089,-1302.015643,3369.922842,11794.729947
1097.956387,-6510.078217,-1608.372265,11794.729947
1097.956700,-9726.822748,-5820.775818,12943.567279
1097.956998,-8731.163727,-8731.163727,11718.140791
1097.957297,-3063.566220,-6127.132440,9420.466126
1097.957595,1684.961421,-3140.155375,7582.326394
1097.957894,7275.969772,1378.604799,6816.434839
1097.958192,10109.768526,4135.814397,9420.466126
1097.958491,11641.551636,6663.256528,10262.946837
1097.958789,9267.287815,8195.039638,10416.125148
1097.959089,3599.690308,5744.186662,10262.946837
1097.959389,-4442.171019,1072.248177,11871.319102
1097.959689,-10033.179370,-5208.062574,13096.745590
1097.959989,-10952.249236,-8424.807105,12713.799813
1097.960289,-6816.434839,-7658.915550,10492.714303
1097.960589,-1302.015643,-3446.511997,8041.861327
1097.960889,3906.046930,-76.589155,7275.969772
1097.961189,8041.861327,2910.387909,8348.217949
1097.961496,8348.217949,4748.527641,11028.838392
1097.961793,4901.705952,4748.527641,11641.551636
1097.962090,-76.589155,2144.496354,11105.427547
1097.962386,-5284.651729,-995.659021,11028.838392
1097.962683,-9343.876971,-5820.775818,12943.567279
1097.962980,-10492.714303,-9726.822748,12713.799813
1097.963277,-8271.628794,-9343.876971,10492.714303
1097.963574,-1761.550576,-5973.954129,8195.039638
1097.963888,4365.581863,-1914.728887,6663.256528
1097.964188,8807.752882,1531.783110,8041.861327
1097.964489,10109.768526,4288.992708,10569.303459
1097.964789,10109.768526,5591.008351,11335.195014
1097.965089,8195.039638,6663.256528,9956.590215
1097.965390,3293.333686,4288.992708,9573.644437
1097.965690,-4825.116796,-2374.263820,11641.551636
1097.965990,-12101.086569,-9190.698660,14934.885322
1097.966309,-11258.605858,-8884.342038,13249.923901
1097.966605,-5591.008351,-5667.597507,8960.931193
1097.966901,765.891555,-2067.907198,7275.969772
1097.967197,3599.690308,-0.000000,8654.574571
1097.967493,7122.791461,3676.279464,11258.605858
1097.967789,8041.861327,5437.830040,11641.551636
1097.968086,6586.667373,6356.899906,10569.303459
1097.968382,765.891555,4288.992708,11335.195014
1097.968699,-6050.543284,-382.945777,11794.729947
1097.968997,-10952.249236,-5208.062574,12790.388968
1097.969295,-11718.140791,-8577.985416,12713.799813
1097.969593,-8577.985416,-8118.450483,10416.125148
1097.969891,-3982.636086,-5208.062574,8807.752882
1097.970189,3752.868619,-76.589155,8041.861327
1097.970487,8654.574571,3676.279464,9650.233593
1097.970785,10722.481770,6816.434839,11258.605858
1097.971085,10569.303459,9650.233593,9880.001059
1097.971383,7122.791461,9267.287815,8501.396260
1097.971680,-1148.837332,3676.279464,10186.357681
1097.971977,-10339.535992,-5054.884263,13403.102212
1097.972275,-12101.086569,-9650.233593,14475.350389
1097.972572,-8271.628794,-10339.535992,11028.838392
1097.972870,-2221.085509,-7046.202306,8654.574571
1097.973167,3293.333686,-1761.550576,6969.613150
1097.973497,7275.969772,2604.031287,8960.931193
1097.973794,9267.287815,5437.830040,10722.481770
1097.974091,8348.217949,7429.148083,10875.660081
1097.974388,3906.046930,7275.969772,10262.946837
1097.974685,-689.302399,3063.566220,9956.590215
1097.974982,-7505.737239,-3599.690308,12560.621502
1097.975279,-10645.892614,-10186.357681,13249.923901
1097.975576,-9497.055282,-10033.179370,12101.086569
1097.975884,-4825.116796,-6893.023995,9267.287815
1097.976184,1225.426488,-2221.085509,7735.504705
1097.976484,5973.954129,1531.783110,8041.861327
1097.976784,8348.217949,4825.116796,10339.535992
1097.977083,8960.931193,6663.256528,10339.535992
1097.977383,6586.667373,5591.008351,9420.466126
1097.977683,2144.496354,1991.318043,10033.179370
1097.977983,-4442.171019,-4212.403552,11718.140791
1097.978271,-9497.055282,-9880.001059,13173.334746
1097.978574,-9573.644437,-10492.714303,12254.264880
1097.978876,-5131.473418,-7812.093861,9267.287815
1097.979179,-1608.372265,-3906.046930,7888.683016
1097.979481,2680.620442,-382.945777,8654.574571
1097.979784,7046.202306,3676.279464,10416.125148
1097.980086,7122.791461,5131.473418,11182.016703
1097.980389,6586.667373,5897.364973,10109.768526
1097.980706,2680.620442,3982.636086,9956.590215
1097.981003,-2604.031287,-76.589155,11182.016703
1097.981300,-9190.698660,-6433.489062,13556.280523
1097.981596,-10645.892614,-9037.520349,13556.280523
1097.981893,-6816.434839,-6280.310751,10262.946837
1097.982190,-689.302399,-2527.442131,7735.504705
1097.982486,5054.884263,2144.496354,7429.148083
1097.982783,8348.217949,4748.527641,8960.931193
1097.983073,9803.411904,7275.969772,10416.125148
1097.983372,8041.861327,6510.078217,10416.125148
1097.983671,1378.604799,3369.922842,11335.195014
1097.983970,-6203.721595,-2374.263820,13556.280523
1097.984269,-11947.908258,-8271.628794,14322.172078
1097.984568,-10339.535992,-9880.001059,13403.102212
1097.984868,-6663.256528,-8731.163727,9573.644437
1097.985167,-842.480710,-3752.868619,7888.683016
1097.985480,3140.155375,153.178311,7735.504705
1097.985778,6893.023995,3216.744531,9267.287815
1097.986076,7429.148083,4825.116796,12484.032346
1097.986374,7275.969772,7122.791461,11182.016703
1097.986672,4365.581863,6816.434839,10109.768526
1097.986970,-842.480710,2757.209598,10416.125148
1097.987268,-7122.791461,-3140.155375,13020.156435
1097.987566,-10339.535992,-8577.985416,14628.528700
1097.987873,-8731.163727,-7812.093861,11182.016703
1097.988172,-2604.031287,-5054.884263,8118.450483
1097.988472,2680.620442,-1148.837332,7275.969772
1097.988772,6127.132440,2297.674665,8577.985416
1097.989072,9267.287815,4978.295107,10339.535992
1097.989371,9650.233593,7275.969772,10569.303459
1097.989671,8041.861327,7429.148083,9650.233593
1097.989971,2144.496354,4288.992708,9803.411904
1097.990268,-5591.008351,-1455.193954,12101.086569
1097.990568,-10339.535992,-7199.380617,13709.458834
1097.990868,-10952.249236,-9190.698660,12407.443191
1097.991168,-7122.791461,-6739.845684,9420.466126
1097.991469,-2450.852976,-3293.333686,7352.558928
1097.991769,2527.442131,-382.945777,8501.396260
1097.992069,7735.504705,2604.031287,9880.001059
1097.992370,9650.233593,5284.651729,10569.303459
1097.992665,8807.752882,5744.186662,9956.590215
1097.992965,3752.868619,3523.101153,10262.946837
1097.993266,-1148.837332,-689.302399,11028.838392
1097.993567,-7352.558928,-6127.132440,12713.799813
1097.993868,-11105.427547,-10186.357681,12560.621502
1097.994169,-9880.001059,-9880.001059,10109.768526
1097.994470,-5131.473418,-6739.845684,9420.466126
1097.994770,1225.426488,-1608.372265,8654.574571
1097.995059,6280.310751,1991.318043,9803.411904
1097.995359,9650.233593,6510.078217,10875.660081
1097.995660,9956.590215,9267.287815,9956.590215
1097.995961,6893.023995,7429.148083,9726.822748
1097.996262,-229.767466,2144.496354,11028.838392
1097.996563,-7352.558928,-6739.845684,13862.637145
1097.996864,-11105.427547,-11411.784169,14628.528700
1097.997164,-7352.558928,-10033.179370,10875.660081
1097.997473,-1761.550576,-5973.954129,6816.434839
1097.997769,1684.961421,-3293.333686,7582.326394
1097.998066,3446.511997,-689.302399,11028.838392
1097.998362,5208.062574,3829.457775,12713.799813
1097.998658,7429.148083,7735.504705,11028.838392
1097.998954,4365.581863,7888.683016,9573.644437
1097.999250,-842.480710,3676.279464,10492.714303
1097.999546,-7965.272172,-3752.868619,13403.102212
1097.999853,-10339.535992,-8577.985416,13556.280523
1098.000152,-8577.985416,-8731.163727,11564.962480
1098.000451,-3369.922842,-5973.954129,7888.683016
1098.000750,2680.620442,-842.480710,7275.969772
1098.001049,6893.023995,2604.031287,8195.039638
1098.001348,9114.109504,5284.651729,9803.411904
1098.001647,8501.396260,7429.148083,11182.016703
1098.001945,6893.023995,7582.326394,9573.644437
1098.002262,1225.426488,4748.527641,9956.590215
1098.002560,-5131.473418,-1302.015643,11182.016703
1098.002857,-11258.605858,-8118.450483,14092.404612
1098.003155,-11947.908258,-10186.357681,13709.458834
1098.003453,-6816.434839,-7046.202306,9497.055282
1098.003750,-1148.837332,-2833.798753,7888.683016
1098.004048,3293.333686,1531.783110,8118.450483
1098.004346,7888.683016,4978.295107,10109.768526
1098.004660,10416.125148,8195.039638,10416.125148
1098.004959,9497.055282,8960.931193,9267.287815
1098.005258,3140.155375,5744.186662,9573.644437
1098.005556,-4825.116796,-1608.372265,11641.551636
1098.005855,-13173.334746,-9497.055282,15930.544344
1098.006154,-12407.443191,-12177.675724,14781.707011
1098.006452,-7352.558928,-9880.001059,9956.590215
1098.006751,1225.426488,-4365.581863,6510.078217
1098.007063,8654.574571,306.356622,6127.132440
1098.007362,12177.675724,4595.349330,7888.683016
1098.007661,14015.815456,8041.861327,9803.411904
1098.007960,8960.931193,7429.148083,10416.125148
1098.008259,2527.442131,4442.171019,9956.590215
1098.008558,-5131.473418,-689.302399,11641.551636
1098.008858,-12101.086569,-7352.558928,13096.745590
1098.009157,-14934.885322,-11411.784169,14168.993767
1098.009456,-11258.605858,-11258.605858,11335.195014
1098.009755,-3982.636086,-6586.667373,8577.985416
1098.010055,1838.139732,-1761.550576,7658.915550
1098.010354,5667.597507,2144.496354,9803.411904
1098.010653,8041.861327,5591.008351,11488.373325
1098.010952,9114.109504,7888.683016,10109.768526
1098.011252,7735.504705,7735.504705,9114.109504
1098.011551,612.713244,2910.387909,9803.411904
1098.011858,-6816.434839,-4825.116796,13096.745590
1098.012157,-10339.535992,-10645.892614,14781.707011
1098.012457,-8271.628794,-10186.357681,12407.443191
1098.012756,-1608.372265,-5820.775818,8041.861327
1098.013055,2680.620442,-536.124088,6663.256528
1098.013354,7122.791461,3676.279464,7888.683016
1098.013653,9650.233593,7275.969772,10416.125148
1098.013953,8501.396260,8960.931193,11028.838392
1098.014273,4518.760174,7582.326394,10569.303459
1098.014570,-1455.193954,4135.814397,11794.729947
1098.014867,-6050.543284,-1302.015643,12254.264880
1098.015164,-10645.892614,-7199.380617,12790.388968
1098.015461,-11718.140791,-10033.179370,12713.799813
1098.015758,-8577.985416,-8884.342038,10109.768526
1098.016055,-2067.907198,-4365.581863,8807.752882
1098.016352,4901.705952,306.356622,8501.396260
1098.016671,8807.752882,3369.922842,9267.287815
1098.016969,10109.768526,6356.899906,10569.303459
1098.017267,7582.326394,7582.326394,10109.768526
1098.017566,3293.333686,4825.116796,9267.287815
1098.017864,-4442.171019,-1761.550576,11488.373325
1098.018162,-11947.908258,-9880.001059,14781.707011
1098.018460,-12407.443191,-12330.854035,14705.117856
1098.018758,-6203.721595,-8424.807105,10033.179370
1098.019071,1991.318043,-2221.085509,6663.256528
1098.019367,7046.202306,1991.318043,6663.256528
1098.019664,9956.590215,6510.078217,8731.163727
1098.019960,11182.016703,9573.644437,9803.411904
1098.020256,8654.574571,10109.768526,9420.466126
1098.020552,3752.868619,6816.434839,9573.644437
1098.020848,-4135.814397,-229.767466,10875.660081
1098.021144,-10033.179370,-8118.450483,13556.280523
1098.021443,-12101.086569,-12637.210657,14322.172078
1098.021744,-8424.807105,-11411.784169,11335.195014
1098.022045,-1608.372265,-6433.489062,7888.683016
1098.022346,3599.690308,-1302.015643,6663.256528
1098.022646,7582.326394,3369.922842,8348.217949
1098.022947,8041.861327,6356.899906,10722.481770
1098.023248,7429.148083,7582.326394,10109.768526
1098.023549,2833.798753,4825.116796,9956.590215
1098.023856,-3369.922842,153.178311,11794.729947
1098.024152,-10186.357681,-6433.489062,13862.637145
1098.024448,-12713.799813,-10645.892614,14475.350389
1098.024744,-10186.357681,-10033.179370,12101.086569
1098.025040,-2067.907198,-5054.884263,8348.217949
1098.025337,4365.581863,306.356622,6510.078217
1098.025633,8348.217949,3982.636086,6969.613150
1098.025929,11028.838392,6510.078217,10109.768526
1098.026237,11182.016703,7888.683016,10109.768526
1098.026536,9114.109504,7122.791461,9114.109504
1098.026835,1378.604799,2297.674665,9956.590215
1098.027134,-7812.093861,-6127.132440,13479.691368
1098.027433,-15853.955188,-13403.102212,16926.203365
1098.027732,-15088.063633,-14475.350389,14168.993767
1098.028031,-8884.342038,-9343.876971,10186.357681
1098.028330,-229.767466,-3140.155375,6280.310751
1098.028646,6586.667373,2297.674665,6356.899906
1098.028945,9956.590215,6356.899906,9573.644437
1098.029243,11488.373325,8501.396260,10875.660081
1098.029542,8807.752882,8348.217949,10722.481770
1098.029840,1684.961421,3063.566220,10416.125148
1098.030138,-6510.078217,-2374.263820,12560.621502
1098.030437,-12560.621502,-8577.985416,14705.117856
1098.030735,-11258.605858,-10799.070925,13020.156435
1098.031053,-5897.364973,-7505.737239,9650.233593
1098.031350,306.356622,-1455.193954,7275.969772
1098.031648,5973.954129,2604.031287,6969.613150
1098.031946,8807.752882,6203.721595,9267.287815
1098.032244,10569.303459,8041.861327,11182.016703
1098.032542,8654.574571,9114.109504,9726.822748
1098.032840,4518.760174,6663.256528,9956.590215
1098.033137,-3216.744531,1838.139732,10416.125148
1098.033437,-9497.055282,-6433.489062,13709.458834
1098.033737,-13786.047990,-11258.605858,15930.544344
1098.034037,-10033.179370,-10186.357681,11794.729947
1098.034337,-3982.636086,-5054.884263,7888.683016
1098.034637,2374.263820,-229.767466,6663.256528
1098.034937,6893.023995,3523.101153,7888.683016
1098.035237,9420.466126,6356.899906,10109.768526
1098.035537,8348.217949,7735.504705,10033.179370
1098.035828,5208.062574,5591.008351,10262.946837
1098.036127,-536.124088,919.069866,11488.373325
1098.036425,-6050.543284,-5208.062574,12637.210657
1098.036724,-7658.915550,-8271.628794,12943.567279
1098.037023,-7965.272172,-9343.876971,10875.660081
1098.037321,-3369.922842,-5973.954129,8577.985416
1098.037620,1378.604799,-1148.837332,8118.450483
1098.037919,7046.202306,2910.387909,7888.683016
1098.038226,9803.411904,6969.613150,9267.287815
1098.038531,8807.752882,8041.861327,9956.590215
1098.038835,5208.062574,7582.326394,10262.946837
1098.039140,-842.480710,3369.922842,11182.016703
1098.039445,-8271.628794,-3906.046930,12790.388968
1098.039749,-15853.955188,-10492.714303,15394.420255
1098.040054,-15241.241944,-12484.032346,14628.528700
1098.040358,-7505.737239,-7658.915550,9190.698660
1098.040642,1378.604799,-2986.977064,5514.419196
1098.040938,5361.240885,-382.945777,7582.326394
1098.041235,8041.861327,1684.961421,10875.660081
1098.041531,10875.660081,4595.349330,10722.481770
1098.041827,11488.373325,6356.899906,9114.109504
1098.042124,5208.062574,2604.031287,9267.287815
1098.042420,-2604.031287,-3906.046930,11488.373325
1098.042716,-9573.644437,-9650.233593,14781.707011
1098.043044,-11105.427547,-10799.070925,14475.350389
1098.043340,-7965.272172,-9190.698660,11028.838392
1098.043636,-1914.728887,-2986.977064,8041.861327
1098.043932,4365.581863,2144.496354,6816.434839
1098.044229,7122.791461,5744.186662,9114.109504
1098.044525,8348.217949,8195.039638,11947.908258
1098.044821,7122.791461,8654.574571,11182.016703
1098.045117,3752.868619,6816.434839,10569.303459
1098.045429,-3216.744531,1838.139732,12101.086569
1098.045730,-8731.163727,-5208.062574,13326.513057
1098.046031,-11718.140791,-10186.357681,13556.280523
1098.046331,-8271.628794,-9497.055282,10875.660081
1098.046632,-3523.101153,-5667.597507,8807.752882
1098.046933,612.713244,-2067.907198,7582.326394
1098.047234,5361.240885,2297.674665,8807.752882
1098.047534,8348.217949,5131.473418,10416.125148
1098.047843,9497.055282,6969.613150,9573.644437
1098.048141,6586.667373,6356.899906,8501.396260
1098.048439,459.534933,2604.031287,10033.179370
1098.048737,-7122.791461,-4365.581863,13556.280523
1098.049035,-11564.962480,-9037.520349,15317.831100
1098.049332,-11871.319102,-10339.535992,13096.745590
1098.049630,-5284.651729,-5361.240885,8807.752882
1098.049928,1838.139732,-229.767466,5744.186662
1098.050235,6280.310751,3216.744531,6816.434839
1098.050531,9420.466126,5131.473418,9573.644437
1098.050828,11028.838392,7888.683016,10262.946837
1098.051124,10262.946837,8195.039638,9420.466126
1098.051420,4059.225241,2910.387909,9497.055282
1098.051717,-4978.295107,-3599.690308,12790.388968
1098.052013,-11718.140791,-9343.876971,15088.063633
1098.052310,-10952.249236,-10339.535992,12943.567279
1098.052639,-6510.078217,-6893.023995,9573.644437
1098.052937,-1761.550576,-2680.620442,8041.861327
1098.053235,2297.674665,919.069866,8041.861327
1098.053534,6280.310751,4442.171019,9573.644437
1098.053832,8195.039638,6050.543284,11488.373325
1098.054130,7275.969772,6663.256528,9956.590215
1098.054428,2527.442131,4442.171019,10416.125148
1098.054726,-3369.922842,-995.659021,11488.373325
1098.055021,-10492.714303,-7965.272172,15088.063633
1098.055321,-11564.962480,-11105.427547,15394.420255
1098.055621,-6816.434839,-8424.807105,10109.768526
1098.055922,306.356622,-2527.442131,6356.899906
1098.056222,5054.884263,-0.000000,5820.775818
1098.056522,7429.148083,2757.209598,9573.644437
1098.056822,10109.768526,6050.543284,11182.016703
1098.057122,9114.109504,6816.434839,9956.590215
1098.057410,5820.775818,5591.008351,9573.644437
1098.057710,-995.659021,765.891555,11182.016703
1098.058010,-7505.737239,-5514.419196,13020.156435
1098.058310,-10799.070925,-9190.698660,14168.993767
1098.058610,-9573.644437,-7812.093861,12101.086569
1098.058910,-6356.899906,-4671.938485,7888.683016
1098.059210,-2604.031287,-1455.193954,8501.396260
1098.059510,1531.783110,1531.783110,9726.822748
1098.059810,5514.419196,3216.744531,11182.016703
1098.060110,6893.023995,4288.992708,10569.303459
1098.060410,6586.667373,4288.992708,9573.644437
1098.060710,2833.798753,1072.248177,10186.357681
1098.061010,-3369.922842,-4671.938485,12637.210657
1098.061310,-8884.342038,-9497.055282,14934.885322
1098.061610,-8884.342038,-9343.876971,12713.799813
1098.061910,-2221.085509,-4212.403552,8041.861327
1098.062217,2680.620442,-76.589155,5514.419196
1098.062518,5514.419196,3063.566220,7888.683016
1098.062820,7122.791461,4595.349330,11028.838392
1098.063121,8807.752882,7582.326394,11028.838392
1098.063423,8960.931193,8654.574571,8807.752882
1098.063724,2374.263820,4978.295107,9650.233593
1098.064026,-7352.558928,-1914.728887,13249.923901
1098.064327,-13479.691368,-7046.202306,15700.776877
1098.064644,-13326.513057,-8884.342038,14168.993767
1098.064937,-8731.163727,-7046.202306,9956.590215
1098.065231,-1608.372265,-3446.511997,7275.969772
1098.065525,4518.760174,612.713244,6969.613150
1098.065818,9803.411904,3523.101153,8348.217949
1098.066112,10722.481770,5744.186662,10569.303459
1098.066406,8348.217949,6816.434839,9803.411904
1098.066700,4059.225241,4825.116796,9803.411904
1098.067018,-2450.852976,-76.589155,11488.373325
1098.067317,-9343.876971,-6280.310751,13403.102212
1098.067615,-11258.605858,-9650.233593,14475.350389
1098.067913,-6816.434839,-7352.558928,10722.481770
1098.068211,306.356622,-2221.085509,7658.915550
1098.068509,5208.062574,1072.248177,6969.613150
1098.068808,7275.969772,4442.171019,9114.109504
1098.069106,8960.931193,6203.721595,10262.946837
1098.069419,7275.969772,6969.613150,9803.411904
1098.069717,3446.511997,4748.527641,9956.590215
1098.070015,-3216.744531,153.178311,11105.427547
1098.070313,-8884.342038,-5973.954129,13939.226301
1098.070611,-13632.869679,-11411.784169,14705.117856
1098.070909,-11871.319102,-11258.605858,13096.745590
1098.071207,-5284.651729,-7199.380617,9114.109504
1098.071505,2986.977064,-1914.728887,5514.419196
1098.071804,7429.148083,765.891555,7582.326394
1098.072105,9803.411904,2450.852976,9956.590215
1098.072406,10722.481770,4595.349330,9650.233593
1098.072706,8501.396260,3829.457775,9573.644437
1098.073007,1225.426488,-689.302399,10875.660081
1098.073308,-6356.899906,-6586.667373,13556.280523
1098.073609,-13020.156435,-10339.535992,15317.831100
1098.073909,-11718.140791,-9880.001059,13403.102212
1098.074217,-5284.651729,-4059.225241,9267.287815
1098.074513,306.356622,459.534933,7429.148083
1098.074810,4365.581863,3982.636086,8501.396260
1098.075107,7735.504705,7275.969772,10569.303459
1098.075404,10262.946837,9650.233593,11028.838392
1098.075701,9114.109504,9267.287815,9880.001059
1098.075998,2833.798753,5437.830040,10262.946837
1098.076295,-3829.457775,-76.589155,12101.086569
1098.076609,-10033.179370,-6433.489062,14322.172078
1098.076909,-11564.962480,-9497.055282,14398.761234
1098.077210,-7812.093861,-7965.272172,10262.946837
1098.077510,-995.659021,-3293.333686,7429.148083
1098.077810,3293.333686,-0.000000,6663.256528
1098.078111,5973.954129,2297.674665,8348.217949
1098.078411,6893.023995,4748.527641,11105.427547
1098.078711,6893.023995,6203.721595,10569.303459
1098.079013,4212.403552,4442.171019,9573.644437
1098.079312,-2221.085509,-76.589155,11028.838392
1098.079612,-8731.163727,-5973.954129,14475.350389
1098.079911,-10033.179370,-9037.520349,13632.869679
1098.080210,-6203.721595,-5820.775818,10262.946837
1098.080509,-229.767466,-2221.085509,6280.310751
1098.080809,2833.798753,612.713244,6816.434839
1098.081108,5514.419196,3523.101153,9956.590215
1098.081425,8807.752882,5437.830040,10262.946837
1098.081720,8501.396260,6510.078217,9956.590215
1098.082014,5208.062574,4825.116796,9573.644437
1098.082309,-1455.193954,306.356622,11182.016703
1098.082603,-6969.613150,-4825.116796,13709.458834
1098.082898,-12101.086569,-9650.233593,14628.528700
1098.083192,-10339.535992,-9190.698660,12560.621502
1098.083487,-3369.922842,-4825.116796,8884.342038
1098.083786,3140.155375,-229.767466,6816.434839
1098.084086,7122.791461,1684.961421,7429.148083
1098.084386,8195.039638,3216.744531,10416.125148
1098.084687,8501.396260,4595.349330,10109.768526
1098.084987,5514.419196,4288.992708,9573.644437
1098.085287,-1608.372265,459.534933,10722.481770
1098.085587,-8118.450483,-5054.884263,12943.567279
1098.085887,-13326.513057,-10033.179370,15394.420255
1098.086217,-10952.249236,-10799.070925,13173.334746
1098.086514,-3982.636086,-6280.310751,8807.752882
1098.086811,3752.868619,-1148.837332,6280.310751
1098.087108,7735.504705,2450.852976,6816.434839
1098.087405,9114.109504,4595.349330,9956.590215
1098.087702,9497.055282,6816.434839,10952.249236
1098.087999,7122.791461,7429.148083,9956.590215
1098.088296,765.891555,4288.992708,9956.590215
1098.088604,-6356.899906,-2221.085509,12101.086569
1098.088904,-10952.249236,-7046.202306,14168.993767
1098.089203,-10492.714303,-9650.233593,13709.458834
1098.089503,-6663.256528,-8577.985416,10416.125148
1098.089803,-382.945777,-3752.868619,7888.683016
1098.090103,4365.581863,919.069866,7735.504705
1098.090402,8195.039638,3063.566220,9573.644437
1098.090702,9114.109504,5437.830040,10416.125148
1098.090986,7582.326394,6969.613150,9880.001059
1098.091290,3293.333686,4442.171019,9803.411904
1098.091595,-2221.085509,-689.302399,10875.660081
1098.091900,-9880.001059,-7046.202306,14781.707011
1098.092205,-13939.226301,-11564.962480,15317.831100
1098.092509,-11564.962480,-10186.357681,12790.388968
1098.092814,-2450.852976,-4518.760174,8195.039638
1098.093119,5361.240885,459.534933,6280.310751
1098.093436,9497.055282,4748.527641,8041.861327
1098.093734,12177.675724,7735.504705,9650.233593
1098.094031,13096.745590,9650.233593,8960.931193
1098.094328,9114.109504,7275.969772,9267.287815
1098.094626,-842.480710,765.891555,11335.195014
1098.094923,-9573.644437,-6433.489062,14168.993767
1098.095221,-16007.133499,-11105.427547,15930.544344
1098.095518,-12713.799813,-10492.714303,12713.799813
1098.095808,-5131.473418,-5820.775818,8195.039638
1098.096104,765.891555,-842.480710,6739.845684
1098.096400,4901.705952,2604.031287,9420.466126
1098.096696,8041.861327,6663.256528,10109.768526
1098.096991,9956.590215,9650.233593,10033.179370
1098.097287,7735.504705,8807.752882,9267.287815
1098.097583,306.356622,3982.636086,10722.481770
1098.097879,-6969.613150,-2221.085509,12637.210657
1098.098188,-11105.427547,-8118.450483,14092.404612
1098.098487,-10033.179370,-10339.535992,12943.567279
1098.098785,-4595.349330,-8271.628794,9573.644437
1098.099084,2144.496354,-2833.798753,8041.861327
1098.099382,8348.217949,2144.496354,6663.256528
1098.099681,9956.590215,5284.651729,8501.396260
1098.099979,9497.055282,6816.434839,10416.125148
1098.100278,6586.667373,7735.504705,10416.125148
1098.100585,2144.496354,4595.349330,9803.411904
1098.100885,-5284.651729,-2221.085509,12560.621502
1098.101186,-11718.140791,-9880.001059,14705.117856
1098.101486,-11947.908258,-11258.605858,14168.993767
1098.101787,-5437.830040,-7352.558928,9573.644437
1098.102087,-0.000000,-2527.442131,6280.310751
1098.102388,1225.426488,-76.589155,8195.039638
1098.102688,3446.511997,2910.387909,10722.481770
1098.102985,7046.202306,5744.186662,11335.195014
1098.103285,8348.217949,6816.434839,9267.287815
1098.103586,3599.690308,3523.101153,9267.287815
1098.103886,-3676.279464,-2680.620442,12254.264880
1098.104186,-8424.807105,-8577.985416,15241.241944
1098.104487,-8577.985416,-10952.249236,14628.528700
1098.104787,-5897.364973,-8424.807105,10722.481770
1098.105087,-382.945777,-3599.690308,7429.148083
1098.105415,5514.419196,1684.961421,6663.256528
1098.105711,9650.233593,4288.992708,7735.504705
1098.106007,9267.287815,6050.543284,10875.660081
1098.106303,6893.023995,6663.256528,10875.660081
1098.106600,4901.705952,5897.364973,9956.590215
1098.106896,-1761.550576,1072.248177,11794.729947
1098.107192,-9497.055282,-5361.240885,13709.458834
1098.107488,-15088.063633,-10492.714303,15853.955188
1098.107776,-11411.784169,-8577.985416,12407.443191
1098.108077,-3369.922842,-4212.403552,7735.504705
1098.108378,2144.496354,-382.945777,6663.256528
1098.108679,4671.938485,1684.961421,8195.039638
1098.108980,8348.217949,4442.171019,9650.233593
1098.109281,9650.233593,6050.543284,10109.768526
1098.109581,6739.845684,4748.527641,9420.466126
1098.109882,1072.248177,1072.248177,9803.411904
1098.110191,-6203.721595,-4059.225241,12790.388968
1098.110491,-10492.714303,-10033.179370,14322.172078
1098.110790,-9497.055282,-9880.001059,13403.102212
1098.111089,-3829.457775,-5820.775818,9267.287815
1098.111389,2833.798753,-1455.193954,6663.256528
1098.111688,7582.326394,2757.209598,7582.326394
1098.111988,8807.752882,6050.543284,9420.466126
1098.112287,10569.303459,9114.109504,9420.466126
1098.112594,7888.683016,9420.466126,9267.287815
1098.112894,3140.155375,5131.473418,10109.768526
1098.113193,-4595.349330,-842.480710,11794.729947
1098.113493,-12254.264880,-7352.558928,15700.776877
1098.113793,-14322.172078,-11105.427547,15394.420255
1098.114092,-9726.822748,-9343.876971,11335.195014
1098.114392,-2450.852976,-2986.977064,8654.574571
1098.114692,4365.581863,1531.783110,6663.256528
1098.114988,7275.969772,4825.116796,7812.093861
1098.115286,9114.109504,6510.078217,10262.946837
1098.115584,8041.861327,6816.434839,9420.466126
1098.115883,4365.581863,4135.814397,10109.768526
1098.116181,-2604.031287,-1914.728887,11641.551636
1098.116479,-9037.520349,-8731.163727,14781.707011
1098.116777,-12713.799813,-13709.458834,15700.776877
1098.117075,-7352.558928,-9497.055282,11641.551636
1098.117389,919.069866,-3599.690308,6510.078217
1098.117688,5054.884263,1378.604799,5514.419196
1098.117987,7122.791461,4288.992708,8807.752882
1098.118286,7429.148083,7122.791461,10186.357681
1098.118584,7582.326394,8501.396260,10722.481770
1098.118883,5514.419196,6356.899906,10339.535992
1098.119182,-842.480710,1531.783110,10875.660081
1098.119481,-7122.791461,-4671.938485,13403.102212
1098.119769,-11258.605858,-9726.822748,14168.993767
1098.120069,-10186.357681,-10186.357681,12254.264880
1098.120369,-6510.078217,-7046.202306,9956.590215
1098.120669,-2374.263820,-2680.620442,8348.217949
1098.120968,3293.333686,1225.426488,8501.396260
1098.121268,7122.791461,4442.171019,9803.411904
1098.121568,8501.396260,5744.186662,10569.303459
1098.121868,7275.969772,5591.008351,9573.644437
1098.122168,3906.046930,2910.387909,8807.752882
1098.122467,-3369.922842,-4518.760174,12101.086569
1098.122766,-10492.714303,-11258.605858,15394.420255
1098.123065,-9037.520349,-9726.822748,13939.226301
1098.123365,-2067.907198,-5054.884263,7275.969772
1098.123664,2374.263820,-76.589155,6280.310751
1098.123963,5054.884263,3676.279464,8041.861327
1098.124262,6586.667373,6663.256528,10262.946837
1098.124569,9114.109504,8807.752882,10109.768526
1098.124869,7582.326394,8041.861327,9573.644437
1098.125170,1991.318043,3829.457775,10569.303459
1098.125470,-5131.473418,-1914.728887,12177.675724
1098.125770,-11258.605858,-7965.272172,14475.350389
1098.126070,-13632.869679,-11105.427547,15241.241944
1098.126370,-10799.070925,-9037.520349,12254.264880
1098.126670,-3216.744531,-2221.085509,7735.504705
1098.126990,3446.511997,2450.852976,6280.310751
1098.127287,6586.667373,4442.171019,9114.109504
1098.127584,8195.039638,5744.186662,10875.660081
1098.127881,9267.287815,7888.683016,9420.466126
1098.128178,8807.752882,5897.364973,8807.752882
1098.128475,1684.961421,-382.945777,10875.660081
1098.128772,-6203.721595,-7965.272172,13556.280523
1098.129070,-8884.342038,-10492.714303,13173.334746
1098.129417,-6510.078217,-8424.807105,10875.660081
1098.129712,-1148.837332,-4671.938485,8041.861327
1098.130007,1991.318043,153.178311,7352.558928
1098.130302,5514.419196,4595.349330,8501.396260
1098.130597,6893.023995,6816.434839,9803.411904
1098.130892,5667.597507,6203.721595,11028.838392
1098.131186,2144.496354,4288.992708,10569.303459
1098.131481,-3216.744531,153.178311,11641.551636
1098.131794,-8424.807105,-5667.597507,13096.745590
1098.132090,-11718.140791,-10339.535992,14781.707011
1098.132385,-9880.001059,-10492.714303,12637.210657
1098.132680,-3216.744531,-5667.597507,8501.396260
1098.132976,1531.783110,-1761.550576,7429.148083
1098.133271,5361.240885,919.069866,7888.683016
1098.133566,9497.055282,3982.636086,9114.109504
1098.133861,9420.466126,5437.830040,9114.109504
1098.134161,6739.845684,3676.279464,9803.411904
1098.134462,306.356622,-0.000000,11718.140791
1098.134763,-3829.457775,-4518.760174,12790.388968
1098.135063,-7658.915550,-8884.342038,14015.815456
1098.135364,-9726.822748,-9190.698660,14475.350389
1098.135665,-4825.116796,-5054.884263,9956.590215
1098.135966,2297.674665,1225.426488,6663.256528
1098.136266,6586.667373,4825.116796,6356.899906
1098.136573,6739.845684,6203.721595,9420.466126
1098.136874,5973.954129,6510.078217,11335.195014
1098.137174,4212.403552,5131.473418,11028.838392
1098.137474,1072.248177,1072.248177,11488.373325
1098.137774,-6203.721595,-4212.403552,13096.745590
1098.138075,-10799.070925,-9343.876971,14322.172078
1098.138375,-11564.962480,-10339.535992,14475.350389
1098.138675,-6663.256528,-6893.023995,10722.481770
1098.138955,-995.659021,-1455.193954,7888.683016
1098.139254,4059.225241,2297.674665,6739.845684
1098.139553,6127.132440,4978.295107,8654.574571
1098.139852,7046.202306,6510.078217,11028.838392
1098.140151,6739.845684,7122.791461,9956.590215
1098.140450,5820.775818,5591.008351,9650.233593
1098.140749,-229.767466,765.891555,11335.195014
1098.141048,-6969.613150,-4825.116796,13556.280523
1098.141358,-10186.357681,-7965.272172,13862.637145
1098.141658,-8271.628794,-6586.667373,11718.140791
1098.141958,-2450.852976,-4059.225241,9114.109504
1098.142259,2374.263820,153.178311,7735.504705
1098.142559,7429.148083,4442.171019,7888.683016
1098.142859,10569.303459,7429.148083,8654.574571
1098.143159,9956.590215,6969.613150,9956.590215
1098.143459,6127.132440,4825.116796,11028.838392
1098.143776,-229.767466,612.713244,11335.195014
1098.144074,-5897.364973,-3752.868619,12790.388968
1098.144372,-10645.892614,-8271.628794,14168.993767
1098.144669,-10339.535992,-9650.233593,12254.264880
1098.144967,-5437.830040,-5208.062574,9037.520349
1098.145265,-536.124088,-995.659021,7275.969772
1098.145563,3140.155375,919.069866,7888.683016
1098.145860,4901.705952,3676.279464,9956.590215
1098.146160,7582.326394,5591.008351,10722.481770
1098.146460,7735.504705,5897.364973,8807.752882
1098.146760,3752.868619,2450.852976,9420.466126
1098.147060,-4748.527641,-4212.403552,12407.443191
1098.147360,-10645.892614,-10186.357681,14628.528700
1098.147660,-10799.070925,-11258.605858,14628.528700
1098.147961,-5437.830040,-9037.520349,9573.644437
1098.148261,612.713244,-3140.155375,7429.148083
1098.148551,5667.597507,1531.783110,6739.845684
1098.148850,8501.396260,5437.830040,8501.396260
1098.149149,9114.109504,6969.613150,10569.303459
1098.149447,6280.310751,6816.434839,10262.946837
1098.149746,1531.783110,3829.457775,10875.660081
1098.150045,-4595.349330,-1455.193954,12407.443191
1098.150344,-9190.698660,-7352.558928,14168.993767
1098.150642,-11258.605858,-10339.535992,13862.637145
1098.150949,-7505.737239,-8118.450483,11182.016703
1098.151254,-2374.263820,-3140.155375,8960.931193
1098.151559,3906.046930,1072.248177,7275.969772
1098.151863,6127.132440,3676.279464,8348.217949
1098.152168,6433.489062,5437.830040,10416.125148
1098.152473,5820.775818,4978.295107,9956.590215
1098.152777,3752.868619,3216.744531,9573.644437
1098.153082,-2374.263820,-2221.085509,11488.373325
1098.153364,-8884.342038,-8271.628794,14322.172078
1098.153665,-9880.001059,-9880.001059,14322.172078
1098.153967,-5437.830040,-7199.380617,10492.714303
1098.154268,1072.248177,-1914.728887,6969.613150
1098.154570,3906.046930,1991.318043,7275.969772
1098.154872,5667.597507,4748.527641,8501.396260
1098.155173,8654.574571,7735.504705,9420.466126
1098.155475,8960.931193,9420.466126,9114.109504
1098.155757,6127.132440,6510.078217,9420.466126
1098.156059,-1914.728887,919.069866,11335.195014
1098.156362,-7965.272172,-4212.403552,14322.172078
1098.156664,-11947.908258,-8424.807105,15088.063633
1098.156967,-11564.962480,-9497.055282,12790.388968
1098.157270,-6969.613150,-5973.954129,10109.768526
1098.157572,306.356622,-689.302399,7122.791461
1098.157875,5820.775818,3523.101153,6510.078217
1098.158165,8501.396260,6050.543284,8807.752882
1098.158462,8041.861327,7275.969772,10109.768526
1098.158758,5514.419196,5437.830040,11641.551636
1098.159055,1072.248177,2297.674665,11641.551636
1098.159352,-5131.473418,-3446.511997,12943.567279
1098.159648,-9573.644437,-8271.628794,14092.404612
1098.159945,-8424.807105,-9190.698660,12254.264880
1098.160242,-2757.209598,-5820.775818,8960.931193
1098.160551,4365.581863,-689.302399,6510.078217
1098.160849,7582.326394,2450.852976,6663.256528
1098.161148,8348.217949,4748.527641,9114.109504
1098.161447,8807.752882,6203.721595,9803.411904
1098.161745,6739.845684,6356.899906,9956.590215
1098.162044,2833.798753,4288.992708,11182.016703
1098.162342,-3829.457775,-536.124088,11641.551636
1098.162641,-9880.001059,-5973.954129,13096.745590
1098.162948,-13479.691368,-10033.179370,13862.637145
1098.163247,-11947.908258,-10033.179370,12254.264880
1098.163545,-7505.737239,-6893.023995,10109.768526
1098.163844,-689.302399,-1914.728887,8195.039638
1098.164143,5208.062574,2144.496354,8348.217949
1098.164442,8807.752882,5437.830040,9420.466126
1098.164741,9114.109504,6356.899906,9420.466126
1098.165040,5820.775818,4442.171019,9956.590215
1098.165336,-0.000000,-0.000000,10875.660081
1098.165639,-6969.613150,-5820.775818,13709.458834
1098.165942,-10186.357681,-10186.357681,15088.063633
1098.166245,-6510.078217,-9497.055282,11182.016703
1098.166548,2374.263820,-3906.046930,7582.326394
1098.166851,6739.845684,-0.000000,6127.132440
1098.167154,8807.752882,3369.922842,8195.039638
1098.167456,9267.287815,6663.256528,10262.946837
1098.167751,9420.466126,8807.752882,9803.411904
1098.168048,5973.954129,7735.504705,9956.590215
1098.168345,-1761.550576,2604.031287,11488.373325
1098.168642,-11564.962480,-3906.046930,13862.637145
1098.168938,-17309.149143,-9726.822748,16543.257588
1098.169235,-15394.420255,-10799.070925,14705.117856
1098.169532,-8424.807105,-7505.737239,9956.590215
1098.169829,459.534933,-1914.728887,6510.078217
1098.170197,4748.527641,1684.961421,7122.791461
1098.170489,8501.396260,4978.295107,9114.109504
1098.170780,11335.195014,7888.683016,9956.590215
1098.171071,9803.411904,6816.434839,8654.574571
1098.171363,3906.046930,2450.852976,8807.752882
1098.171654,-3063.566220,-4059.225241,12254.264880
1098.171946,-8577.985416,-9497.055282,14628.528700
1098.172237,-8118.450483,-10799.070925,12943.567279
1098.172536,-4748.527641,-8118.450483,9956.590215
1098.172836,919.069866,-1761.550576,7888.683016
1098.173136,6127.132440,3829.457775,6510.078217
1098.173437,7888.683016,7122.791461,8041.861327
1098.173737,6433.489062,8348.217949,10875.660081
1098.174037,3293.333686,7888.683016,10569.303459
1098.174337,1072.248177,5591.008351,10799.070925
1098.174637,-4595.349330,-76.589155,11258.605858
1098.174944,-10952.249236,-7046.202306,14475.350389
1098.175242,-13786.047990,-10339.535992,15088.063633
1098.175540,-7352.558928,-8118.450483,11028.838392
1098.175838,-536.124088,-4825.116796,7888.683016
1098.176136,3446.511997,-1148.837332,8041.861327
1098.176434,7046.202306,1991.318043,8041.861327
1098.176733,11028.838392,5897.364973,8654.574571
1098.177031,11488.373325,6510.078217,8577.985416
1098.177347,5973.954129,3216.744531,9573.644437
1098.177644,-3063.566220,-2067.907198,11488.373325
1098.177941,-9726.822748,-8424.807105,14322.172078
1098.178238,-11718.140791,-11411.784169,15394.420255
1098.178535,-9573.644437,-10645.892614,12330.854035
1098.178832,-1608.372265,-4212.403552,8348.217949
1098.179129,4671.938485,1225.426488,5820.775818
1098.179426,8041.861327,5284.651729,7275.969772
1098.179745,7888.683016,7122.791461,10262.946837
1098.180043,7429.148083,8041.861327,9880.001059
1098.180341,3599.690308,5744.186662,10569.303459
1098.180639,-2221.085509,306.356622,11794.729947
1098.180938,-9573.644437,-6739.845684,13096.745590
1098.181236,-12713.799813,-11718.140791,15088.063633
1098.181534,-11105.427547,-12024.497413,13249.923901
1098.181832,-4595.349330,-8884.342038,9420.466126
1098.182145,3140.155375,-1302.015643,6969.613150
1098.182444,9803.411904,2757.209598,5820.775818
1098.182742,9267.287815,4825.116796,8884.342038
1098.183041,9650.233593,6816.434839,10109.768526
1098.183339,7275.969772,6050.543284,9420.466126
1098.183638,919.069866,2297.674665,11028.838392
1098.183936,-6969.613150,-4365.581863,13862.637145
1098.184235,-13020.156435,-9726.822748,15930.544344
1098.184534,-11718.140791,-9343.876971,14475.350389
1098.184834,-4595.349330,-4365.581863,9650.233593
1098.185133,765.891555,-229.767466,7275.969772
1098.185432,4901.705952,3523.101153,8348.217949
1098.185731,8348.217949,7275.969772,9343.876971
1098.186031,9956.590215,8960.931193,9573.644437
1098.186330,8348.217949,7735.504705,9420.466126
1098.186629,3906.046930,4748.527641,9880.001059
1098.186936,-2757.209598,153.178311,12101.086569
1098.187233,-9573.644437,-5514.419196,14168.993767
1098.187530,-13632.869679,-9880.001059,15394.420255
1098.187827,-9573.644437,-7658.915550,12254.264880
1098.188124,-2604.031287,-2986.977064,9114.109504
1098.188421,1684.961421,306.356622,6969.613150
1098.188717,4671.938485,3216.744531,8501.396260
1098.189014,7122.791461,6050.543284,9956.590215
1098.189328,9114.109504,7582.326394,8654.574571
1098.189632,7122.791461,5437.830040,9114.109504
1098.189936,-229.767466,-229.767466,11182.016703
1098.190239,-6510.078217,-5667.597507,14398.761234
1098.190543,-8271.628794,-9190.698660,14628.528700
1098.190847,-4748.527641,-7199.380617,10492.714303
1098.191150,765.891555,-3752.868619,7275.969772
1098.191454,3140.155375,-0.000000,6663.256528
1098.191772,4365.581863,2604.031287,8807.752882
1098.192066,5514.419196,4442.171019,10569.303459
1098.192360,5514.419196,5591.008351,10109.768526
1098.192653,3752.868619,4442.171019,9650.233593
1098.192947,-1148.837332,1072.248177,10416.125148
1098.193240,-8118.450483,-4212.403552,14168.993767
1098.193534,-12407.443191,-9497.055282,15700.776877
1098.193827,-11871.319102,-10339.535992,13862.637145
1098.194145,-6510.078217,-7199.380617,9573.644437
1098.194443,1072.248177,-2833.798753,6663.256528
1098.194740,6739.845684,612.713244,6816.434839
1098.195038,9650.233593,3829.457775,8348.217949
1098.195336,9267.287815,4825.116796,9803.411904
1098.195634,7429.148083,4825.116796,9420.466126
1098.195932,3446.511997,2144.496354,10416.125148
1098.196230,-4135.814397,-3599.690308,12560.621502
1098.196529,-11105.427547,-9037.520349,15164.652789
1098.196827,-10799.070925,-10033.179370,14322.172078
1098.197124,-4135.814397,-5208.062574,10186.357681
1098.197422,919.069866,-689.302399,7275.969772
1098.197719,3906.046930,2757.209598,8424.807105
1098.198016,5361.240885,5897.364973,9573.644437
1098.198314,7735.504705,8195.039638,10262.946837
1098.198611,5514.419196,7735.504705,9803.411904
1098.198942,1991.318043,5131.473418,10416.125148
1098.199239,-4442.171019,-536.124088,12254.264880
1098.199536,-7658.915550,-5514.419196,13479.691368
1098.199832,-10339.535992,-10033.179370,13556.280523
1098.200129,-6663.256528,-7352.558928,10875.660081
1098.200426,-229.767466,-3752.868619,7735.504705
1098.200723,3906.046930,-229.767466,6663.256528
1098.201020,5973.954129,2757.209598,7888.683016
1098.201328,7122.791461,6203.721595,9497.055282
1098.201628,8348.217949,6203.721595,8960.931193
1098.201928,5514.419196,4442.171019,9573.644437
1098.202228,-1914.728887,-1148.837332,11794.729947
1098.202527,-10033.179370,-6739.845684,14322.172078
1098.202827,-13173.334746,-10339.535992,15700.776877
1098.203127,-10645.892614,-9190.698660,13632.869679
1098.203427,-2910.387909,-3752.868619,8960.931193
1098.203710,2833.798753,1531.783110,6663.256528
1098.204013,8348.217949,5744.186662,6510.078217
1098.204316,11641.551636,8041.861327,9114.109504
1098.204619,11641.551636,8501.396260,9573.644437
1098.204922,8041.861327,6663.256528,9573.644437
1098.205225,1378.604799,1684.961421,10722.481770
1098.205528,-8118.450483,-4518.760174,14475.350389
1098.205831,-12560.621502,-10033.179370,15700.776877
1098.206112,-13326.513057,-9497.055282,14015.815456
1098.206414,-5591.008351,-5054.884263,9726.822748
1098.206716,612.713244,-76.589155,7429.148083
1098.207018,4671.938485,2450.852976,7199.380617
1098.207320,8195.039638,5284.651729,8960.931193
1098.207622,9267.287815,6663.256528,9650.233593
1098.207924,7122.791461,5437.830040,9803.411904
1098.208226,2297.674665,919.069866,10262.946837
1098.208516,-4595.349330,-4059.225241,12560.621502
1098.208815,-10799.070925,-9190.698660,14168.993767
1098.209114,-10645.892614,-10952.249236,13709.458834
1098.209413,-6816.434839,-7965.272172,10722.481770
1098.209712,-536.124088,-3140.155375,7582.326394
1098.210011,3906.046930,612.713244,7429.148083
1098.210311,6280.310751,3523.101153,9267.287815
1098.210610,9267.287815,7122.791461,9573.644437
1098.210923,9420.466126,7582.326394,9267.287815
1098.211222,6586.667373,5897.364973,9573.644437
1098.211521,-689.302399,306.356622,11182.016703
1098.211820,-8424.807105,-5667.597507,14475.350389
1098.212118,-11411.784169,-9037.520349,14628.528700
1098.212417,-9037.520349,-7199.380617,11641.551636
1098.212716,-4978.295107,-4059.225241,9190.698660
1098.213014,-689.302399,-842.480710,8654.574571
1098.213321,3293.333686,2450.852976,8807.752882
1098.213621,7582.326394,4595.349330,9650.233593
1098.213921,8041.861327,4288.992708,9573.644437
1098.214221,4901.705952,1684.961421,9956.590215
1098.214521,-382.945777,-2221.085509,12254.264880
1098.214820,-5591.008351,-6433.489062,13556.280523
1098.215120,-9190.698660,-9726.822748,14934.885322
1098.215420,-6510.078217,-8424.807105,11794.729947
1098.215716,-842.480710,-2986.977064,7735.504705
1098.216016,3293.333686,919.069866,6663.256528
1098.216316,6280.310751,3829.457775,7735.504705
1098.216615,7122.791461,5437.830040,10109.768526
1098.216915,8195.039638,7888.683016,10339.535992
1098.217215,5973.954129,7122.791461,9650.233593
1098.217514,1225.426488,2757.209598,10033.179370
1098.217814,-6663.256528,-2986.977064,13632.869679
1098.218109,-11871.319102,-7199.380617,15164.652789
1098.218410,-11871.319102,-6586.667373,14322.172078
1098.218710,-6510.078217,-4901.705952,9803.411904
1098.219011,-1455.193954,-1148.837332,7122.791461
1098.219312,1378.604799,459.534933,8577.985416
1098.219613,4901.705952,3216.744531,9420.466126
1098.219914,8960.931193,4978.295107,9190.698660
1098.220215,10875.660081,5744.186662,8501.396260
1098.220503,6280.310751,2604.031287,9803.411904
1098.220804,-842.480710,-2221.085509,12024.497413
1098.221105,-7505.737239,-7658.915550,13862.637145
1098.221405,-8424.807105,-8271.628794,12866.978124
1098.221706,-5744.186662,-5054.884263,9956.590215
1098.222007,-1148.837332,-995.659021,7735.504705
1098.222308,3446.511997,1991.318043,7582.326394
1098.222608,6586.667373,3982.636086,8960.931193
1098.222918,8195.039638,5437.830040,10262.946837
1098.223214,7046.202306,5591.008351,9956.590215
1098.223510,3752.868619,3982.636086,9956.590215
1098.223806,-3216.744531,-842.480710,12407.443191
1098.224102,-9880.001059,-5973.954129,13862.637145
1098.224398,-15088.063633,-9880.001059,14934.885322
1098.224694,-10952.249236,-9037.520349,12560.621502
1098.224990,-2910.387909,-4901.705952,8424.807105
1098.225297,4059.225241,-1455.193954,6816.434839
1098.225596,7735.504705,1531.783110,7429.148083
1098.225895,9956.590215,3369.922842,9573.644437
1098.226194,8501.396260,3523.101153,10109.768526
1098.226493,4365.581863,1684.961421,10875.660081
1098.226792,-2374.263820,-995.659021,11794.729947
1098.227091,-7352.558928,-5361.240885,13096.745590
1098.227390,-10033.179370,-8424.807105,14705.117856
1098.227706,-8577.985416,-7965.272172,12713.799813
1098.228004,-2757.209598,-4671.938485,9573.644437
1098.228301,3752.868619,612.713244,7122.791461
1098.228599,7046.202306,3829.457775,7658.915550
1098.228897,7046.202306,5591.008351,10186.357681
1098.229194,8348.217949,7888.683016,9956.590215
1098.229492,8195.039638,7582.326394,8807.752882
1098.229790,2680.620442,2450.852976,9956.590215
1098.230104,-6203.721595,-5054.884263,14168.993767
1098.230403,-11411.784169,-9650.233593,15853.955188
1098.230702,-10033.179370,-9190.698660,13096.745590
1098.231000,-5131.473418,-6893.023995,9803.411904
1098.231299,-2067.907198,-2986.977064,7888.683016
1098.231598,1225.426488,1225.426488,7582.326394
1098.231897,3752.868619,4135.814397,8960.931193
1098.232195,6280.310751,6356.899906,9573.644437
1098.232483,7275.969772,6050.543284,10262.946837
1098.232786,4901.705952,4442.171019,10033.179370
1098.233088,-229.767466,-0.000000,11488.373325
1098.233391,-7122.791461,-6433.489062,14322.172078
1098.233693,-10033.179370,-9190.698660,14781.707011
1098.233996,-7199.380617,-5973.954129,11182.016703
1098.234298,-536.124088,-689.302399,7275.969772
1098.234600,2833.798753,1684.961421,7582.326394
1098.234900,5208.062574,3676.279464,9573.644437
1098.235199,8348.217949,7122.791461,10262.946837
1098.235499,9114.109504,7888.683016,9420.466126
1098.235798,6433.489062,5437.830040,9573.644437
1098.236097,-995.659021,459.534933,12560.621502
1098.236396,-8424.807105,-4365.581863,14628.528700
1098.236696,-11718.140791,-7658.915550,15011.474478
1098.236995,-10952.249236,-7658.915550,12560.621502
1098.237302,-4825.116796,-4212.403552,9420.466126
1098.237601,1378.604799,-689.302399,6510.078217
1098.237900,6893.023995,1838.139732,7275.969772
1098.238200,9650.233593,2910.387909,9420.466126
1098.238499,10416.125148,3523.101153,9650.233593
1098.238798,8654.574571,3063.566220,9114.109504
1098.239098,2527.442131,-382.945777,9420.466126
1098.239397,-6510.078217,-6893.023995,12254.264880
1098.239717,-13632.869679,-11411.784169,15547.598566
1098.240014,-11947.908258,-10799.070925,12790.388968
1098.240311,-6510.078217,-8118.450483,9420.466126
1098.240608,765.891555,-2986.977064,7582.326394
1098.240905,6586.667373,919.069866,7122.791461
1098.241202,8348.217949,5591.008351,9114.109504
1098.241499,9650.233593,7888.683016,9573.644437
1098.241796,7275.969772,8041.861327,9956.590215
1098.242115,1531.783110,3676.279464,10875.660081
1098.242413,-6969.613150,-1455.193954,13096.745590
1098.242712,-12101.086569,-7658.915550,15088.063633
1098.243010,-11105.427547,-9726.822748,14475.350389
1098.243308,-4288.992708,-7658.915550,9803.411904
1098.243606,1838.139732,-2833.798753,7429.148083
1098.243904,5820.775818,1072.248177,8195.039638
1098.244203,7735.504705,3523.101153,9114.109504
1098.244516,8807.752882,5591.008351,9650.233593
1098.244812,6893.023995,6050.543284,9420.466126
1098.245108,919.069866,3063.566220,10262.946837
1098.245404,-6510.078217,-2527.442131,13249.923901
1098.245700,-11411.784169,-8424.807105,15164.652789
1098.245996,-11947.908258,-10186.357681,15241.241944
1098.246292,-6969.613150,-7199.380617,10875.660081
1098.246588,2374.263820,-689.302399,7582.326394
1098.246887,8348.217949,3982.636086,5361.240885
1098.247188,9956.590215,6510.078217,7122.791461
1098.247489,8807.752882,8348.217949,9267.287815
1098.247790,6280.310751,7429.148083,9956.590215
1098.248091,1378.604799,4288.992708,11182.016703
1098.248391,-5437.830040,-1608.372265,12943.567279
1098.248692,-12101.086569,-7046.202306,14781.707011
1098.248993,-12407.443191,-9880.001059,14934.885322
1098.249300,-8271.628794,-7658.915550,11718.140791
1098.249597,-229.767466,-2374.263820,7888.683016
1098.249894,5667.597507,2910.387909,6356.899906
1098.250191,9114.109504,6050.543284,6969.613150
1098.250488,10722.481770,6816.434839,8195.039638
1098.250784,8807.752882,5897.364973,9803.411904
1098.251081,4671.938485,3829.457775,9956.590215
1098.251378,-2450.852976,-842.480710,11718.140791
1098.251692,-9343.876971,-7658.915550,14168.993767
1098.251995,-13479.691368,-10492.714303,14781.707011
1098.252298,-11411.784169,-10186.357681,12866.978124
1098.252601,-4978.295107,-6127.132440,9420.466126
1098.252903,2680.620442,-689.302399,7275.969772
1098.253206,8960.931193,3829.457775,6816.434839
1098.253509,10416.125148,7122.791461,8807.752882
1098.253812,12024.497413,8041.861327,9267.287815
1098.254130,9420.466126,6510.078217,8960.931193
1098.254426,2144.496354,1072.248177,11028.838392
1098.254722,-7352.558928,-4671.938485,13096.745590
1098.255018,-13632.869679,-10186.357681,15088.063633
1098.255314,-14628.528700,-12637.210657,15011.474478
1098.255611,-8271.628794,-9650.233593,11488.373325
1098.255907,306.356622,-2221.085509,8118.450483
1098.256203,7046.202306,2910.387909,6280.310751
1098.256475,9114.109504,5131.473418,7582.326394
1098.256776,8960.931193,6510.078217,10109.768526
1098.257077,7735.504705,6816.434839,10109.768526
1098.257378,3599.690308,3982.636086,9650.233593
1098.257679,-4748.527641,-1914.728887,12254.264880
1098.257980,-11871.319102,-8118.450483,14781.707011
1098.258281,-13479.691368,-11258.605858,14781.707011
1098.258582,-10645.892614,-10492.714303,12713.799813
1098.258881,-2374.263820,-5054.884263,8960.931193
1098.259181,4748.527641,612.713244,6663.256528
1098.259482,9803.411904,5284.651729,6663.256528
1098.259782,11871.319102,8041.861327,8577.985416
1098.260082,9956.590215,8501.396260,9956.590215
1098.260382,6893.023995,5437.830040,9956.590215
1098.260682,306.356622,-76.589155,10416.125148
1098.260982,-8271.628794,-7658.915550,13249.923901
1098.261272,-12713.799813,-11871.319102,15394.420255
1098.261571,-10339.535992,-10799.070925,12484.032346
1098.261870,-3829.457775,-5667.597507,9267.287815
1098.262169,459.534933,-1148.837332,8041.861327
1098.262467,3752.868619,3063.566220,8807.752882
1098.262766,5973.954129,6816.434839,9650.233593
1098.263065,7429.148083,8654.574571,9420.466126
1098.263363,5973.954129,7122.791461,9650.233593
1098.263671,-76.589155,1531.783110,11488.373325
1098.263975,-6816.434839,-5208.062574,13249.923901
1098.264280,-9726.822748,-8884.342038,14475.350389
1098.264584,-8884.342038,-9497.055282,12790.388968
1098.264889,-3982.636086,-6433.489062,9650.233593
1098.265194,1378.604799,-382.945777,7505.737239
1098.265498,5054.884263,3829.457775,7582.326394
1098.265803,7888.683016,6816.434839,9573.644437
1098.266086,10722.481770,8960.931193,9267.287815
1098.266383,9497.055282,8960.931193,8807.752882
1098.266679,5361.240885,4442.171019,9267.287815
1098.266975,-3982.636086,-2986.977064,12560.621502
1098.267272,-10033.179370,-9037.520349,15700.776877
1098.267568,-10952.249236,-10339.535992,13709.458834
1098.267864,-7122.791461,-7352.558928,10262.946837
1098.268161,-229.767466,-2221.085509,7582.326394
1098.268488,4901.705952,1378.604799,7275.969772
1098.268784,7735.504705,4595.349330,7735.504705
1098.269080,7275.969772,5591.008351,8654.574571
1098.269377,4212.403552,3829.457775,10033.179370
1098.269673,-536.124088,153.178311,11488.373325
1098.269969,-7122.791461,-4671.938485,13556.280523
1098.270265,-12407.443191,-9880.001059,14781.707011
1098.270562,-13326.513057,-11564.962480,15088.063633
1098.270930,-7122.791461,-8577.985416,12101.086569
1098.271222,2680.620442,-1608.372265,7122.791461
1098.271515,8654.574571,4135.814397,5973.954129
1098.271807,11028.838392,6663.256528,7429.148083
1098.272099,10262.946837,8041.861327,9267.287815
1098.272391,8654.574571,7888.683016,10262.946837
1098.272683,4518.760174,5131.473418,10722.481770
1098.272975,-2221.085509,-382.945777,11182.016703
1098.273284,-8424.807105,-7199.380617,13403.102212
1098.273583,-10952.249236,-10645.892614,14934.885322
1098.273881,-8118.450483,-10339.535992,12407.443191
1098.274180,-4288.992708,-6127.132440,9803.411904
1098.274478,-1148.837332,-1914.728887,8654.574571
1098.274777,2833.798753,3063.566220,8118.450483
1098.275075,5667.597507,6050.543284,9267.287815
1098.275374,5667.597507,6203.721595,9267.287815
1098.275681,3906.046930,4288.992708,10109.768526
1098.275981,-229.767466,-76.589155,10645.892614
1098.276280,-4135.814397,-6586.667373,12560.621502
1098.276580,-9343.876971,-11564.962480,15394.420255
1098.276880,-9343.876971,-11871.319102,13403.102212
1098.277180,-3982.636086,-7046.202306,9803.411904
1098.277479,2986.977064,-229.767466,6203.721595
1098.277779,8041.861327,5131.473418,5820.775818
1098.278076,8960.931193,8195.039638,8195.039638
1098.278375,9267.287815,9573.644437,9650.233593
1098.278673,7888.683016,8654.574571,10416.125148
1098.278972,3906.046930,5131.473418,10875.660081
1098.279271,-4825.116796,-1148.837332,13862.637145
1098.279570,-10952.249236,-5973.954129,14628.528700
1098.279869,-12866.978124,-7658.915550,14475.350389
1098.280168,-9037.520349,-6586.667373,10875.660081
1098.280462,-4135.814397,-2680.620442,9114.109504
1098.280763,1225.426488,1225.426488,8654.574571
1098.281063,6280.310751,4825.116796,8195.039638
1098.281363,9497.055282,7429.148083,9650.233593
1098.281663,9956.590215,8348.217949,9650.233593
1098.281963,6127.132440,5284.651729,10416.125148
1098.282264,-382.945777,459.534933,10569.303459
1098.282564,-6510.078217,-5820.775818,12407.443191
1098.282852,-10952.249236,-10799.070925,14475.350389
1098.283152,-8884.342038,-10645.892614,12407.443191
1098.283452,-842.480710,-5361.240885,8807.752882
1098.283752,5208.062574,-229.767466,6510.078217
1098.284052,7735.504705,2450.852976,7888.683016
1098.284352,8654.574571,6203.721595,9956.590215
1098.284652,8195.039638,8501.396260,8807.752882
1098.284952,4901.705952,5284.651729,9114.109504
1098.285251,-2757.209598,-536.124088,10875.660081
1098.285551,-10799.070925,-6586.667373,14322.172078
1098.285851,-14092.404612,-11258.605858,15930.544344
1098.286151,-10645.892614,-10492.714303,13403.102212
1098.286451,-3676.279464,-6433.489062,9114.109504
1098.286751,1838.139732,-1455.193954,7735.504705
1098.287051,5820.775818,2757.209598,7888.683016
1098.287351,8195.039638,5744.186662,8960.931193
1098.287659,9420.466126,7122.791461,9267.287815
1098.287957,6893.023995,4748.527641,9114.109504
1098.288256,1072.248177,306.356622,10416.125148
1098.288555,-5744.186662,-6586.667373,12943.567279
1098.288854,-10645.892614,-11718.140791,15394.420255
1098.289153,-9573.644437,-11871.319102,13249.923901
1098.289452,-4978.295107,-6739.845684,9573.644437
1098.289751,1991.318043,-1455.193954,7505.737239
1098.290067,5514.419196,3676.279464,7275.969772
1098.290364,7429.148083,6663.256528,9420.466126
1098.290661,8807.752882,9267.287815,8960.931193
1098.290958,6433.489062,7275.969772,9420.466126
1098.291255,2374.263820,1684.961421,11182.016703
1098.291552,-6356.899906,-4901.705952,13249.923901
1098.291850,-11258.605858,-9650.233593,14934.885322
1098.292147,-10492.714303,-10339.535992,13709.458834
1098.292465,-6050.543284,-7505.737239,11335.195014
1098.292765,-76.589155,-1455.193954,8424.807105
1098.293064,4518.760174,3829.457775,7122.791461
1098.293364,5820.775818,6356.899906,9114.109504
1098.293664,5667.597507,7582.326394,10416.125148
1098.293963,4059.225241,7582.326394,10875.660081
1098.294263,2986.977064,5897.364973,10645.892614
1098.294563,-1302.015643,1531.783110,11794.729947
1098.294851,-7352.558928,-4365.581863,13862.637145
1098.295151,-10492.714303,-7965.272172,14168.993767
1098.295450,-7352.558928,-7352.558928,11641.551636
1098.295750,-1608.372265,-4059.225241,8041.861327
1098.296050,2680.620442,-995.659021,7735.504705
1098.296350,6586.667373,3369.922842,7429.148083
1098.296650,9803.411904,6203.721595,8960.931193
1098.296950,10109.768526,6816.434839,8577.985416
1098.297250,8041.861327,4748.527641,9650.233593
1098.297549,1991.318043,459.534933,11335.195014
1098.297848,-5437.830040,-4825.116796,12560.621502
1098.298147,-10645.892614,-9880.001059,14475.350389
1098.298446,-11258.605858,-10492.714303,12790.388968
1098.298746,-6510.078217,-6433.489062,9726.822748
1098.299045,-536.124088,-1455.193954,7888.683016
1098.299344,3140.155375,1991.318043,7122.791461
1098.299651,5973.954129,5131.473418,9803.411904
1098.299954,8041.861327,6663.256528,9956.590215
1098.300256,7429.148083,6510.078217,10109.768526
1098.300559,2833.798753,1838.139732,10569.303459
1098.300861,-3216.744531,-2374.263820,12407.443191
1098.301164,-9190.698660,-7658.915550,14475.350389
1098.301467,-10033.179370,-10033.179370,13326.513057
1098.301769,-6203.721595,-7352.558928,10569.303459
1098.302043,-229.767466,-2986.977064,7582.326394
1098.302347,3752.868619,-0.000000,7735.504705
1098.302651,5667.597507,2910.387909,9573.644437
1098.302954,8041.861327,6050.543284,9726.822748
1098.303258,7582.326394,7429.148083,9420.466126
1098.303562,4748.527641,4825.116796,9650.233593
1098.303865,-2221.085509,-536.124088,10952.249236
1098.304169,-7122.791461,-5667.597507,13403.102212
1098.304442,-10952.249236,-10339.535992,14168.993767
1098.304741,-8884.342038,-9497.055282,12101.086569
1098.305041,-3216.744531,-5820.775818,8654.574571
1098.305340,765.891555,-1455.193954,7582.326394
1098.305639,3293.333686,1225.426488,9114.109504
1098.305938,4212.403552,3216.744531,11182.016703
1098.306238,5973.954129,4978.295107,10262.946837
1098.306537,5208.062574,4135.814397,9803.411904
1098.306854,-0.000000,-229.767466,12101.086569
1098.307153,-5897.364973,-5208.062574,14475.350389
1098.307451,-9190.698660,-8577.985416,14934.885322
1098.307750,-5437.830040,-6280.310751,11411.784169
1098.308049,459.534933,-2067.907198,7582.326394
1098.308347,3752.868619,1991.318043,7275.969772
1098.308646,7582.326394,5437.830040,7888.683016
1098.308944,9497.055282,7735.504705,9267.287815
1098.309244,9420.466126,8501.396260,9803.411904
1098.309545,5361.240885,5284.651729,10416.125148
1098.309846,-1914.728887,-0.000000,11641.551636
1098.310146,-7965.272172,-5054.884263,13403.102212
1098.310447,-11564.962480,-9343.876971,14168.993767
1098.310748,-11105.427547,-9726.822748,12484.032346
1098.311049,-5437.830040,-6127.132440,8960.931193
1098.311349,306.356622,-1148.837332,7735.504705
1098.311656,3293.333686,1378.604799,8884.342038
1098.311953,5361.240885,4288.992708,9803.411904
1098.312250,6893.023995,6356.899906,9650.233593
1098.312547,6433.489062,7122.791461,8960.931193
1098.312844,2297.674665,3523.101153,9956.590215
1098.313141,-5284.651729,-2067.907198,12713.799813
1098.313438,-10339.535992,-7352.558928,14168.993767
1098.313735,-9573.644437,-9650.233593,13249.923901
1098.314048,-4595.349330,-7658.915550,9573.644437
1098.314346,2527.442131,-2986.977064,7582.326394
1098.314643,7046.202306,1225.426488,7275.969772
1098.314941,9420.466126,4748.527641,9114.109504
1098.315238,11028.838392,7275.969772,9726.822748
1098.315535,10569.303459,8654.574571,9343.876971
1098.315833,7046.202306,6356.899906,9267.287815
1098.316130,-1455.193954,1072.248177,10416.125148
1098.316447,-9037.520349,-5054.884263,13862.637145
1098.316749,-14092.404612,-9726.822748,14628.528700
1098.317052,-12254.264880,-10799.070925,13096.745590
1098.317354,-8271.628794,-8577.985416,11182.016703
1098.317657,-1761.550576,-3293.333686,8501.396260
1098.317959,4748.527641,1991.318043,7888.683016
1098.318262,7735.504705,5437.830040,8807.752882
1098.318564,7429.148083,6356.899906,10109.768526
1098.318878,4365.581863,4978.295107,10569.303459
1098.319172,-382.945777,1072.248177,12101.086569
1098.319467,-6510.078217,-5208.062574,13096.745590
1098.319761,-10799.070925,-10339.535992,13709.458834
1098.320055,-8118.450483,-10339.535992,11794.729947
1098.320350,-995.659021,-6433.489062,8348.217949
1098.320644,4518.760174,-2374.263820,7888.683016
1098.320939,8348.217949,2604.031287,7888.683016
1098.321239,9803.411904,6203.721595,9573.644437
1098.321538,10416.125148,9114.109504,9726.822748
1098.321837,7046.202306,8501.396260,9573.644437
1098.322136,-536.124088,4288.992708,11028.838392
1098.322435,-8271.628794,-2221.085509,12943.567279
1098.322734,-12101.086569,-6586.667373,14475.350389
1098.323034,-12254.264880,-9497.055282,13479.691368
1098.323333,-6816.434839,-8118.450483,9956.590215
1098.323619,-995.659021,-3752.868619,8348.217949
1098.323921,3293.333686,306.356622,7888.683016
1098.324224,6586.667373,3829.457775,9497.055282
1098.324527,9497.055282,6510.078217,9573.644437
1098.324830,9420.466126,7582.326394,8195.039638
1098.325132,3599.690308,2757.209598,9650.233593
1098.325435,-4978.295107,-2833.798753,13173.334746
1098.325738,-10645.892614,-9726.822748,15317.831100
1098.326045,-11564.962480,-11105.427547,14322.172078
1098.326342,-7352.558928,-8577.985416,11335.195014
1098.326639,765.891555,-1302.015643,6969.613150
1098.326936,7046.202306,3829.457775,6203.721595
1098.327234,8501.396260,7122.791461,9267.287815
1098.327531,9650.233593,9650.233593,9573.644437
1098.327828,8960.931193,10416.125148,9267.287815
1098.328125,5514.419196,7122.791461,9037.520349
1098.328455,-4595.349330,-1148.837332,12790.388968
1098.328751,-11718.140791,-7505.737239,15394.420255
1098.329048,-13786.047990,-10492.714303,15088.063633
1098.329344,-9880.001059,-9497.055282,11794.729947
1098.329640,-2221.085509,-4901.705952,9037.520349
1098.329937,3293.333686,459.534933,7582.326394
1098.330233,8654.574571,4825.116796,6663.256528
1098.330529,9956.590215,7582.326394,8960.931193
1098.330824,8654.574571,7275.969772,9803.411904
1098.331125,4671.938485,4748.527641,9573.644437
1098.331426,-2450.852976,-229.767466,11105.427547
1098.331727,-9190.698660,-7658.915550,13249.923901
1098.332028,-13326.513057,-11718.140791,15853.955188
1098.332329,-8731.163727,-10339.535992,12407.443191
1098.332629,-1455.193954,-6127.132440,7735.504705
1098.332930,4518.760174,-1148.837332,6816.434839
1098.333218,8807.752882,3063.566220,6816.434839
1098.333519,9650.233593,6663.256528,8960.931193
1098.333820,9803.411904,7888.683016,8807.752882
1098.334121,5208.062574,5591.008351,9956.590215
1098.334422,-2450.852976,612.713244,11794.729947
1098.334723,-10186.357681,-5208.062574,14015.815456
1098.335023,-14475.350389,-10033.179370,15700.776877
1098.335324,-13173.334746,-10033.179370,14781.707011
1098.335610,-5284.651729,-5820.775818,9803.411904
1098.335913,2986.977064,153.178311,6510.078217
1098.336215,8195.039638,4978.295107,6510.078217
1098.336518,8960.931193,6203.721595,8195.039638
1098.336821,8195.039638,6510.078217,10262.946837
1098.337124,5208.062574,4135.814397,11028.838392
1098.337426,-0.000000,-229.767466,12330.854035
1098.337729,-6356.899906,-5667.597507,13403.102212
1098.338036,-9573.644437,-10339.535992,12866.978124
1098.338336,-9343.876971,-11871.319102,14015.815456
1098.338636,-4825.116796,-9343.876971,10722.481770
1098.338935,3293.333686,-2067.907198,7275.969772
1098.339235,7582.326394,3829.457775,5820.775818
1098.339535,8041.861327,6050.543284,7735.504705
1098.339834,7735.504705,8501.396260,10109.768526
1098.340134,7275.969772,9420.466126,9420.466126
1098.340464,3906.046930,6510.078217,9650.233593
1098.340756,-3676.279464,-536.124088,12101.086569
1098.341049,-10186.357681,-6127.132440,14781.707011
1098.341341,-12407.443191,-10492.714303,15241.241944
1098.341634,-9573.644437,-9037.520349,12101.086569
1098.341927,-2910.387909,-4365.581863,8960.931193
1098.342219,1838.139732,153.178311,7429.148083
1098.342512,5361.240885,4748.527641,7429.148083
1098.342826,8654.574571,8501.396260,8348.217949
1098.343125,7888.683016,8041.861327,9573.644437
1098.343424,4212.403552,4748.527641,11028.838392
1098.343723,-536.124088,1378.604799,11641.551636
1098.344021,-5284.651729,-2527.442131,12560.621502
1098.344320,-10645.892614,-8424.807105,14781.707011
1098.344619,-9037.520349,-9037.520349,13709.458834
1098.344917,-1148.837332,-4212.403552,8807.752882
1098.345206,6127.132440,-229.767466,5667.597507
1098.345506,9420.466126,1838.139732,6510.078217
1098.345806,9497.055282,4135.814397,9880.001059
1098.346106,10875.660081,5897.364973,9573.644437
1098.346406,8195.039638,5897.364973,9114.109504
1098.346706,1072.248177,1378.604799,10875.660081
1098.347006,-7658.915550,-4212.403552,13862.637145
1098.347306,-13632.869679,-8577.985416,14781.707011
1098.347605,-15547.598566,-10799.070925,14015.815456
1098.347905,-11564.962480,-10492.714303,12024.497413
1098.348204,-3982.636086,-5361.240885,8960.931193
1098.348503,4212.403552,919.069866,7275.969772
1098.348802,8807.752882,3982.636086,8424.807105
1098.349102,9497.055282,6663.256528,9267.287815
1098.349401,8654.574571,7122.791461,9114.109504
1098.349700,3752.868619,3982.636086,10109.768526
1098.350007,-3829.457775,-2680.620442,11794.729947
1098.350307,-11871.319102,-9343.876971,15088.063633
1098.350607,-11411.784169,-11871.319102,13862.637145
1098.350907,-5897.364973,-10645.892614,10569.303459
1098.351207,3446.511997,-4365.581863,7122.791461
1098.351507,8195.039638,153.178311,6280.310751
1098.351807,10109.768526,4288.992708,8348.217949
1098.352107,9803.411904,7275.969772,9420.466126
1098.352457,7582.326394,8501.396260,10109.768526
1098.352751,3140.155375,6203.721595,10109.768526
1098.353045,-4825.116796,-0.000000,11488.373325
1098.353338,-10799.070925,-5361.240885,13939.226301
1098.353632,-13632.869679,-9343.876971,15164.652789
1098.353926,-10645.892614,-9037.520349,13326.513057
1098.354219,-3982.636086,-5054.884263,9956.590215
1098.354513,2374.263820,-382.945777,7812.093861
1098.354832,6586.667373,3369.922842,7735.504705
1098.355130,8960.931193,6050.543284,7812.093861
1098.355428,8960.931193,7122.791461,9573.644437
1098.355726,5208.062574,4825.116796,10262.946837
1098.356025,-76.589155,-76.589155,11488.373325
1098.356323,-7199.380617,-4825.116796,13862.637145
1098.356621,-11411.784169,-7812.093861,15394.420255
1098.356919,-9726.822748,-6586.667373,13096.745590
1098.357232,-2604.031287,-1914.728887,9267.287815
1098.357528,4212.403552,4442.171019,7429.148083
1098.357824,8348.217949,6356.899906,6356.899906
1098.358120,8960.931193,9267.287815,8501.396260
1098.358416,11182.016703,8501.396260,8501.396260
1098.358713,7122.791461,5591.008351,10262.946837
1098.359009,-842.480710,-76.589155,12407.443191
1098.359305,-7352.558928,-5514.419196,13709.458834
1098.359604,-11258.605858,-9650.233593,14168.993767
1098.359905,-11258.605858,-10492.714303,12790.388968
1098.360206,-6510.078217,-8271.628794,9803.411904
1098.360506,-382.945777,-3293.333686,7275.969772
1098.360807,6280.310751,1684.961421,6510.078217
1098.361108,8041.861327,2604.031287,7888.683016
1098.361409,6893.023995,3523.101153,9803.411904
1098.361709,6739.845684,4288.992708,9650.233593
1098.362017,4059.225241,3216.744531,9420.466126
1098.362313,-3063.566220,-1761.550576,11641.551636
1098.362610,-11258.605858,-7046.202306,15241.241944
1098.362907,-12713.799813,-8577.985416,15241.241944
1098.363204,-7658.915550,-6586.667373,11488.373325
1098.363501,-382.945777,-2221.085509,8501.396260
1098.363798,4059.225241,1378.604799,8654.574571
1098.364095,8348.217949,5591.008351,7735.504705
1098.364409,10569.303459,8501.396260,8501.396260
1098.364711,9267.287815,7888.683016,9726.822748
1098.365014,4059.225241,4825.116796,11335.195014
1098.365317,-1455.193954,765.891555,12101.086569
1098.365620,-6663.256528,-3906.046930,12254.264880
1098.365922,-13326.513057,-9497.055282,14934.885322
1098.366225,-12866.978124,-10645.892614,13709.458834
1098.366528,-5284.651729,-5820.775818,9803.411904
1098.366801,1684.961421,-842.480710,6816.434839
1098.367103,6127.132440,765.891555,6969.613150
1098.367406,7275.969772,2297.674665,9114.109504
1098.367709,10569.303459,4748.527641,9114.109504
1098.368011,9420.466126,3829.457775,8960.931193
1098.368314,765.891555,-1608.372265,11335.195014
1098.368617,-7812.093861,-6739.845684,14015.815456
1098.368919,-13479.691368,-9650.233593,15241.241944
1098.369236,-12866.978124,-9343.876971,12943.567279
1098.369542,-8118.450483,-6433.489062,10722.481770
1098.369848,-689.302399,-995.659021,8195.039638
1098.370154,7122.791461,6203.721595,6969.613150
1098.370460,11871.319102,9573.644437,7582.326394
1098.370766,12790.388968,10875.660081,9114.109504
1098.371072,10722.481770,10262.946837,9573.644437
1098.371378,5054.884263,5437.830040,9956.590215
1098.371584,-5131.473418,-2221.085509,12713.799813
1098.371886,-14245.582923,-10339.535992,15547.598566
1098.372188,-14322.172078,-11411.784169,14781.707011
1098.372490,-7352.558928,-8577.985416,10416.125148
1098.372792,-76.589155,-4059.225241,7582.326394
1098.373094,4365.581863,-0.000000,8348.217949
1098.373396,7429.148083,4288.992708,8807.752882
1098.373698,9497.055282,7122.791461,8577.985416
1098.373989,8041.861327,6203.721595,9343.876971
1098.374287,3140.155375,3216.744531,10186.357681
1098.374586,-4748.527641,-1455.193954,12943.567279
1098.374885,-9726.822748,-6433.489062,14322.172078
1098.375184,-10033.179370,-7965.272172,14015.815456
1098.375482,-6510.078217,-7352.558928,12254.264880
1098.375781,-229.767466,-2680.620442,8807.752882
1098.376080,4365.581863,1684.961421,7275.969772
1098.376387,7888.683016,5437.830040,7582.326394
1098.376691,10109.768526,7582.326394,8654.574571
1098.376996,8807.752882,7275.969772,9573.644437
1098.377301,4518.760174,5284.651729,10262.946837
1098.377605,-1914.728887,153.178311,12330.854035
1098.377910,-8884.342038,-5361.240885,14015.815456
1098.378215,-13173.334746,-8731.163727,14781.707011
1098.378519,-11718.140791,-8271.628794,13096.745590
1098.378808,-5284.651729,-3446.511997,9420.466126
1098.379108,2374.263820,306.356622,6510.078217
1098.379409,6280.310751,2910.387909,6510.078217
1098.379710,8348.217949,4135.814397,8195.039638
1098.380010,9420.466126,4442.171019,8501.396260
1098.380311,7275.969772,1072.248177,9343.876971
1098.380612,-1455.193954,-5054.884263,12637.210657
1098.380912,-8271.628794,-10492.714303,14781.707011
1098.381194,-11871.319102,-12330.854035,14015.815456
1098.381497,-9497.055282,-10952.249236,12407.443191
1098.381799,-3829.457775,-6280.310751,9267.287815
1098.382102,2144.496354,-995.659021,7122.791461
1098.382405,8501.396260,4442.171019,6969.613150
1098.382707,10569.303459,6510.078217,7888.683016
1098.383010,10262.946837,7275.969772,9573.644437
1098.383313,6893.023995,6816.434839,10569.303459
1098.383603,612.713244,3216.744531,11718.140791
1098.383902,-7965.272172,-1914.728887,14398.761234
1098.384201,-13786.047990,-6127.132440,16083.722655
1098.384500,-14245.582923,-6433.489062,14628.528700
1098.384799,-8271.628794,-3293.333686,11182.016703
1098.385098,-536.124088,-536.124088,7888.683016
1098.385397,4901.705952,3216.744531,8041.861327
1098.385696,9267.287815,5437.830040,8501.396260
1098.385982,11028.838392,6816.434839,8807.752882
1098.386281,9650.233593,5897.364973,9114.109504
1098.386579,3752.868619,2604.031287,10416.125148
1098.386878,-5131.473418,-2527.442131,12484.032346
1098.387177,-12101.086569,-6893.023995,14934.885322
1098.387475,-13020.156435,-8577.985416,14781.707011
1098.387774,-7965.272172,-6586.667373,11718.140791
1098.388072,1684.961421,-689.302399,6816.434839
1098.388379,7582.326394,3523.101153,5361.240885
1098.388679,11641.551636,6050.543284,6280.310751
1098.388978,10722.481770,6203.721595,8501.396260
1098.389278,7582.326394,5437.830040,9573.644437
1098.389578,2833.798753,1531.783110,10416.125148
1098.389878,-4442.171019,-3446.511997,12407.443191
1098.390177,-10186.357681,-7965.272172,14475.350389
1098.390477,-11947.908258,-9880.001059,15011.474478
1098.390773,-7965.272172,-7658.915550,12330.854035
1098.391073,-2450.852976,-3446.511997,8654.574571
1098.391373,1225.426488,-76.589155,7275.969772
1098.391672,3446.511997,3676.279464,8041.861327
1098.391972,5208.062574,6050.543284,9650.233593
1098.392271,6127.132440,7429.148083,9573.644437
1098.392571,5054.884263,6203.721595,10109.768526
1098.392870,-76.589155,1225.426488,11335.195014
1098.393198,-6969.613150,-4518.760174,14015.815456
1098.393497,-11718.140791,-9190.698660,16696.435899
1098.393795,-8271.628794,-9880.001059,13096.745590
1098.394094,-689.302399,-6739.845684,8654.574571
1098.394393,5208.062574,-2986.977064,6280.310751
1098.394692,9267.287815,1378.604799,6663.256528
1098.394991,11488.373325,4595.349330,8195.039638
1098.395289,12484.032346,6510.078217,8041.861327
1098.395578,7582.326394,4748.527641,9880.001059
1098.395878,-536.124088,765.891555,12407.443191
1098.396179,-8884.342038,-3752.868619,14015.815456
1098.396480,-15241.241944,-9037.520349,15700.776877
1098.396781,-15241.241944,-9343.876971,14781.707011
1098.397081,-10799.070925,-6433.489062,11718.140791
1098.397382,-1148.837332,-1455.193954,8195.039638
1098.397683,6280.310751,3829.457775,6816.434839
1098.397992,9497.055282,6356.899906,7275.969772
1098.398288,10875.660081,7888.683016,8501.396260
1098.398584,9803.411904,7429.148083,8348.217949
1098.398880,4518.760174,3829.457775,10109.768526
1098.399176,-4978.295107,-3446.511997,13249.923901
1098.399472,-12713.799813,-9190.698660,15088.063633
1098.399769,-13326.513057,-10645.892614,14322.172078
1098.400065,-7658.915550,-9497.055282,11182.016703
1098.400372,-0.000000,-5208.062574,8807.752882
1098.400674,6127.132440,612.713244,7429.148083
1098.400976,10875.660081,5591.008351,7275.969772
1098.401278,12177.675724,9420.466126,8348.217949
1098.401581,10875.660081,10109.768526,8577.985416
1098.401883,5820.775818,7429.148083,9420.466126
1098.402185,-3216.744531,1378.604799,10875.660081
1098.402487,-13632.869679,-6433.489062,14628.528700
1098.402804,-18228.219009,-12177.675724,17462.327454
1098.403102,-15547.598566,-12177.675724,15547.598566
1098.403400,-4288.992708,-6586.667373,9803.411904
1098.403699,5361.240885,-689.302399,5897.364973
1098.403997,11335.195014,3523.101153,6127.132440
1098.404296,13096.745590,6050.543284,7429.148083
1098.404594,13556.280523,8807.752882,8501.396260
1098.404893,9114.109504,6816.434839,9114.109504
1098.405207,612.713244,919.069866,11258.605858
1098.405503,-9573.644437,-5514.419196,14781.707011
1098.405800,-14245.582923,-9497.055282,16236.900966
1098.406096,-14092.404612,-10033.179370,14781.707011
1098.406392,-9343.876971,-5820.775818,11641.551636
1098.406688,-76.589155,919.069866,8501.396260
1098.406985,7735.504705,7582.326394,6816.434839
1098.407281,11488.373325,10569.303459,6663.256528
1098.407569,10569.303459,11028.838392,9267.287815
1098.407869,8348.217949,8348.217949,10033.179370
1098.408169,2986.977064,2604.031287,10262.946837
1098.408469,-4825.116796,-5054.884263,12484.032346
1098.408769,-11564.962480,-11871.319102,14475.350389
1098.409069,-11718.140791,-13709.458834,13862.637145
1098.409368,-6050.543284,-10186.357681,10569.303459
1098.409668,-76.589155,-4671.938485,7429.148083
1098.409968,4748.527641,765.891555,6663.256528
1098.410267,7122.791461,4825.116796,7429.148083
1098.410566,9267.287815,7275.969772,8041.861327
1098.410866,7275.969772,6050.543284,8960.931193
1098.411165,2144.496354,1838.139732,10109.768526
1098.411464,-6510.078217,-4671.938485,13403.102212
1098.411763,-12254.264880,-10339.535992,16083.722655
1098.412063,-13939.226301,-12177.675724,16390.079277
1098.412370,-8118.450483,-8424.807105,12254.264880
1098.412672,-229.767466,-3752.868619,7888.683016
1098.412975,5208.062574,1531.783110,6739.845684
1098.413277,9497.055282,6203.721595,7275.969772
1098.413580,10416.125148,8654.574571,8960.931193
1098.413883,11028.838392,8501.396260,9114.109504
1098.414185,7429.148083,4825.116796,10722.481770
1098.414488,-536.124088,-842.480710,11641.551636
