#time,accel_x,accel_y,accel_z
1109.589204,-76.589155,-689.302399,10416.125148
1109.589502,-229.767466,-536.124088,10416.125148
1109.589800,459.534933,-689.302399,10569.303459
1109.590098,3599.690308,-536.124088,9956.590215
1109.590414,5820.775818,-76.589155,9956.590215
1109.590713,11182.016703,-76.589155,9420.466126
1109.591011,14398.761234,-229.767466,9420.466126
1109.591310,18994.110564,-76.589155,9114.109504
1109.591608,21368.374384,612.713244,8807.752882
1109.591907,20219.537052,459.534933,9803.411904
1109.592205,20832.250296,1991.318043,9267.287815
1109.592503,18457.986475,1991.318043,9650.233593
1109.592818,17538.916609,2144.496354,9573.644437
1109.593117,16083.722655,2604.031287,9573.644437
1109.593415,15011.474478,765.891555,10262.946837
1109.593714,18457.986475,-0.000000,10262.946837
1109.594013,23359.692427,153.178311,10262.946837
1109.594312,27801.863446,-689.302399,9420.466126
1109.594610,24048.994827,-2680.620442,9190.698660
1109.594909,18764.343097,-4901.705952,13173.334746
1109.595221,12177.675724,-5208.062574,16083.722655
1109.595517,10262.946837,-2374.263820,14322.172078
1109.595812,8041.861327,459.534933,13479.691368
1109.596108,3752.868619,612.713244,14322.172078
1109.596404,2374.263820,1378.604799,15777.366033
1109.596700,4059.225241,2910.387909,15930.544344
1109.596996,9497.055282,5897.364973,11794.729947
1109.597291,12943.567279,6969.613150,10033.179370
1109.597591,13096.745590,4595.349330,9497.055282
1109.597890,12637.210657,1072.248177,8807.752882
1109.598190,12637.210657,-1914.728887,7658.915550
1109.598489,13096.745590,-5973.954129,6510.078217
1109.598788,12943.567279,-9726.822748,7888.683016
1109.599087,15471.009411,-10033.179370,8041.861327
1109.599387,13709.458834,-6280.310751,7582.326394
1109.599686,10722.481770,-2374.263820,7429.148083
1109.599993,4212.403552,-229.767466,11947.908258
1109.600292,-1914.728887,-689.302399,14168.993767
1109.600591,-7965.272172,765.891555,15088.063633
1109.600891,-11947.908258,2910.387909,12254.264880
1109.601190,-12254.264880,2910.387909,9267.287815
1109.601489,-13632.869679,-1761.550576,9267.287815
1109.601788,-13479.691368,-4901.705952,9803.411904
1109.602087,-11411.784169,-5667.597507,10109.768526
1109.602408,-8424.807105,-5667.597507,9956.590215
1109.602708,-3369.922842,-4059.225241,10416.125148
1109.603009,2833.798753,-1455.193954,11641.551636
1109.603309,8348.217949,1378.604799,14781.707011
1109.603609,17692.094920,4595.349330,13403.102212
1109.603910,26576.436958,7582.326394,8195.039638
1109.604210,29257.057401,6510.078217,4595.349330
1109.604510,19300.467186,-2680.620442,6127.132440
1109.604783,6739.845684,-11564.962480,7888.683016
1109.605084,-4135.814397,-17921.862387,9573.644437
1109.605384,-11947.908258,-20142.947896,11028.838392
1109.605684,-15547.598566,-16849.614210,13709.458834
1109.605984,-12254.264880,-4518.760174,14858.296167
1109.606284,-7965.272172,8654.574571,15547.598566
1109.606584,-3369.922842,19300.467186,14015.815456
1109.606884,-2067.907198,24585.118915,11794.729947
1109.607201,-5284.651729,22364.033406,11641.551636
1109.607497,-9726.822748,12866.978124,11794.729947
1109.607793,-10799.070925,612.713244,11488.373325
1109.608089,-3676.279464,-10492.714303,9114.109504
1109.608385,4748.527641,-19377.056341,6663.256528
1109.608681,12177.675724,-23206.514116,5744.186662
1109.608977,18611.164786,-19377.056341,8041.861327
1109.609273,19606.823808,-8118.450483,7735.504705
1109.609573,14245.582923,3216.744531,6433.489062
1109.609874,1991.318043,10875.660081,10109.768526
1109.610174,-8577.985416,15088.063633,12713.799813
1109.610475,-14628.528700,16773.025054,11641.551636
1109.610776,-13479.691368,14092.404612,9803.411904
1109.611077,-9573.644437,6510.078217,10569.303459
1109.611377,-1302.015643,-0.000000,12407.443191
1109.611678,11794.729947,-1148.837332,9956.590215
1109.611985,20219.537052,-382.945777,8960.931193
1109.612286,19453.645497,-76.589155,9267.287815
1109.612587,9420.466126,-1914.728887,10952.249236
1109.612888,-3216.744531,-2221.085509,12407.443191
1109.613189,-11564.962480,-4901.705952,12101.086569
1109.613490,-18840.932253,-9037.520349,12407.443191
1109.613791,-19223.878030,-12943.567279,12407.443191
1109.614091,-13632.869679,-11411.784169,12101.086569
1109.614371,-1761.550576,-4365.581863,11794.729947
1109.614677,8807.752882,3369.922842,10722.481770
1109.614982,14551.939545,9956.590215,11028.838392
1109.615287,15011.474478,14398.761234,9956.590215
1109.615592,11335.195014,14781.707011,8577.985416
1109.615897,4212.403552,9114.109504,8348.217949
1109.616203,-3829.457775,-1302.015643,9650.233593
1109.616508,-7965.272172,-11718.140791,10569.303459
1109.616826,-8118.450483,-18687.753942,10722.481770
1109.617119,-7122.791461,-20296.126207,12177.675724
1109.617412,-4135.814397,-17002.792521,14015.815456
1109.617704,612.713244,-8731.163727,13020.156435
1109.617997,5514.419196,1378.604799,10416.125148
1109.618290,3293.333686,8348.217949,8960.931193
1109.618582,153.178311,10722.481770,8501.396260
1109.618875,-2604.031287,8195.039638,8271.628794
1109.619192,-3063.566220,2910.387909,8807.752882
1109.619490,-1302.015643,-1914.728887,9267.287815
1109.619788,919.069866,-4825.116796,9267.287815
1109.620086,4212.403552,-5514.419196,10109.768526
1109.620384,7582.326394,-2374.263820,10109.768526
1109.620681,8041.861327,1991.318043,9650.233593
1109.620979,2144.496354,2910.387909,10262.946837
1109.621277,-8118.450483,1531.783110,12713.799813
1109.621600,-13173.334746,-536.124088,11794.729947
1109.621897,-15700.776877,-3140.155375,11488.373325
1109.622193,-11105.427547,-6739.845684,9803.411904
1109.622490,-4748.527641,-7812.093861,9956.590215
1109.622787,4212.403552,-5820.775818,10339.535992
1109.623083,12484.032346,-1455.193954,10033.179370
1109.623380,17538.916609,4825.116796,10569.303459
1109.623677,17079.381676,8348.217949,9880.001059
1109.624007,9956.590215,9803.411904,9956.590215
1109.624300,-0.000000,9420.466126,9956.590215
1109.624593,-9343.876971,5591.008351,10799.070925
1109.624886,-15853.955188,-2221.085509,11488.373325
1109.625179,-16313.490121,-7812.093861,12790.388968
1109.625472,-10492.714303,-10492.714303,11947.908258
1109.625765,-1914.728887,-9650.233593,11794.729947
1109.626058,7275.969772,-4825.116796,11794.729947
1109.626365,15317.831100,3216.744531,9956.590215
1109.626670,15471.009411,7735.504705,8195.039638
1109.626975,9956.590215,9650.233593,9803.411904
1109.627279,153.178311,7275.969772,9956.590215
1109.627584,-8271.628794,1991.318043,9956.590215
1109.627889,-12560.621502,-5054.884263,9803.411904
1109.628193,-13479.691368,-12024.497413,9956.590215
1109.628498,-9497.055282,-14551.939545,11794.729947
1109.628781,-2910.387909,-12637.210657,12177.675724
1109.629083,3906.046930,-7046.202306,12177.675724
1109.629385,9650.233593,612.713244,9956.590215
1109.629688,10262.946837,6816.434839,8501.396260
1109.629990,4671.938485,7888.683016,9267.287815
1109.630292,-229.767466,5897.364973,9573.644437
1109.630594,-3829.457775,765.891555,8960.931193
1109.630896,-6203.721595,-4825.116796,9573.644437
1109.631178,-5437.830040,-9726.822748,10416.125148
1109.631478,-2450.852976,-8731.163727,12790.388968
1109.631777,4901.705952,-2986.977064,12790.388968
1109.632077,9956.590215,4288.992708,10875.660081
1109.632376,8960.931193,8654.574571,10722.481770
1109.632676,2297.674665,10416.125148,11028.838392
1109.632975,-3829.457775,8195.039638,10262.946837
1109.633275,-10033.179370,2604.031287,10569.303459
1109.633563,-11871.319102,-5667.597507,11028.838392
1109.633864,-10186.357681,-11564.962480,12407.443191
1109.634165,-2221.085509,-11258.605858,12177.675724
1109.634465,7888.683016,-6739.845684,10799.070925
1109.634766,13862.637145,153.178311,9497.055282
1109.635067,13709.458834,6203.721595,9880.001059
1109.635368,8501.396260,9956.590215,9420.466126
1109.635669,-1302.015643,9114.109504,10186.357681
1109.635978,-10799.070925,4978.295107,10875.660081
1109.636276,-16696.435899,-2374.263820,11488.373325
1109.636575,-15241.241944,-8424.807105,11488.373325
1109.636873,-8577.985416,-10339.535992,11028.838392
1109.637172,1378.604799,-9190.698660,11028.838392
1109.637470,11335.195014,-3293.333686,10262.946837
1109.637769,18304.808164,4288.992708,8501.396260
1109.638067,18151.629853,9956.590215,6127.132440
1109.638374,11182.016703,11028.838392,6816.434839
1109.638674,765.891555,7275.969772,8501.396260
1109.638974,-8577.985416,-229.767466,10569.303459
1109.639273,-13173.334746,-6893.023995,11335.195014
1109.639573,-12713.799813,-10492.714303,11411.784169
1109.639872,-8118.450483,-11105.427547,11488.373325
1109.640172,-995.659021,-7505.737239,11105.427547
1109.640472,4365.581863,-2067.907198,10875.660081
1109.640768,5208.062574,3676.279464,11182.016703
1109.641067,2527.442131,4825.116796,10875.660081
1109.641366,-3369.922842,3523.101153,12177.675724
1109.641665,-6510.078217,-76.589155,11488.373325
1109.641964,-6510.078217,-5054.884263,10109.768526
1109.642262,-2067.907198,-7199.380617,8271.628794
1109.642561,2297.674665,-7965.272172,7735.504705
1109.642860,4748.527641,-7199.380617,9497.055282
1109.643155,7429.148083,-3293.333686,11718.140791
1109.643454,9497.055282,1838.139732,12560.621502
1109.643754,9650.233593,6663.256528,10416.125148
1109.644053,4748.527641,8960.931193,9573.644437
1109.644352,-2450.852976,6203.721595,10722.481770
1109.644651,-9190.698660,612.713244,11947.908258
1109.644951,-10186.357681,-5208.062574,12101.086569
1109.645250,-9497.055282,-7965.272172,11488.373325
1109.645562,-6356.899906,-9650.233593,11794.729947
1109.645860,-1914.728887,-7046.202306,11794.729947
1109.646158,5820.775818,-536.124088,11028.838392
1109.646456,10875.660081,5591.008351,9650.233593
1109.646754,7888.683016,7122.791461,9880.001059
1109.647052,1991.318043,6816.434839,10722.481770
1109.647350,-4135.814397,4135.814397,9726.822748
1109.647649,-9190.698660,-689.302399,9803.411904
1109.647965,-10033.179370,-6280.310751,9726.822748
1109.648264,-8424.807105,-9650.233593,10722.481770
1109.648562,-1148.837332,-8424.807105,11335.195014
1109.648860,7888.683016,-2221.085509,10262.946837
1109.649158,13862.637145,3829.457775,9420.466126
1109.649457,15011.474478,8501.396260,8195.039638
1109.649755,9650.233593,9573.644437,9114.109504
1109.650053,1684.961421,7429.148083,10262.946837
1109.650361,-8577.985416,2757.209598,10722.481770
1109.650662,-12713.799813,-3293.333686,11258.605858
1109.650963,-13173.334746,-7352.558928,10722.481770
1109.651265,-9880.001059,-9880.001059,11641.551636
1109.651566,-3063.566220,-7965.272172,13096.745590
1109.651868,5054.884263,-2374.263820,11641.551636
1109.652169,12177.675724,4748.527641,10262.946837
1109.652471,11794.729947,7888.683016,9267.287815
1109.652787,5208.062574,8195.039638,9803.411904
1109.653080,-1455.193954,4978.295107,10416.125148
1109.653374,-7352.558928,-1302.015643,10262.946837
1109.653668,-7965.272172,-8424.807105,10569.303459
1109.653962,-5744.186662,-10339.535992,10339.535992
1109.654255,1225.426488,-8577.985416,10569.303459
1109.654549,7122.791461,-3752.868619,10109.768526
1109.654843,11335.195014,1072.248177,10262.946837
1109.655161,9956.590215,6050.543284,9420.466126
1109.655460,4518.760174,7735.504705,10033.179370
1109.655758,-3676.279464,5591.008351,10109.768526
1109.656056,-11105.427547,-0.000000,10799.070925
1109.656354,-14092.404612,-6586.667373,11641.551636
1109.656652,-11871.319102,-10952.249236,10722.481770
1109.656951,-5744.186662,-11564.962480,10722.481770
1109.657249,1838.139732,-9497.055282,10033.179370
1109.657562,8195.039638,-4365.581863,10416.125148
1109.657860,11871.319102,2604.031287,9956.590215
1109.658159,11871.319102,7275.969772,7275.969772
1109.658457,4671.938485,7735.504705,8807.752882
1109.658756,-3063.566220,4748.527641,8960.931193
1109.659054,-9880.001059,-536.124088,10416.125148
1109.659353,-11411.784169,-6127.132440,11488.373325
1109.659651,-9343.876971,-9343.876971,11794.729947
1109.659951,-2604.031287,-7812.093861,12254.264880
1109.660251,6280.310751,-1761.550576,10569.303459
1109.660551,12330.854035,5131.473418,11182.016703
1109.660851,13249.923901,9650.233593,9803.411904
1109.661151,8348.217949,10875.660081,9880.001059
1109.661451,-0.000000,7888.683016,10569.303459
1109.661751,-10492.714303,919.069866,11718.140791
1109.662051,-16696.435899,-7658.915550,14168.993767
1109.662358,-15394.420255,-11871.319102,14015.815456
1109.662655,-6663.256528,-10799.070925,10799.070925
1109.662952,2144.496354,-7352.558928,9803.411904
1109.663249,9956.590215,-1608.372265,9956.590215
1109.663545,14245.582923,5131.473418,9956.590215
1109.663842,14168.993767,9650.233593,8195.039638
1109.664139,7429.148083,8807.752882,9114.109504
1109.664436,-2910.387909,4748.527641,10109.768526
1109.664750,-9726.822748,-2221.085509,10416.125148
1109.665050,-10339.535992,-7658.915550,10799.070925
1109.665351,-7658.915550,-10186.357681,10569.303459
1109.665651,-2374.263820,-8731.163727,11182.016703
1109.665951,3446.511997,-4059.225241,10875.660081
1109.666252,7735.504705,3676.279464,10722.481770
1109.666552,10416.125148,9803.411904,9190.698660
1109.666852,5973.954129,11641.551636,8654.574571
1109.667171,-689.302399,9650.233593,9573.644437
1109.667468,-7965.272172,4288.992708,10875.660081
1109.667765,-12560.621502,-3599.690308,11794.729947
1109.668062,-9880.001059,-8271.628794,10416.125148
1109.668358,-4135.814397,-10339.535992,10416.125148
1109.668655,2297.674665,-9650.233593,10339.535992
1109.668952,8654.574571,-3293.333686,10416.125148
1109.669249,13096.745590,3369.922842,9037.520349
1109.669566,11182.016703,7275.969772,8195.039638
1109.669861,3140.155375,7122.791461,9650.233593
1109.670155,-4595.349330,3369.922842,11028.838392
1109.670450,-11564.962480,-2067.907198,12407.443191
1109.670744,-11258.605858,-6280.310751,11794.729947
1109.671039,-9343.876971,-9497.055282,10645.892614
1109.671333,-3369.922842,-7812.093861,11718.140791
1109.671627,4059.225241,-4059.225241,12254.264880
1109.671927,10416.125148,2297.674665,10492.714303
1109.672227,13403.102212,8195.039638,9650.233593
1109.672527,8807.752882,9573.644437,8807.752882
1109.672828,-382.945777,6816.434839,10492.714303
1109.673128,-7505.737239,1072.248177,11335.195014
1109.673428,-11947.908258,-5820.775818,11488.373325
1109.673728,-12101.086569,-11718.140791,12101.086569
1109.674028,-7505.737239,-13709.458834,11641.551636
1109.674358,306.356622,-9880.001059,10875.660081
1109.674655,8195.039638,-2986.977064,10109.768526
1109.674952,11641.551636,2604.031287,9803.411904
1109.675249,11028.838392,7122.791461,9114.109504
1109.675546,4518.760174,7888.683016,9267.287815
1109.675843,-2910.387909,5744.186662,9267.287815
1109.676140,-10645.892614,-842.480710,9956.590215
1109.676437,-11564.962480,-5973.954129,10645.892614
1109.676745,-8884.342038,-10186.357681,10875.660081
1109.677044,-2604.031287,-8731.163727,10722.481770
1109.677344,4212.403552,-4365.581863,10799.070925
1109.677644,9803.411904,1838.139732,10875.660081
1109.677944,11794.729947,8654.574571,9267.287815
1109.678244,8195.039638,10875.660081,8807.752882
1109.678544,-229.767466,8960.931193,9650.233593
1109.678843,-6969.613150,3369.922842,9956.590215
1109.679160,-10645.892614,-3446.511997,11028.838392
1109.679459,-10033.179370,-7965.272172,11335.195014
1109.679758,-6050.543284,-9343.876971,11488.373325
1109.680057,-536.124088,-7505.737239,11947.908258
1109.680357,6893.023995,-995.659021,11335.195014
1109.680656,10722.481770,6203.721595,10109.768526
1109.680955,9497.055282,9956.590215,9114.109504
1109.681254,3906.046930,9956.590215,8654.574571
1109.681571,-2757.209598,6816.434839,10722.481770
1109.681869,-10339.535992,-1914.728887,12101.086569
1109.682166,-10799.070925,-8577.985416,12790.388968
1109.682464,-7505.737239,-11564.962480,11794.729947
1109.682761,765.891555,-9650.233593,9650.233593
1109.683059,7046.202306,-6127.132440,9267.287815
1109.683356,10875.660081,-229.767466,10186.357681
1109.683653,12024.497413,5437.830040,9803.411904
1109.683943,9114.109504,8960.931193,8501.396260
1109.684242,153.178311,7122.791461,8731.163727
1109.684541,-8884.342038,612.713244,10416.125148
1109.684840,-15088.063633,-5973.954129,13249.923901
1109.685140,-12560.621502,-9037.520349,10799.070925
1109.685439,-7199.380617,-10033.179370,9573.644437
1109.685738,-2604.031287,-9190.698660,11182.016703
1109.686037,3293.333686,-4212.403552,11641.551636
1109.686323,8807.752882,1684.961421,10645.892614
1109.686625,11335.195014,7122.791461,8348.217949
1109.686927,6739.845684,7735.504705,8501.396260
1109.687228,-0.000000,4978.295107,9803.411904
1109.687530,-6050.543284,-995.659021,10262.946837
1109.687832,-8884.342038,-6433.489062,11182.016703
1109.688134,-7505.737239,-10799.070925,10875.660081
1109.688436,-3523.101153,-9190.698660,11488.373325
1109.688743,4365.581863,-4671.938485,10875.660081
1109.689042,9497.055282,1684.961421,10722.481770
1109.689342,10569.303459,7122.791461,10262.946837
1109.689642,6586.667373,9956.590215,10875.660081
1109.689942,-382.945777,9420.466126,11335.195014
1109.690242,-6510.078217,5591.008351,11335.195014
1109.690541,-11105.427547,-536.124088,11258.605858
1109.690841,-11871.319102,-6586.667373,10799.070925
1109.691138,-9190.698660,-10645.892614,11794.729947
1109.691437,-2221.085509,-9880.001059,12101.086569
1109.691737,7888.683016,-3140.155375,10722.481770
1109.692037,14015.815456,3982.636086,8807.752882
1109.692336,12943.567279,7122.791461,8577.985416
1109.692636,6433.489062,7888.683016,9497.055282
1109.692935,-1608.372265,5284.651729,10262.946837
1109.693235,-9497.055282,-76.589155,10262.946837
1109.693530,-12866.978124,-6433.489062,11028.838392
1109.693831,-11718.140791,-10645.892614,12101.086569
1109.694132,-4825.116796,-9650.233593,10875.660081
1109.694432,4059.225241,-4518.760174,10569.303459
1109.694733,9420.466126,1378.604799,10875.660081
1109.695034,12790.388968,7275.969772,9650.233593
1109.695335,9956.590215,10875.660081,8654.574571
1109.695636,4059.225241,10109.768526,8195.039638
1109.695924,-3829.457775,4595.349330,8654.574571
1109.696225,-10492.714303,-3140.155375,11028.838392
1109.696526,-10492.714303,-9497.055282,10569.303459
1109.696826,-7965.272172,-11564.962480,10875.660081
1109.697127,-1608.372265,-11105.427547,11794.729947
1109.697428,4901.705952,-5973.954129,11335.195014
1109.697729,10569.303459,612.713244,10109.768526
1109.698029,10722.481770,6050.543284,8807.752882
1109.698339,4212.403552,7735.504705,9420.466126
1109.698637,-3369.922842,5591.008351,10262.946837
1109.698936,-9190.698660,1072.248177,11028.838392
1109.699235,-10339.535992,-4518.760174,11488.373325
1109.699533,-10186.357681,-8731.163727,11794.729947
1109.699832,-4288.992708,-8271.628794,11335.195014
1109.700131,3140.155375,-4825.116796,10875.660081
1109.700429,9114.109504,-689.302399,11335.195014
1109.700736,10416.125148,4748.527641,11182.016703
1109.701036,7888.683016,8348.217949,9650.233593
1109.701336,3752.868619,9267.287815,8501.396260
1109.701635,-2757.209598,4748.527641,9420.466126
1109.701935,-8884.342038,-3446.511997,11794.729947
1109.702235,-9497.055282,-9880.001059,12101.086569
1109.702534,-5744.186662,-11105.427547,11028.838392
1109.702834,-689.302399,-10186.357681,10569.303459
1109.703131,2297.674665,-5667.597507,11564.962480
1109.703429,6739.845684,-382.945777,11641.551636
1109.703727,7735.504705,4288.992708,10645.892614
1109.704025,4212.403552,7275.969772,9114.109504
1109.704323,-229.767466,6663.256528,8654.574571
1109.704621,-6816.434839,2450.852976,9956.590215
1109.704919,-8118.450483,-5208.062574,10262.946837
1109.705217,-7812.093861,-9190.698660,10722.481770
1109.705532,-4135.814397,-9190.698660,11794.729947
1109.705830,1838.139732,-7046.202306,11028.838392
1109.706129,8348.217949,-382.945777,9956.590215
1109.706428,11871.319102,6203.721595,9420.466126
1109.706727,10262.946837,8960.931193,8807.752882
1109.707025,2986.977064,8348.217949,10416.125148
1109.707324,-2604.031287,5284.651729,11028.838392
1109.707623,-8577.985416,-76.589155,10722.481770
1109.707911,-10339.535992,-4518.760174,10875.660081
1109.708211,-10033.179370,-7658.915550,11335.195014
1109.708511,-5591.008351,-8577.985416,13403.102212
1109.708811,1072.248177,-4059.225241,12713.799813
1109.709111,8501.396260,2910.387909,11028.838392
1109.709411,11641.551636,7888.683016,9114.109504
1109.709710,9497.055282,9956.590215,9114.109504
1109.710010,4518.760174,8807.752882,9420.466126
1109.710310,-1148.837332,4288.992708,9497.055282
1109.710609,-6356.899906,-3140.155375,10722.481770
1109.710908,-9343.876971,-9037.520349,10875.660081
1109.711208,-7965.272172,-10799.070925,12101.086569
1109.711507,-3369.922842,-9190.698660,11794.729947
1109.711806,4365.581863,-3752.868619,11028.838392
1109.712105,8501.396260,3369.922842,10569.303459
1109.712404,7735.504705,8195.039638,9880.001059
1109.712712,3446.511997,9420.466126,9420.466126
1109.713011,-229.767466,6816.434839,9420.466126
1109.713310,-4748.527641,153.178311,9114.109504
1109.713609,-8731.163727,-7352.558928,10109.768526
1109.713908,-9343.876971,-11564.962480,11641.551636
1109.714208,-3216.744531,-11411.784169,10416.125148
1109.714507,3140.155375,-8424.807105,10416.125148
1109.714806,7275.969772,-3752.868619,11335.195014
1109.715127,8348.217949,1991.318043,10722.481770
1109.715427,6280.310751,6510.078217,8960.931193
1109.715727,765.891555,7582.326394,8807.752882
1109.716028,-6050.543284,2450.852976,9650.233593
1109.716328,-10645.892614,-4365.581863,11641.551636
1109.716628,-9497.055282,-8424.807105,11488.373325
1109.716929,-3829.457775,-8424.807105,10416.125148
1109.717229,1991.318043,-6280.310751,10875.660081
1109.717467,7888.683016,-2067.907198,10645.892614
1109.717772,11871.319102,3676.279464,10569.303459
1109.718077,9803.411904,6816.434839,10109.768526
1109.718382,3599.690308,8195.039638,9650.233593
1109.718688,-3523.101153,5131.473418,9956.590215
1109.718993,-9726.822748,-689.302399,10875.660081
1109.719298,-11871.319102,-7199.380617,12101.086569
1109.719603,-10799.070925,-10645.892614,12790.388968
1109.719920,-3982.636086,-9190.698660,11718.140791
1109.720219,3599.690308,-4212.403552,10569.303459
1109.720519,9650.233593,1684.961421,10569.303459
1109.720818,10875.660081,7122.791461,10262.946837
1109.721118,7888.683016,10262.946837,9573.644437
1109.721417,1991.318043,8960.931193,9420.466126
1109.721716,-4595.349330,4442.171019,9573.644437
1109.722016,-9190.698660,-2680.620442,10416.125148
1109.722315,-9037.520349,-6739.845684,10569.303459
1109.722613,-6050.543284,-9190.698660,11182.016703
1109.722910,-995.659021,-8118.450483,12254.264880
1109.723207,5973.954129,-2527.442131,10952.249236
1109.723505,11641.551636,4748.527641,9803.411904
1109.723802,11335.195014,8348.217949,7735.504705
1109.724100,5514.419196,8807.752882,8501.396260
1109.724397,-2757.209598,4978.295107,10416.125148
1109.724704,-9190.698660,-1302.015643,11718.140791
1109.725005,-10186.357681,-6127.132440,11028.838392
1109.725306,-7658.915550,-8577.985416,10262.946837
1109.725607,-2374.263820,-8271.628794,9956.590215
1109.725908,2374.263820,-5820.775818,11335.195014
1109.726209,6893.023995,-1148.837332,12254.264880
1109.726510,10109.768526,4595.349330,10416.125148
1109.726811,6280.310751,6356.899906,8501.396260
1109.727091,-382.945777,4978.295107,9956.590215
1109.727396,-7122.791461,459.534933,11641.551636
1109.727701,-9037.520349,-3906.046930,10262.946837
1109.728006,-6356.899906,-6586.667373,9650.233593
1109.728311,-4135.814397,-9037.520349,9956.590215
1109.728616,-536.124088,-8731.163727,11794.729947
1109.728921,5820.775818,-3752.868619,12560.621502
1109.729227,11182.016703,2450.852976,10109.768526
1109.729545,10569.303459,6663.256528,8348.217949
1109.729838,2374.263820,7429.148083,10416.125148
1109.730131,-3982.636086,5284.651729,11182.016703
1109.730423,-8424.807105,1531.783110,10952.249236
1109.730716,-11258.605858,-4518.760174,11794.729947
1109.731009,-11564.962480,-10492.714303,12024.497413
1109.731301,-6356.899906,-9880.001059,12101.086569
1109.731594,3293.333686,-5208.062574,10109.768526
1109.731911,11335.195014,-382.945777,9420.466126
1109.732209,12484.032346,3982.636086,9726.822748
1109.732507,8960.931193,6510.078217,10416.125148
1109.732805,3906.046930,6816.434839,9880.001059
1109.733102,-689.302399,5591.008351,8348.217949
1109.733400,-7352.558928,-995.659021,9114.109504
1109.733698,-11871.319102,-8271.628794,10722.481770
1109.733996,-10799.070925,-10339.535992,12713.799813
1109.734296,-3982.636086,-7352.558928,11794.729947
1109.734596,4059.225241,-1608.372265,10109.768526
1109.734896,7888.683016,4135.814397,10569.303459
1109.735196,8041.861327,8195.039638,10262.946837
1109.735496,5361.240885,10569.303459,9573.644437
1109.735796,765.891555,9267.287815,9573.644437
1109.736096,-4978.295107,3216.744531,9114.109504
1109.736396,-8577.985416,-4901.705952,10722.481770
1109.736687,-8271.628794,-10492.714303,11028.838392
1109.736988,-2757.209598,-11258.605858,11182.016703
1109.737289,3446.511997,-8271.628794,10416.125148
1109.737590,8654.574571,-2527.442131,10722.481770
1109.737892,9803.411904,3523.101153,10109.768526
1109.738193,6433.489062,7122.791461,10416.125148
1109.738494,612.713244,8501.396260,9956.590215
1109.738795,-5437.830040,5591.008351,9803.411904
1109.739102,-10492.714303,-382.945777,11411.784169
1109.739400,-9726.822748,-5820.775818,12024.497413
1109.739697,-5437.830040,-6739.845684,11028.838392
1109.739994,2680.620442,-5973.954129,10109.768526
1109.740291,8041.861327,-3599.690308,10722.481770
1109.740589,10875.660081,765.891555,11488.373325
1109.740886,11028.838392,6203.721595,9726.822748
1109.741183,5361.240885,8041.861327,8884.342038
1109.741480,-1302.015643,5437.830040,8807.752882
1109.741781,-10033.179370,-1148.837332,11028.838392
1109.742082,-14092.404612,-7352.558928,12254.264880
1109.742383,-11871.319102,-10799.070925,11028.838392
1109.742684,-6203.721595,-9497.055282,10416.125148
1109.742985,1531.783110,-6893.023995,10109.768526
1109.743286,7735.504705,-1761.550576,10875.660081
1109.743587,10875.660081,4442.171019,10262.946837
1109.743882,9420.466126,8960.931193,8501.396260
1109.744183,2680.620442,8195.039638,8731.163727
1109.744484,-4288.992708,3829.457775,9956.590215
1109.744784,-9497.055282,-3140.155375,11564.962480
1109.745085,-9726.822748,-8577.985416,11794.729947
1109.745386,-5131.473418,-9497.055282,9803.411904
1109.745687,1531.783110,-7658.915550,9956.590215
1109.745988,5667.597507,-4212.403552,11641.551636
1109.746276,8807.752882,1684.961421,11564.962480
1109.746579,9956.590215,8195.039638,10569.303459
1109.746882,5361.240885,10109.768526,9956.590215
1109.747185,-1302.015643,7735.504705,10109.768526
1109.747488,-9343.876971,1838.139732,11182.016703
1109.747791,-11564.962480,-4365.581863,11641.551636
1109.748094,-10492.714303,-9497.055282,11488.373325
1109.748397,-4442.171019,-10492.714303,11028.838392
1109.748682,919.069866,-8118.450483,10569.303459
1109.748984,7122.791461,-2680.620442,10569.303459
1109.749286,10569.303459,3982.636086,10569.303459
1109.749588,9650.233593,8041.861327,9650.233593
1109.749890,4212.403552,8041.861327,9650.233593
1109.750192,-1914.728887,5284.651729,10416.125148
1109.750494,-7505.737239,765.891555,10875.660081
1109.750795,-7505.737239,-4212.403552,10262.946837
1109.751103,-5284.651729,-5973.954129,10109.768526
1109.751399,-1302.015643,-6893.023995,10416.125148
1109.751695,2144.496354,-4518.760174,12790.388968
1109.751992,5820.775818,2144.496354,11718.140791
1109.752288,9420.466126,9650.233593,9420.466126
1109.752584,6127.132440,10722.481770,9114.109504
1109.752881,-76.589155,8654.574571,9803.411904
1109.753177,-5284.651729,3369.922842,9956.590215
1109.753507,-8884.342038,-4365.581863,10109.768526
1109.753805,-8731.163727,-10186.357681,10492.714303
1109.754103,-4442.171019,-11105.427547,10569.303459
1109.754401,2374.263820,-7658.915550,10109.768526
1109.754699,8807.752882,-3293.333686,9956.590215
1109.754997,9114.109504,1072.248177,11335.195014
1109.755296,6433.489062,5744.186662,10492.714303
1109.755594,1991.318043,7735.504705,9114.109504
1109.755889,-3523.101153,5897.364973,9420.466126
1109.756189,-10645.892614,-1148.837332,11028.838392
1109.756489,-12254.264880,-7199.380617,12101.086569
1109.756789,-7352.558928,-8424.807105,10722.481770
1109.757089,459.534933,-7199.380617,9803.411904
1109.757389,7122.791461,-5208.062574,10109.768526
1109.757689,9956.590215,-229.767466,11182.016703
1109.757989,12330.854035,5131.473418,9956.590215
1109.758277,8960.931193,7582.326394,9114.109504
1109.758578,612.713244,5437.830040,9650.233593
1109.758879,-7505.737239,-76.589155,10262.946837
1109.759180,-12713.799813,-6893.023995,12407.443191
1109.759481,-11564.962480,-10799.070925,12407.443191
1109.759781,-7199.380617,-11258.605858,10799.070925
1109.760082,-1302.015643,-8424.807105,11028.838392
1109.760383,5973.954129,-2833.798753,11335.195014
1109.760682,10569.303459,3369.922842,11105.427547
1109.760982,9803.411904,7275.969772,9803.411904
1109.761282,2527.442131,7429.148083,9956.590215
1109.761583,-3063.566220,5437.830040,10722.481770
1109.761883,-7505.737239,459.534933,10109.768526
1109.762183,-7199.380617,-5667.597507,9803.411904
1109.762483,-5897.364973,-7965.272172,10875.660081
1109.762783,-842.480710,-6739.845684,10875.660081
1109.763123,5361.240885,-2833.798753,11028.838392
1109.763419,10569.303459,3369.922842,10262.946837
1109.763715,11488.373325,8501.396260,9114.109504
1109.764011,6739.845684,11182.016703,9956.590215
1109.764307,1072.248177,9573.644437,9267.287815
1109.764603,-5131.473418,4135.814397,8807.752882
1109.764899,-11871.319102,-3140.155375,11488.373325
1109.765195,-13020.156435,-10339.535992,12177.675724
1109.765511,-9726.822748,-10952.249236,12560.621502
1109.765805,-2757.209598,-9190.698660,12101.086569
1109.766099,4518.760174,-3446.511997,11182.016703
1109.766392,9650.233593,3676.279464,10416.125148
1109.766686,10569.303459,8348.217949,8960.931193
1109.766980,5667.597507,8807.752882,8960.931193
1109.767274,-2757.209598,5897.364973,10645.892614
1109.767567,-6969.613150,765.891555,11182.016703
1109.767886,-6203.721595,-4365.581863,10109.768526
1109.768184,-3369.922842,-7352.558928,9650.233593
1109.768482,306.356622,-7812.093861,10339.535992
1109.768781,5361.240885,-5514.419196,10875.660081
1109.769079,10262.946837,-382.945777,11794.729947
1109.769377,11641.551636,5284.651729,10186.357681
1109.769675,5820.775818,7429.148083,9573.644437
1109.769973,-995.659021,6969.613150,9420.466126
1109.770286,-8884.342038,1531.783110,10799.070925
1109.770585,-14322.172078,-4671.938485,12790.388968
1109.770883,-14245.582923,-9190.698660,12407.443191
1109.771182,-9573.644437,-10186.357681,10722.481770
1109.771480,-2067.907198,-8118.450483,10416.125148
1109.771779,5514.419196,-4212.403552,10492.714303
1109.772077,9803.411904,919.069866,9956.590215
1109.772376,11335.195014,5437.830040,8654.574571
1109.772675,6586.667373,6663.256528,9114.109504
1109.772974,-0.000000,4442.171019,9114.109504
1109.773273,-5591.008351,-382.945777,10569.303459
1109.773573,-7199.380617,-7046.202306,10109.768526
1109.773872,-6510.078217,-10799.070925,10109.768526
1109.774171,-3063.566220,-10339.535992,10875.660081
1109.774470,2680.620442,-5514.419196,11182.016703
1109.774770,8348.217949,1072.248177,10875.660081
1109.775110,11641.551636,7735.504705,9880.001059
1109.775408,6739.845684,9267.287815,10262.946837
1109.775706,-536.124088,8348.217949,11182.016703
1109.776004,-6510.078217,4825.116796,10875.660081
1109.776301,-10645.892614,-1455.193954,10799.070925
1109.776599,-12254.264880,-8118.450483,11028.838392
1109.776897,-10033.179370,-10186.357681,12177.675724
1109.777195,-1455.193954,-7199.380617,11028.838392
1109.777463,6280.310751,-2527.442131,10033.179370
1109.777765,10109.768526,1684.961421,9956.590215
1109.778067,11028.838392,6050.543284,10262.946837
1109.778369,6280.310751,7429.148083,9573.644437
1109.778671,765.891555,5591.008351,9650.233593
1109.778973,-6510.078217,306.356622,10416.125148
1109.779275,-9190.698660,-5208.062574,11028.838392
1109.779577,-8118.450483,-8577.985416,11488.373325
1109.779924,-2374.263820,-6739.845684,10416.125148
1109.780217,3446.511997,-2680.620442,10109.768526
1109.780510,8195.039638,1684.961421,10645.892614
1109.780803,10416.125148,7582.326394,10569.303459
1109.781095,7429.148083,10262.946837,9573.644437
1109.781388,765.891555,9267.287815,9956.590215
1109.781681,-5284.651729,4595.349330,10109.768526
1109.781974,-10492.714303,-2221.085509,11335.195014
1109.782291,-10799.070925,-7812.093861,11488.373325
1109.782586,-8884.342038,-10339.535992,11335.195014
1109.782881,-2067.907198,-9190.698660,11335.195014
1109.783177,6280.310751,-4825.116796,9650.233593
1109.783472,10416.125148,153.178311,9420.466126
1109.783767,10875.660081,3369.922842,8807.752882
1109.784063,5667.597507,5284.651729,9267.287815
1109.784358,1378.604799,4288.992708,8960.931193
1109.784658,-5897.364973,-689.302399,10109.768526
1109.784959,-8271.628794,-6280.310751,10875.660081
1109.785259,-6510.078217,-8577.985416,9573.644437
1109.785560,-1608.372265,-6433.489062,9650.233593
1109.785861,2297.674665,-4212.403552,10416.125148
1109.786161,3906.046930,-1608.372265,12407.443191
1109.786462,6280.310751,3523.101153,12790.388968
1109.786763,5054.884263,6816.434839,9803.411904
1109.787069,-1148.837332,6356.899906,9956.590215
1109.787366,-7352.558928,2144.496354,11488.373325
1109.787663,-10492.714303,-2527.442131,12254.264880
1109.787960,-8577.985416,-6433.489062,11182.016703
1109.788257,-6510.078217,-7965.272172,10109.768526
1109.788554,-689.302399,-7812.093861,10262.946837
1109.788851,5667.597507,-5054.884263,10416.125148
1109.789148,10569.303459,306.356622,10262.946837
1109.789456,11794.729947,3676.279464,9573.644437
1109.789756,6739.845684,4442.171019,9956.590215
1109.790056,1991.318043,3523.101153,10262.946837
1109.790356,-4748.527641,919.069866,10569.303459
1109.790656,-8731.163727,-3752.868619,10875.660081
1109.790956,-10186.357681,-6739.845684,10722.481770
1109.791255,-7505.737239,-6433.489062,12101.086569
1109.791555,-1455.193954,-2986.977064,12101.086569
1109.791872,5054.884263,2910.387909,10569.303459
1109.792171,9956.590215,7275.969772,10262.946837
1109.792470,8501.396260,8960.931193,9267.287815
1109.792769,3599.690308,9114.109504,9650.233593
1109.793069,-1761.550576,6050.543284,9956.590215
1109.793368,-8424.807105,-1608.372265,11028.838392
1109.793667,-11105.427547,-7658.915550,11794.729947
1109.793966,-9497.055282,-9726.822748,11182.016703
1109.794283,-2450.852976,-8884.342038,10033.179370
1109.794581,5667.597507,-4518.760174,9114.109504
1109.794879,9956.590215,-0.000000,10416.125148
1109.795177,10262.946837,4442.171019,10416.125148
1109.795475,7046.202306,6050.543284,10416.125148
1109.795773,2527.442131,7122.791461,10109.768526
1109.796070,-3676.279464,4595.349330,9573.644437
1109.796368,-8424.807105,-995.659021,9726.822748
1109.796668,-10645.892614,-6433.489062,10722.481770
1109.796967,-6969.613150,-6893.023995,11641.551636
1109.797266,-1148.837332,-5820.775818,11335.195014
1109.797565,5973.954129,-2067.907198,11028.838392
1109.797865,11182.016703,3523.101153,10569.303459
1109.798164,9420.466126,7122.791461,9114.109504
1109.798463,3752.868619,6663.256528,9803.411904
1109.798762,-3216.744531,3063.566220,10109.768526
1109.799041,-8731.163727,-2527.442131,11641.551636
1109.799344,-10492.714303,-7812.093861,11335.195014
1109.799647,-9190.698660,-10339.535992,10186.357681
1109.799949,-842.480710,-9037.520349,9420.466126
1109.800252,6433.489062,-5973.954129,9650.233593
1109.800555,9420.466126,-2527.442131,10416.125148
1109.800858,8807.752882,1838.139732,11182.016703
1109.801160,3599.690308,4978.295107,10569.303459
1109.801468,-536.124088,5284.651729,9650.233593
1109.801765,-6510.078217,1225.426488,9650.233593
1109.802062,-11258.605858,-5208.062574,10875.660081
1109.802359,-10186.357681,-9037.520349,11488.373325
1109.802656,-4442.171019,-8577.985416,10569.303459
1109.802954,3752.868619,-4671.938485,9956.590215
1109.803251,9420.466126,-1455.193954,9726.822748
1109.803548,9803.411904,2450.852976,10569.303459
1109.803845,8501.396260,5744.186662,10262.946837
1109.804145,3140.155375,6203.721595,10109.768526
1109.804445,-2604.031287,4748.527641,9956.590215
1109.804746,-8731.163727,-842.480710,11028.838392
1109.805046,-10033.179370,-5973.954129,11564.962480
1109.805346,-7658.915550,-8118.450483,10875.660081
1109.805647,-1761.550576,-5973.954129,10416.125148
1109.805947,3752.868619,-2833.798753,10416.125148
1109.806242,7735.504705,919.069866,11182.016703
1109.806542,9497.055282,6050.543284,10416.125148
1109.806842,6127.132440,7888.683016,9114.109504
1109.807142,-1761.550576,6050.543284,10109.768526
1109.807443,-9726.822748,153.178311,12407.443191
1109.807743,-13173.334746,-4901.705952,13556.280523
1109.808043,-9726.822748,-6127.132440,11335.195014
1109.808343,-3829.457775,-5667.597507,9650.233593
1109.808655,3293.333686,-3599.690308,9497.055282
1109.808952,8501.396260,919.069866,10262.946837
1109.809250,13096.745590,6356.899906,10186.357681
1109.809547,12024.497413,9420.466126,9114.109504
1109.809845,5054.884263,9114.109504,9573.644437
1109.810142,-1914.728887,4978.295107,9880.001059
1109.810440,-8271.628794,612.713244,11335.195014
1109.810737,-9573.644437,-5208.062574,10875.660081
1109.811046,-8271.628794,-9343.876971,10569.303459
1109.811346,-3063.566220,-9190.698660,11335.195014
1109.811645,3293.333686,-4901.705952,10262.946837
1109.811944,8041.861327,-76.589155,9803.411904
1109.812244,8960.931193,4442.171019,10109.768526
1109.812543,4901.705952,6050.543284,9420.466126
1109.812843,-1302.015643,5284.651729,9803.411904
1109.813142,-8118.450483,919.069866,10722.481770
1109.813449,-12101.086569,-4825.116796,11641.551636
1109.813747,-10186.357681,-8577.985416,10799.070925
1109.814045,-4595.349330,-9497.055282,9956.590215
1109.814343,2527.442131,-7658.915550,9956.590215
1109.814641,7735.504705,-3446.511997,10109.768526
1109.814939,11335.195014,1838.139732,10492.714303
1109.815238,11028.838392,5744.186662,9497.055282
1109.815536,5361.240885,6663.256528,9420.466126
1109.815852,-382.945777,5284.651729,9420.466126
1109.816150,-6816.434839,-76.589155,10416.125148
1109.816449,-9343.876971,-6280.310751,11641.551636
1109.816747,-8731.163727,-11258.605858,11794.729947
1109.817046,-2374.263820,-9726.822748,10875.660081
1109.817344,3752.868619,-5054.884263,10416.125148
1109.817642,7429.148083,-536.124088,10875.660081
1109.817941,7735.504705,4825.116796,11411.784169
1109.818298,3599.690308,8041.861327,11028.838392
1109.818590,-2374.263820,7735.504705,10875.660081
1109.818883,-9497.055282,3676.279464,11182.016703
1109.819176,-11947.908258,-2374.263820,11641.551636
1109.819468,-10186.357681,-6739.845684,11335.195014
1109.819761,-4288.992708,-8271.628794,10262.946837
1109.820053,3906.046930,-6280.310751,9573.644437
1109.820346,9497.055282,-3140.155375,10262.946837
1109.820658,11488.373325,1531.783110,10262.946837
1109.820954,10875.660081,6050.543284,9650.233593
1109.821251,4059.225241,8501.396260,9420.466126
1109.821548,-2221.085509,6663.256528,9956.590215
1109.821844,-8731.163727,765.891555,10875.660081
1109.822141,-9573.644437,-3293.333686,11488.373325
1109.822438,-8271.628794,-7812.093861,11182.016703
1109.822734,-1761.550576,-7046.202306,9956.590215
1109.823034,3906.046930,-3906.046930,10262.946837
1109.823333,8348.217949,306.356622,10416.125148
1109.823632,8195.039638,4978.295107,10722.481770
1109.823932,5054.884263,7275.969772,10186.357681
1109.824231,-842.480710,7122.791461,9497.055282
1109.824530,-7199.380617,2757.209598,10416.125148
1109.824829,-10952.249236,-3140.155375,11182.016703
1109.825129,-9573.644437,-8271.628794,11335.195014
1109.825436,-4442.171019,-9343.876971,10262.946837
1109.825736,3140.155375,-6280.310751,10109.768526
1109.826036,8501.396260,-2986.977064,10262.946837
1109.826336,11028.838392,2144.496354,10109.768526
1109.826636,10722.481770,6663.256528,9650.233593
1109.826936,5054.884263,8348.217949,8960.931193
1109.827236,-1914.728887,5437.830040,10262.946837
1109.827536,-9497.055282,-1148.837332,12177.675724
1109.827857,-10799.070925,-6586.667373,12330.854035
1109.828154,-8271.628794,-9880.001059,10722.481770
1109.828451,-1455.193954,-7965.272172,8960.931193
1109.828748,3599.690308,-6127.132440,9267.287815
1109.829045,6586.667373,-1914.728887,10262.946837
1109.829342,6739.845684,2757.209598,11488.373325
1109.829639,3446.511997,4288.992708,9956.590215
1109.829936,-995.659021,4288.992708,9420.466126
1109.830254,-6816.434839,-536.124088,11028.838392
1109.830553,-9573.644437,-4671.938485,11564.962480
1109.830851,-6969.613150,-8271.628794,10875.660081
1109.831149,-2910.387909,-7352.558928,9650.233593
1109.831447,3906.046930,-5054.884263,9650.233593
1109.831745,7429.148083,-1608.372265,9956.590215
1109.832043,8654.574571,3829.457775,11564.962480
1109.832342,8807.752882,8041.861327,9956.590215
1109.832655,4365.581863,8654.574571,9114.109504
1109.832951,-1302.015643,6663.256528,9956.590215
1109.833247,-8271.628794,765.891555,11488.373325
1109.833543,-10645.892614,-5054.884263,12790.388968
1109.833839,-7505.737239,-7658.915550,11335.195014
1109.834135,-842.480710,-6433.489062,9114.109504
1109.834431,2527.442131,-4059.225241,9650.233593
1109.834727,5208.062574,-382.945777,10722.481770
1109.835026,5973.954129,3369.922842,11488.373325
1109.835327,3599.690308,5437.830040,11488.373325
1109.835628,-1302.015643,5744.186662,10722.481770
1109.835929,-6203.721595,3369.922842,10416.125148
1109.836229,-10033.179370,-1455.193954,11488.373325
1109.836530,-8424.807105,-5820.775818,11335.195014
1109.836831,-4978.295107,-6433.489062,10262.946837
1109.837132,1531.783110,-5054.884263,9650.233593
1109.837439,7429.148083,-1608.372265,10569.303459
1109.837736,9956.590215,3982.636086,10722.481770
1109.838032,11028.838392,7888.683016,9880.001059
1109.838329,5667.597507,8807.752882,9114.109504
1109.838626,-229.767466,5437.830040,9650.233593
1109.838923,-7122.791461,459.534933,10875.660081
1109.839220,-9497.055282,-4825.116796,11182.016703
1109.839517,-7352.558928,-8424.807105,11182.016703
1109.839831,-842.480710,-7965.272172,9880.001059
1109.840134,3752.868619,-6433.489062,10033.179370
1109.840437,7122.791461,-2221.085509,10875.660081
1109.840739,7735.504705,2450.852976,10109.768526
1109.841042,4901.705952,4595.349330,9420.466126
1109.841345,-1302.015643,5284.651729,9880.001059
1109.841648,-7505.737239,1531.783110,10722.481770
1109.841950,-11718.140791,-2374.263820,11182.016703
1109.842269,-10492.714303,-6739.845684,10569.303459
1109.842565,-7122.791461,-8424.807105,9956.590215
1109.842861,-229.767466,-7352.558928,10262.946837
1109.843157,6127.132440,-3140.155375,9956.590215
1109.843453,10416.125148,1531.783110,9956.590215
1109.843749,11028.838392,4442.171019,9573.644437
1109.844046,6739.845684,5437.830040,8731.163727
1109.844342,1531.783110,3216.744531,9803.411904
1109.844687,-4288.992708,-1608.372265,10416.125148
1109.844978,-7505.737239,-6893.023995,11335.195014
1109.845269,-6203.721595,-9037.520349,10875.660081
1109.845561,-2450.852976,-8271.628794,9956.590215
1109.845852,1225.426488,-5973.954129,10033.179370
1109.846143,4059.225241,-1608.372265,11641.551636
1109.846434,5361.240885,3063.566220,12254.264880
1109.846725,4212.403552,6356.899906,10569.303459
1109.847048,-229.767466,6816.434839,10492.714303
1109.847340,-4748.527641,3676.279464,10875.660081
1109.847631,-7505.737239,-689.302399,11564.962480
1109.847922,-6663.256528,-4059.225241,10645.892614
1109.848213,-2757.209598,-5514.419196,8960.931193
1109.848504,612.713244,-5054.884263,9114.109504
1109.848796,3752.868619,-3752.868619,10722.481770
1109.849087,4212.403552,-1914.728887,13096.745590
1109.849412,5208.062574,2450.852976,11794.729947
1109.849715,4212.403552,5591.008351,10569.303459
1109.850017,765.891555,6203.721595,9803.411904
1109.850320,-3982.636086,2910.387909,9573.644437
1109.850623,-6663.256528,-382.945777,10875.660081
1109.850925,-5897.364973,-3752.868619,10569.303459
1109.851228,-4748.527641,-6433.489062,11028.838392
1109.851531,459.534933,-6586.667373,10416.125148
1109.851839,6280.310751,-2833.798753,10875.660081
1109.852138,9803.411904,2450.852976,10033.179370
1109.852438,9956.590215,5744.186662,9114.109504
1109.852738,4365.581863,6816.434839,9650.233593
1109.853038,-1455.193954,5284.651729,10416.125148
1109.853338,-7812.093861,306.356622,11182.016703
1109.853638,-9343.876971,-3752.868619,11182.016703
1109.853937,-7965.272172,-5667.597507,10722.481770
1109.854221,-3216.744531,-6127.132440,10262.946837
1109.854524,2680.620442,-3140.155375,10416.125148
1109.854827,8348.217949,612.713244,10569.303459
1109.855129,9420.466126,3676.279464,10262.946837
1109.855432,5973.954129,4978.295107,9573.644437
1109.855735,2144.496354,4288.992708,9573.644437
1109.856038,-4748.527641,-0.000000,10109.768526
1109.856341,-8271.628794,-5054.884263,10569.303459
1109.856655,-8884.342038,-8731.163727,10569.303459
1109.856953,-5284.651729,-8884.342038,10109.768526
1109.857250,-382.945777,-7352.558928,10339.535992
1109.857547,5054.884263,-3599.690308,11028.838392
1109.857844,8960.931193,1838.139732,10569.303459
1109.858142,9497.055282,6050.543284,9114.109504
1109.858439,4212.403552,6816.434839,9420.466126
1109.858736,-1914.728887,4978.295107,9956.590215
1109.859026,-8118.450483,-229.767466,11488.373325
1109.859323,-9343.876971,-5973.954129,12101.086569
1109.859619,-7122.791461,-8118.450483,11335.195014
1109.859916,-1455.193954,-7199.380617,9956.590215
1109.860213,4059.225241,-3752.868619,9650.233593
1109.860509,8041.861327,-382.945777,10492.714303
1109.860806,8501.396260,4135.814397,11488.373325
1109.861103,5054.884263,6050.543284,10875.660081
1109.861412,919.069866,6203.721595,10569.303459
1109.861710,-5131.473418,1531.783110,10262.946837
1109.862009,-9880.001059,-3599.690308,11105.427547
1109.862307,-8884.342038,-6739.845684,11335.195014
1109.862606,-4978.295107,-7505.737239,10262.946837
1109.862904,459.534933,-6433.489062,10109.768526
1109.863203,5054.884263,-2986.977064,11182.016703
1109.863501,7582.326394,2450.852976,11028.838392
1109.863808,7582.326394,6050.543284,9956.590215
1109.864108,2144.496354,6356.899906,9956.590215
1109.864408,-3369.922842,4442.171019,10875.660081
1109.864707,-8424.807105,-689.302399,11182.016703
1109.865007,-9037.520349,-4901.705952,11182.016703
1109.865307,-5897.364973,-6893.023995,10109.768526
1109.865606,612.713244,-5361.240885,9114.109504
1109.865906,7046.202306,-1914.728887,9267.287815
1109.866203,10416.125148,1838.139732,10569.303459
1109.866502,9650.233593,5437.830040,11335.195014
1109.866802,6127.132440,8501.396260,10262.946837
1109.867101,1684.961421,8654.574571,9420.466126
1109.867401,-5591.008351,3829.457775,10339.535992
1109.867701,-11564.962480,-2527.442131,12254.264880
1109.868000,-10799.070925,-6893.023995,11641.551636
1109.868300,-5284.651729,-6739.845684,9726.822748
1109.868627,1991.318043,-5973.954129,9114.109504
1109.868926,5667.597507,-3599.690308,10262.946837
1109.869225,9497.055282,1225.426488,9956.590215
1109.869524,9114.109504,4595.349330,10109.768526
1109.869822,4059.225241,3829.457775,9956.590215
1109.870121,-4978.295107,-76.589155,10952.249236
1109.870420,-10952.249236,-4901.705952,12560.621502
1109.870719,-10492.714303,-7046.202306,10875.660081
1109.870972,-7122.791461,-8424.807105,8960.931193
1109.871278,-382.945777,-6893.023995,8348.217949
1109.871584,4671.938485,-3446.511997,9267.287815
1109.871889,9267.287815,612.713244,10569.303459
1109.872195,8807.752882,3369.922842,11947.908258
1109.872501,5973.954129,4748.527641,10416.125148
1109.872807,1531.783110,4748.527641,9956.590215
1109.873113,-3676.279464,1378.604799,9956.590215
1109.873422,-7122.791461,-4365.581863,10492.714303
1109.873720,-7199.380617,-7812.093861,11488.373325
1109.874019,-2910.387909,-6893.023995,10262.946837
1109.874318,1378.604799,-4671.938485,9267.287815
1109.874616,3140.155375,-2527.442131,10875.660081
1109.874915,4059.225241,1225.426488,12407.443191
1109.875214,4671.938485,5284.651729,11488.373325
1109.875512,459.534933,6356.899906,11411.784169
1109.875819,-2604.031287,5591.008351,10416.125148
1109.876117,-6816.434839,1684.961421,10875.660081
1109.876416,-6510.078217,-1761.550576,10875.660081
1109.876714,-4288.992708,-4671.938485,9650.233593
1109.877012,-1302.015643,-4901.705952,10262.946837
1109.877310,2527.442131,-3293.333686,11335.195014
1109.877608,7735.504705,612.713244,11182.016703
1109.877906,10262.946837,5744.186662,9803.411904
1109.878222,7046.202306,6663.256528,9267.287815
1109.878521,153.178311,4825.116796,10109.768526
1109.878819,-5591.008351,1072.248177,11182.016703
1109.879118,-8424.807105,-2833.798753,11488.373325
1109.879416,-8424.807105,-5514.419196,11488.373325
1109.879715,-5744.186662,-5667.597507,10416.125148
1109.880013,612.713244,-3140.155375,9573.644437
1109.880312,6127.132440,-842.480710,9267.287815
1109.880626,7888.683016,2604.031287,11028.838392
1109.880925,7122.791461,3982.636086,11335.195014
1109.881223,3293.333686,5591.008351,10109.768526
1109.881522,-229.767466,3676.279464,9956.590215
1109.881821,-7352.558928,-2067.907198,11182.016703
1109.882119,-10492.714303,-6433.489062,11794.729947
1109.882418,-7352.558928,-7658.915550,10875.660081
1109.882717,-1608.372265,-6280.310751,9573.644437
1109.882994,4365.581863,-4518.760174,9803.411904
1109.883295,9267.287815,-76.589155,9650.233593
1109.883597,11488.373325,4288.992708,9650.233593
1109.883898,8501.396260,4748.527641,8960.931193
1109.884200,1378.604799,3982.636086,10186.357681
1109.884502,-5744.186662,459.534933,10722.481770
1109.884803,-10033.179370,-4671.938485,11335.195014
1109.885105,-10799.070925,-8424.807105,11182.016703
1109.885427,-7505.737239,-9343.876971,10262.946837
1109.885721,-2067.907198,-7352.558928,9956.590215
1109.886016,3906.046930,-3752.868619,10339.535992
1109.886310,7275.969772,459.534933,11105.427547
1109.886604,8501.396260,4135.814397,10109.768526
1109.886898,4212.403552,6203.721595,9726.822748
1109.887192,-76.589155,3982.636086,9956.590215
1109.887486,-4978.295107,-995.659021,11182.016703
1109.887793,-8271.628794,-5514.419196,11794.729947
1109.888097,-6356.899906,-7352.558928,10875.660081
1109.888400,-995.659021,-4825.116796,9573.644437
1109.888703,5514.419196,-2067.907198,8731.163727
1109.889007,8501.396260,2297.674665,10262.946837
1109.889310,8041.861327,6356.899906,10875.660081
1109.889613,4748.527641,7735.504705,10262.946837
1109.889917,-2374.263820,6356.899906,11488.373325
1109.890237,-8424.807105,459.534933,11794.729947
1109.890534,-13020.156435,-4518.760174,12943.567279
1109.890831,-9726.822748,-7199.380617,11182.016703
1109.891128,-3829.457775,-6586.667373,9573.644437
1109.891425,2527.442131,-4901.705952,8501.396260
1109.891722,6893.023995,-1914.728887,10262.946837
1109.892019,8501.396260,1225.426488,12254.264880
1109.892316,9114.109504,5284.651729,10109.768526
1109.892589,4748.527641,5897.364973,9956.590215
1109.892889,-842.480710,4135.814397,9573.644437
1109.893189,-7122.791461,-536.124088,11028.838392
1109.893489,-8577.985416,-4901.705952,12254.264880
1109.893790,-5897.364973,-6280.310751,10875.660081
1109.894090,-1455.193954,-4365.581863,9650.233593
1109.894390,3906.046930,-1148.837332,9267.287815
1109.894690,7582.326394,3063.566220,9956.590215
1109.895007,8501.396260,5897.364973,10722.481770
1109.895306,5973.954129,6816.434839,10262.946837
1109.895604,306.356622,5897.364973,10416.125148
1109.895903,-4595.349330,1072.248177,10569.303459
1109.896201,-9497.055282,-4059.225241,11488.373325
1109.896500,-8424.807105,-7965.272172,10875.660081
1109.896799,-5744.186662,-8424.807105,9956.590215
1109.897097,-382.945777,-6739.845684,9803.411904
1109.897397,4518.760174,-3599.690308,9956.590215
1109.897694,8654.574571,153.178311,10262.946837
1109.897992,8348.217949,3676.279464,9956.590215
1109.898289,4671.938485,3982.636086,10416.125148
1109.898587,-689.302399,1684.961421,10569.303459
1109.898884,-4748.527641,-689.302399,10722.481770
1109.899182,-6969.613150,-4671.938485,11335.195014
1109.899479,-5437.830040,-5514.419196,9267.287815
1109.899786,-842.480710,-4212.403552,8348.217949
1109.900088,2833.798753,-2833.798753,9573.644437
1109.900389,5820.775818,-76.589155,10416.125148
1109.900691,6127.132440,2910.387909,11947.908258
1109.900993,5514.419196,4748.527641,10875.660081
1109.901295,-0.000000,4442.171019,10033.179370
1109.901596,-4442.171019,459.534933,10722.481770
1109.901898,-10186.357681,-4671.938485,11794.729947
1109.902178,-10339.535992,-8731.163727,11794.729947
1109.902483,-5744.186662,-9497.055282,10722.481770
1109.902788,765.891555,-7812.093861,9650.233593
1109.903094,6127.132440,-3906.046930,9956.590215
1109.903399,9650.233593,612.713244,10722.481770
1109.903704,9497.055282,4442.171019,9803.411904
1109.904009,5054.884263,6050.543284,9956.590215
1109.904314,-3063.566220,4135.814397,11488.373325
1109.904587,-8577.985416,306.356622,11641.551636
1109.904890,-10186.357681,-3906.046930,11258.605858
1109.905192,-7505.737239,-5667.597507,11182.016703
1109.905495,-2450.852976,-4671.938485,9803.411904
1109.905797,4059.225241,-2221.085509,9114.109504
1109.906100,9956.590215,1684.961421,9726.822748
1109.906402,10416.125148,5284.651729,10262.946837
1109.906705,8348.217949,8041.861327,9956.590215
1109.906977,1531.783110,7275.969772,9803.411904
1109.907278,-4748.527641,2297.674665,10722.481770
1109.907579,-11105.427547,-4212.403552,13862.637145
1109.907880,-11564.962480,-8271.628794,12407.443191
1109.908181,-7505.737239,-9037.520349,10109.768526
1109.908481,-842.480710,-6586.667373,9267.287815
1109.908782,4901.705952,-3293.333686,9420.466126
1109.909083,8501.396260,1378.604799,10416.125148
1109.909383,9267.287815,6050.543284,10416.125148
1109.909682,5667.597507,8041.861327,9726.822748
1109.909982,153.178311,6663.256528,9803.411904
1109.910281,-6203.721595,919.069866,11182.016703
1109.910580,-10952.249236,-5667.597507,12866.978124
1109.910879,-8118.450483,-8424.807105,10875.660081
1109.911178,-1914.728887,-7046.202306,9114.109504
1109.911477,4901.705952,-4365.581863,7429.148083
1109.911756,8960.931193,-842.480710,9573.644437
1109.912060,9420.466126,3369.922842,11028.838392
1109.912364,8807.752882,6663.256528,9573.644437
1109.912667,2374.263820,6050.543284,10109.768526
1109.912971,-4442.171019,1991.318043,10569.303459
1109.913275,-9726.822748,-2833.798753,11488.373325
1109.913579,-9726.822748,-7046.202306,11488.373325
1109.913882,-6969.613150,-8577.985416,9803.411904
1109.914189,-1148.837332,-7965.272172,9420.466126
1109.914486,2297.674665,-5054.884263,11105.427547
1109.914784,6586.667373,-689.302399,11182.016703
1109.915081,7275.969772,4288.992708,11182.016703
1109.915378,4212.403552,6816.434839,10262.946837
1109.915675,-689.302399,5897.364973,9573.644437
1109.915973,-6510.078217,765.891555,11488.373325
1109.916270,-10339.535992,-5054.884263,12713.799813
1109.916566,-7122.791461,-7658.915550,10952.249236
1109.916868,-1608.372265,-5667.597507,9114.109504
1109.917169,4671.938485,-3752.868619,8807.752882
1109.917470,9420.466126,-1302.015643,10109.768526
1109.917771,10722.481770,2910.387909,11794.729947
1109.918072,9650.233593,6203.721595,9956.590215
1109.918373,3906.046930,6356.899906,9650.233593
1109.918674,-2604.031287,3676.279464,11028.838392
1109.918969,-9037.520349,-2067.907198,11411.784169
1109.919270,-10645.892614,-6280.310751,12254.264880
1109.919571,-8577.985416,-7812.093861,11028.838392
1109.919871,-4135.814397,-7352.558928,9956.590215
1109.920172,765.891555,-4365.581863,10569.303459
1109.920473,4059.225241,-689.302399,12407.443191
1109.920774,7275.969772,4825.116796,11335.195014
1109.921075,6893.023995,7275.969772,9803.411904
1109.921363,1991.318043,6510.078217,9420.466126
1109.921664,-4288.992708,1531.783110,10262.946837
1109.921964,-10339.535992,-3906.046930,12560.621502
1109.922265,-9037.520349,-7352.558928,11335.195014
1109.922566,-4135.814397,-7812.093861,9803.411904
1109.922867,2527.442131,-5208.062574,8960.931193
1109.923168,8960.931193,-1302.015643,9573.644437
1109.923468,12024.497413,3369.922842,9803.411904
1109.923778,12177.675724,6203.721595,9573.644437
1109.924077,6280.310751,6969.613150,9650.233593
1109.924376,306.356622,4978.295107,9650.233593
1109.924676,-6663.256528,459.534933,10799.070925
1109.924975,-9573.644437,-4518.760174,11182.016703
1109.925275,-11105.427547,-8118.450483,11947.908258
1109.925574,-6356.899906,-7046.202306,10569.303459
1109.925873,-995.659021,-4365.581863,9650.233593
1109.926180,2374.263820,-1455.193954,11488.373325
1109.926480,4518.760174,3063.566220,11335.195014
1109.926780,5361.240885,5437.830040,9880.001059
1109.927079,3293.333686,5591.008351,9267.287815
1109.927379,-2221.085509,459.534933,9650.233593
1109.927679,-6203.721595,-4825.116796,11641.551636
1109.927978,-5897.364973,-8424.807105,10875.660081
1109.928278,-1608.372265,-8731.163727,9420.466126
1109.928575,2680.620442,-5667.597507,9573.644437
1109.928872,7275.969772,-1608.372265,9573.644437
1109.929170,9650.233593,3523.101153,9956.590215
1109.929467,8807.752882,7275.969772,10416.125148
1109.929764,2527.442131,7275.969772,10109.768526
1109.930062,-4288.992708,4978.295107,10569.303459
1109.930359,-12254.264880,-1914.728887,13249.923901
1109.930657,-16313.490121,-8271.628794,14322.172078
1109.930971,-12254.264880,-9650.233593,12254.264880
1109.931270,-3063.566220,-6280.310751,9420.466126
1109.931568,4518.760174,-3906.046930,8348.217949
1109.931867,8807.752882,-1455.193954,10109.768526
1109.932166,10722.481770,3523.101153,11182.016703
1109.932464,9267.287815,4135.814397,9726.822748
1109.932763,4059.225241,3369.922842,9956.590215
1109.933062,-3523.101153,-842.480710,10262.946837
1109.933374,-8271.628794,-4825.116796,11105.427547
1109.933674,-6816.434839,-7199.380617,10875.660081
1109.933974,-4748.527641,-6586.667373,10033.179370
1109.934274,919.069866,-2986.977064,9650.233593
1109.934574,4059.225241,1531.783110,10109.768526
1109.934873,6893.023995,6203.721595,11641.551636
1109.935173,7429.148083,10109.768526,10186.357681
1109.935473,3140.155375,11488.373325,10416.125148
1109.935773,-2450.852976,8501.396260,10569.303459
1109.936072,-8271.628794,1684.961421,11258.605858
1109.936371,-10492.714303,-4365.581863,12407.443191
1109.936671,-9343.876971,-8424.807105,10875.660081
1109.936970,-4748.527641,-8577.985416,9956.590215
1109.937269,1991.318043,-5973.954129,10109.768526
1109.937568,7275.969772,-2221.085509,9803.411904
1109.937868,9803.411904,2910.387909,9956.590215
1109.938175,8348.217949,5437.830040,9803.411904
1109.938475,4212.403552,5284.651729,9803.411904
1109.938776,-842.480710,2450.852976,10262.946837
1109.939077,-4978.295107,-842.480710,10416.125148
1109.939378,-6203.721595,-4825.116796,10722.481770
1109.939678,-5437.830040,-6127.132440,10569.303459
1109.939979,-76.589155,-3140.155375,10262.946837
1109.940280,4671.938485,-382.945777,9956.590215
1109.940596,5208.062574,2297.674665,11028.838392
1109.940890,4671.938485,5284.651729,11182.016703
1109.941183,1684.961421,6356.899906,10262.946837
1109.941477,-2757.209598,3369.922842,10262.946837
1109.941771,-8271.628794,-2833.798753,11182.016703
1109.942064,-11258.605858,-6893.023995,12407.443191
1109.942358,-8424.807105,-8577.985416,10875.660081
1109.942652,-2757.209598,-8731.163727,8960.931193
1109.942970,4212.403552,-6586.667373,9420.466126
1109.943269,8654.574571,-2833.798753,10262.946837
1109.943567,10722.481770,1531.783110,9573.644437
1109.943865,9497.055282,4135.814397,8960.931193
1109.944163,3752.868619,3676.279464,9114.109504
1109.944462,-3676.279464,459.534933,10262.946837
1109.944760,-9573.644437,-3599.690308,12713.799813
1109.945058,-10492.714303,-6433.489062,11564.962480
1109.945371,-8731.163727,-6893.023995,10416.125148
1109.945669,-3063.566220,-4059.225241,10262.946837
1109.945968,3293.333686,-689.302399,10569.303459
1109.946266,6893.023995,3216.744531,12254.264880
1109.946565,8501.396260,7582.326394,11182.016703
1109.946863,6280.310751,10109.768526,9267.287815
1109.947162,2297.674665,7735.504705,9267.287815
1109.947460,-4825.116796,919.069866,10722.481770
1109.947760,-9573.644437,-7199.380617,12330.854035
1109.948060,-7658.915550,-9037.520349,10875.660081
1109.948360,-3369.922842,-9037.520349,9650.233593
1109.948661,2297.674665,-7199.380617,9420.466126
1109.948961,6586.667373,-2680.620442,10262.946837
1109.949261,8195.039638,3216.744531,11488.373325
1109.949561,7122.791461,6816.434839,10262.946837
1109.949862,1225.426488,8501.396260,9114.109504
1109.950169,-4595.349330,5284.651729,10722.481770
1109.950466,-13326.513057,-2221.085509,14015.815456
1109.950763,-12254.264880,-6893.023995,13403.102212
1109.951059,-5744.186662,-6433.489062,9803.411904
1109.951356,2986.977064,-4518.760174,8195.039638
1109.951653,9420.466126,-1761.550576,8807.752882
1109.951950,11028.838392,2297.674665,10262.946837
1109.952247,12024.497413,6816.434839,10109.768526
1109.952561,7582.326394,8195.039638,8501.396260
1109.952864,-0.000000,5897.364973,9956.590215
1109.953166,-7352.558928,306.356622,11182.016703
1109.953469,-12713.799813,-5973.954129,11718.140791
1109.953772,-10033.179370,-9190.698660,12254.264880
1109.954075,-4825.116796,-8884.342038,10722.481770
1109.954377,1531.783110,-5973.954129,9803.411904
1109.954680,6127.132440,-1455.193954,10416.125148
1109.954999,8195.039638,3216.744531,9956.590215
1109.955295,6127.132440,5897.364973,10722.481770
1109.955591,-76.589155,6203.721595,10109.768526
1109.955887,-3982.636086,3829.457775,9803.411904
1109.956183,-8577.985416,-1608.372265,11641.551636
1109.956479,-7658.915550,-6893.023995,11105.427547
1109.956775,-3982.636086,-9037.520349,9650.233593
1109.957071,2374.263820,-6893.023995,8807.752882
1109.957343,7429.148083,-4212.403552,9420.466126
1109.957645,8348.217949,-1455.193954,11028.838392
1109.957947,7888.683016,4135.814397,11641.551636
1109.958249,6280.310751,7122.791461,9420.466126
1109.958550,1378.604799,6356.899906,8807.752882
1109.958852,-5437.830040,612.713244,10416.125148
1109.959154,-10645.892614,-5667.597507,12560.621502
1109.959456,-9343.876971,-8424.807105,12101.086569
1109.959755,-4442.171019,-7199.380617,9803.411904
1109.960053,-76.589155,-5208.062574,10109.768526
1109.960350,2374.263820,-1455.193954,11641.551636
1109.960648,4748.527641,3063.566220,11947.908258
1109.960945,5054.884263,6356.899906,10722.481770
1109.961243,-0.000000,6510.078217,10569.303459
1109.961540,-2604.031287,3523.101153,9803.411904
1109.961837,-5591.008351,-1455.193954,11182.016703
1109.962168,-4748.527641,-7046.202306,11335.195014
1109.962465,-1302.015643,-9037.520349,9573.644437
1109.962762,3293.333686,-6280.310751,9420.466126
1109.963058,8041.861327,-2833.798753,9267.287815
1109.963355,8960.931193,1072.248177,10262.946837
1109.963652,8195.039638,6510.078217,10109.768526
1109.963949,3752.868619,8348.217949,10109.768526
1109.964246,-2374.263820,6203.721595,10416.125148
1109.964554,-8884.342038,765.891555,12254.264880
1109.964854,-12101.086569,-4059.225241,12560.621502
1109.965154,-9880.001059,-6893.023995,11028.838392
1109.965454,-4595.349330,-6739.845684,9956.590215
1109.965753,1838.139732,-4825.116796,10262.946837
1109.966053,5208.062574,-1608.372265,10569.303459
1109.966353,7429.148083,2910.387909,11028.838392
1109.966653,8348.217949,6816.434839,9650.233593
1109.966936,3599.690308,6816.434839,8960.931193
1109.967241,-2221.085509,3369.922842,10109.768526
1109.967546,-6816.434839,-2221.085509,11335.195014
1109.967850,-7199.380617,-6280.310751,11335.195014
1109.968155,-3369.922842,-7812.093861,10109.768526
1109.968460,2527.442131,-5208.062574,9037.520349
1109.968765,7888.683016,-2067.907198,8960.931193
1109.969069,9956.590215,1225.426488,10109.768526
1109.969342,8654.574571,6203.721595,10416.125148
1109.969645,5820.775818,8501.396260,9803.411904
1109.969949,-1761.550576,6816.434839,10109.768526
1109.970253,-10186.357681,-382.945777,11335.195014
1109.970557,-16696.435899,-7352.558928,13786.047990
1109.970861,-14781.707011,-9343.876971,13556.280523
1109.971165,-6969.613150,-8271.628794,9880.001059
1109.971469,1684.961421,-4825.116796,8501.396260
1109.971758,7046.202306,-842.480710,9650.233593
1109.972054,9956.590215,1838.139732,10569.303459
1109.972350,10875.660081,6203.721595,9956.590215
1109.972646,7429.148083,6203.721595,7965.272172
1109.972942,306.356622,1225.426488,9420.466126
1109.973238,-7122.791461,-4825.116796,12254.264880
1109.973533,-7122.791461,-8884.342038,12101.086569
1109.973829,-3523.101153,-9650.233593,9956.590215
1109.974166,765.891555,-6586.667373,8807.752882
1109.974461,4212.403552,-3446.511997,10109.768526
1109.974755,4901.705952,306.356622,11182.016703
1109.975050,4671.938485,6510.078217,12943.567279
1109.975344,2144.496354,8348.217949,10875.660081
1109.975639,-3829.457775,7122.791461,11028.838392
1109.975934,-8424.807105,2757.209598,12407.443191
1109.976228,-9497.055282,-1455.193954,12254.264880
1109.976535,-6969.613150,-5667.597507,10799.070925
1109.976836,-3369.922842,-7199.380617,9803.411904
1109.977136,2527.442131,-6127.132440,9420.466126
1109.977437,6893.023995,-2680.620442,10109.768526
1109.977737,9803.411904,1378.604799,11335.195014
1109.978038,8348.217949,4135.814397,9497.055282
1109.978338,3906.046930,5744.186662,9803.411904
1109.978639,-1302.015643,2910.387909,9650.233593
1109.978941,-8118.450483,-2067.907198,12101.086569
1109.979239,-9726.822748,-5973.954129,12713.799813
1109.979537,-6203.721595,-5973.954129,9803.411904
1109.979835,1378.604799,-3293.333686,8041.861327
1109.980133,7582.326394,-382.945777,8348.217949
1109.980431,8501.396260,2604.031287,10722.481770
1109.980730,8041.861327,6050.543284,12101.086569
1109.981028,6280.310751,8195.039638,10262.946837
1109.981322,612.713244,7429.148083,9956.590215
1109.981623,-6816.434839,2297.674665,10262.946837
1109.981923,-14475.350389,-4671.938485,12790.388968
1109.982223,-11718.140791,-7812.093861,11641.551636
1109.982523,-6356.899906,-8884.342038,10109.768526
1109.982823,1225.426488,-6893.023995,9956.590215
1109.983123,7735.504705,-3140.155375,9650.233593
1109.983423,11794.729947,1684.961421,9956.590215
1109.983735,11335.195014,4978.295107,9190.698660
1109.984036,4059.225241,5437.830040,9880.001059
1109.984337,-2374.263820,3523.101153,10109.768526
1109.984637,-8424.807105,-689.302399,10722.481770
1109.984938,-10033.179370,-6433.489062,12254.264880
1109.985239,-7199.380617,-10033.179370,11028.838392
1109.985540,-995.659021,-6739.845684,9267.287815
1109.985840,5973.954129,-3140.155375,8807.752882
1109.986173,7275.969772,-689.302399,10262.946837
1109.986465,5820.775818,3063.566220,12866.978124
1109.986757,3906.046930,6663.256528,12254.264880
1109.987049,459.534933,8348.217949,9114.109504
1109.987341,-4442.171019,3676.279464,9343.876971
1109.987633,-10799.070925,-3446.511997,12254.264880
1109.987925,-10339.535992,-7658.915550,12254.264880
1109.988217,-4595.349330,-7658.915550,10722.481770
1109.988524,3446.511997,-6280.310751,8807.752882
1109.988823,6739.845684,-3906.046930,10109.768526
1109.989122,7888.683016,-0.000000,11794.729947
1109.989421,8807.752882,4748.527641,10109.768526
1109.989720,4365.581863,5744.186662,9267.287815
1109.990019,-2067.907198,4135.814397,9497.055282
1109.990317,-8884.342038,-1608.372265,11947.908258
1109.990616,-10952.249236,-5973.954129,12637.210657
1109.990933,-7658.915550,-9190.698660,11641.551636
1109.991234,-2450.852976,-7046.202306,9267.287815
1109.991535,5208.062574,-1608.372265,8501.396260
1109.991836,9803.411904,2450.852976,9650.233593
1109.992137,10109.768526,5744.186662,10416.125148
1109.992438,7122.791461,8195.039638,10416.125148
1109.992739,2144.496354,7888.683016,9114.109504
1109.993040,-4288.992708,2604.031287,11182.016703
1109.993354,-12101.086569,-5514.419196,12790.388968
1109.993651,-11105.427547,-7352.558928,12254.264880
1109.993947,-5591.008351,-7658.915550,10262.946837
1109.994243,1991.318043,-6586.667373,9114.109504
1109.994539,6280.310751,-2986.977064,9650.233593
1109.994836,8501.396260,1838.139732,10645.892614
1109.995132,8960.931193,6663.256528,10569.303459
1109.995428,4901.705952,7429.148083,9650.233593
1109.995716,-1914.728887,5131.473418,10875.660081
1109.996016,-7965.272172,306.356622,11641.551636
1109.996316,-10033.179370,-3599.690308,12101.086569
1109.996616,-6510.078217,-5667.597507,10416.125148
1109.996916,-2067.907198,-5054.884263,9343.876971
1109.997216,2680.620442,-3752.868619,9803.411904
1109.997516,6893.023995,-76.589155,11258.605858
1109.997816,8654.574571,3216.744531,11182.016703
1109.998171,7275.969772,5897.364973,9650.233593
1109.998463,1378.604799,6050.543284,9267.287815
1109.998754,-3676.279464,1378.604799,10109.768526
1109.999045,-8731.163727,-3906.046930,12484.032346
1109.999336,-9190.698660,-7965.272172,11794.729947
1109.999627,-4288.992708,-8118.450483,9420.466126
1109.999919,2833.798753,-5208.062574,7735.504705
1110.000210,6893.023995,-2986.977064,9037.520349
1110.000517,6893.023995,-536.124088,11335.195014
1110.000817,5054.884263,3216.744531,11794.729947
1110.001117,2297.674665,5897.364973,10109.768526
1110.001417,-3063.566220,3982.636086,9956.590215
1110.001717,-9726.822748,-995.659021,11794.729947
1110.002017,-11718.140791,-5361.240885,12713.799813
1110.002317,-7658.915550,-6893.023995,10952.249236
1110.002617,-1608.372265,-6280.310751,8960.931193
1110.002938,5667.597507,-4365.581863,9420.466126
1110.003238,9956.590215,-689.302399,9803.411904
1110.003538,11028.838392,2450.852976,9803.411904
1110.003839,9267.287815,4748.527641,9726.822748
1110.004139,2833.798753,4442.171019,10109.768526
1110.004439,-3676.279464,1531.783110,10875.660081
1110.004740,-9190.698660,-3446.511997,12101.086569
1110.005040,-10645.892614,-7352.558928,12407.443191
1110.005278,-8271.628794,-8884.342038,10875.660081
1110.005583,-1914.728887,-5514.419196,9573.644437
1110.005888,4212.403552,-1148.837332,9573.644437
1110.006193,7122.791461,2144.496354,10875.660081
1110.006499,6586.667373,5897.364973,11335.195014
1110.006804,3752.868619,7735.504705,10416.125148
1110.007109,-229.767466,5897.364973,10262.946837
1110.007414,-5437.830040,-0.000000,11488.373325
1110.007731,-10186.357681,-4825.116796,12254.264880
1110.008027,-8271.628794,-7046.202306,11488.373325
1110.008323,-1761.550576,-5820.775818,9420.466126
1110.008619,5820.775818,-3446.511997,8654.574571
1110.008915,9267.287815,153.178311,9726.822748
1110.009211,8807.752882,3829.457775,10875.660081
1110.009507,9420.466126,7888.683016,9726.822748
1110.009803,5054.884263,8195.039638,8654.574571
1110.010103,-1914.728887,5284.651729,9880.001059
1110.010404,-9573.644437,-995.659021,11794.729947
1110.010704,-10492.714303,-5208.062574,11794.729947
1110.011005,-8731.163727,-9343.876971,11028.838392
1110.011306,-2910.387909,-7505.737239,9956.590215
1110.011606,3752.868619,-3599.690308,9650.233593
1110.011907,7046.202306,153.178311,9573.644437
1110.012208,7735.504705,4442.171019,10722.481770
1110.012515,3293.333686,5897.364973,9880.001059
1110.012816,-2221.085509,5437.830040,9956.590215
1110.013117,-9037.520349,-689.302399,11641.551636
1110.013418,-12866.978124,-6280.310751,12943.567279
1110.013719,-8424.807105,-7505.737239,10569.303459
1110.014020,-842.480710,-6280.310751,8424.807105
1110.014321,6893.023995,-4825.116796,8960.931193
1110.014621,11335.195014,-1455.193954,9803.411904
1110.014901,11335.195014,3216.744531,10875.660081
1110.015207,9114.109504,5437.830040,10262.946837
1110.015512,2680.620442,6816.434839,10416.125148
1110.015817,-3369.922842,4288.992708,9803.411904
1110.016122,-9880.001059,-1148.837332,12101.086569
1110.016427,-11947.908258,-6280.310751,12943.567279
1110.016733,-7965.272172,-7812.093861,10722.481770
1110.017038,-1761.550576,-6127.132440,9650.233593
1110.017311,3906.046930,-3752.868619,9573.644437
1110.017610,6893.023995,-229.767466,11028.838392
1110.017909,6433.489062,3369.922842,12101.086569
1110.018208,3293.333686,4825.116796,10109.768526
1110.018508,-995.659021,4748.527641,10339.535992
1110.018807,-5897.364973,459.534933,11488.373325
1110.019106,-8731.163727,-3446.511997,12407.443191
1110.019405,-5744.186662,-5514.419196,9956.590215
1110.019722,-1455.193954,-5208.062574,8884.342038
1110.020020,4518.760174,-3599.690308,8807.752882
1110.020318,8348.217949,-1761.550576,8960.931193
1110.020616,7888.683016,1991.318043,11641.551636
1110.020914,6893.023995,5897.364973,10339.535992
1110.021212,3752.868619,8195.039638,9650.233593
1110.021509,-382.945777,6203.721595,9650.233593
1110.021807,-7352.558928,-76.589155,10262.946837
1110.022095,-11871.319102,-5208.062574,12713.799813
1110.022396,-10339.535992,-7352.558928,11947.908258
1110.022697,-2374.263820,-6586.667373,9726.822748
1110.022998,3446.511997,-3752.868619,9497.055282
1110.023299,6280.310751,-382.945777,10569.303459
1110.023599,6739.845684,3369.922842,10416.125148
1110.023900,4748.527641,5744.186662,10416.125148
1110.024201,-0.000000,4825.116796,10109.768526
1110.024515,-6510.078217,612.713244,10875.660081
1110.024813,-10952.249236,-3293.333686,12713.799813
1110.025112,-6663.256528,-4671.938485,11335.195014
1110.025411,-229.767466,-5208.062574,9420.466126
1110.025710,6893.023995,-3752.868619,8424.807105
1110.026008,10722.481770,-1914.728887,9114.109504
1110.026307,11488.373325,2450.852976,10722.481770
1110.026606,10262.946837,6050.543284,9956.590215
1110.026913,3752.868619,6203.721595,9573.644437
1110.027210,-4595.349330,3063.566220,10262.946837
1110.027507,-11718.140791,-2221.085509,12407.443191
1110.027804,-14092.404612,-6586.667373,12330.854035
1110.028102,-11105.427547,-8884.342038,11258.605858
1110.028399,-4135.814397,-7812.093861,9956.590215
1110.028696,2986.977064,-4671.938485,9573.644437
1110.028993,8501.396260,-1302.015643,9497.055282
1110.029290,7888.683016,1991.318043,11335.195014
1110.029591,4901.705952,4442.171019,11028.838392
1110.029892,919.069866,5591.008351,9497.055282
1110.030193,-3829.457775,2144.496354,9803.411904
1110.030494,-8731.163727,-3293.333686,11641.551636
1110.030795,-8731.163727,-7965.272172,12407.443191
1110.031096,-3216.744531,-8884.342038,10033.179370
1110.031397,4671.938485,-6127.132440,8348.217949
1110.031692,10109.768526,-2067.907198,7888.683016
1110.031993,9497.055282,1378.604799,9956.590215
1110.032294,7735.504705,5131.473418,10416.125148
1110.032595,3293.333686,7122.791461,10645.892614
1110.032896,-2757.209598,4442.171019,10645.892614
1110.033196,-10645.892614,-842.480710,12101.086569
1110.033497,-13173.334746,-5208.062574,13249.923901
1110.033798,-8884.342038,-6127.132440,11028.838392
1110.034086,-1914.728887,-6433.489062,9803.411904
1110.034387,3446.511997,-4059.225241,9803.411904
1110.034688,6893.023995,-229.767466,10262.946837
1110.034989,7735.504705,4442.171019,10875.660081
1110.035289,4901.705952,6050.543284,10109.768526
1110.035590,-2067.907198,4825.116796,11641.551636
1110.035891,-6816.434839,1838.139732,11641.551636
1110.036192,-9726.822748,-2221.085509,11794.729947
1110.036501,-6356.899906,-4365.581863,10875.660081
1110.036800,-1148.837332,-5054.884263,9420.466126
1110.037100,5973.954129,-3599.690308,9114.109504
1110.037399,10416.125148,153.178311,9650.233593
1110.037698,11182.016703,2604.031287,9956.590215
1110.037998,8348.217949,4978.295107,10109.768526
1110.038297,3446.511997,6663.256528,10262.946837
1110.038597,-2067.907198,5591.008351,9880.001059
1110.038904,-8118.450483,612.713244,11335.195014
1110.039203,-10952.249236,-4365.581863,11794.729947
1110.039503,-9880.001059,-7199.380617,11182.016703
1110.039803,-4748.527641,-6739.845684,10262.946837
1110.040102,612.713244,-4671.938485,9956.590215
1110.040402,6127.132440,-689.302399,9956.590215
1110.040702,7122.791461,1378.604799,10875.660081
1110.041001,5973.954129,3829.457775,10262.946837
1110.041298,2374.263820,4748.527641,9650.233593
1110.041595,-2757.209598,1838.139732,9956.590215
1110.041893,-8577.985416,-3906.046930,11488.373325
1110.042190,-8731.163727,-6127.132440,11182.016703
1110.042487,-4825.116796,-7812.093861,9803.411904
1110.042785,1838.139732,-6586.667373,8348.217949
1110.043082,6280.310751,-4059.225241,9956.590215
1110.043380,8654.574571,153.178311,10722.481770
1110.043736,8960.931193,4748.527641,9343.876971
1110.044029,4901.705952,5897.364973,9956.590215
1110.044322,-1148.837332,3829.457775,10262.946837
1110.044614,-7965.272172,-995.659021,12101.086569
1110.044907,-11947.908258,-5973.954129,12713.799813
1110.045200,-8731.163727,-8884.342038,10722.481770
1110.045492,-2910.387909,-8884.342038,10262.946837
1110.045785,3140.155375,-6739.845684,9803.411904
1110.046096,7046.202306,-2680.620442,10569.303459
1110.046396,7429.148083,1991.318043,11028.838392
1110.046696,5208.062574,5131.473418,10339.535992
1110.046996,-1914.728887,5591.008351,10722.481770
1110.047296,-7122.791461,2757.209598,11641.551636
1110.047596,-10645.892614,-1302.015643,12637.210657
1110.047896,-7122.791461,-4365.581863,10799.070925
1110.048196,-689.302399,-4825.116796,9267.287815
1110.048496,7582.326394,-2067.907198,7582.326394
1110.048795,12024.497413,612.713244,8348.217949
1110.049095,11488.373325,2757.209598,9956.590215
1110.049394,8960.931193,6510.078217,11105.427547
1110.049694,2833.798753,8041.861327,9956.590215
1110.049993,-4135.814397,6203.721595,10109.768526
1110.050293,-12407.443191,-229.767466,12713.799813
1110.050593,-16313.490121,-6280.310751,13709.458834
1110.050900,-12866.978124,-9037.520349,12407.443191
1110.051200,-6510.078217,-8118.450483,10339.535992
1110.051501,2297.674665,-5208.062574,9497.055282
1110.051802,8195.039638,-0.000000,10186.357681
1110.052103,10416.125148,4288.992708,9803.411904
1110.052403,9650.233593,8348.217949,9420.466126
1110.052704,3599.690308,7888.683016,9114.109504
1110.053005,-1302.015643,3216.744531,9803.411904
1110.053240,-6663.256528,-2221.085509,12254.264880
1110.053545,-3676.279464,-5208.062574,10722.481770
1110.053851,-0.000000,-6893.023995,8501.396260
1110.054156,3599.690308,-6433.489062,8271.628794
1110.054461,5361.240885,-3140.155375,11028.838392
1110.054766,5820.775818,1225.426488,11794.729947
1110.055072,5973.954129,5591.008351,10722.481770
1110.055377,459.534933,8041.861327,9803.411904
1110.055644,-5591.008351,5437.830040,10875.660081
1110.055950,-10339.535992,-229.767466,12713.799813
1110.056257,-11947.908258,-4901.705952,12790.388968
1110.056563,-8424.807105,-6739.845684,11718.140791
1110.056869,-2757.209598,-6433.489062,9650.233593
1110.057176,4059.225241,-4518.760174,8807.752882
1110.057482,7888.683016,-2374.263820,9573.644437
1110.057789,5820.775818,-689.302399,11028.838392
1110.058101,3752.868619,2297.674665,10416.125148
1110.058397,1531.783110,3829.457775,9573.644437
1110.058693,-382.945777,919.069866,9114.109504
1110.058990,-5284.651729,-4212.403552,11488.373325
1110.059286,-5744.186662,-7352.558928,11947.908258
1110.059582,-689.302399,-6739.845684,9956.590215
1110.059878,5973.954129,-3446.511997,7888.683016
1110.060174,8041.861327,-842.480710,9650.233593
1110.060473,6433.489062,2450.852976,11335.195014
1110.060773,4901.705952,6663.256528,10645.892614
1110.061073,-76.589155,7122.791461,10339.535992
1110.061373,-6969.613150,4748.527641,12101.086569
1110.061673,-12866.978124,-536.124088,14015.815456
1110.061973,-12407.443191,-3752.868619,12790.388968
1110.062273,-7352.558928,-4365.581863,10722.481770
1110.062573,-2374.263820,-4518.760174,8960.931193
1110.062880,3599.690308,-2374.263820,9573.644437
1110.063183,8807.752882,-76.589155,10109.768526
1110.063485,11028.838392,2757.209598,10109.768526
1110.063788,9267.287815,4442.171019,9650.233593
1110.064091,4059.225241,3829.457775,8807.752882
1110.064393,-995.659021,306.356622,9726.822748
1110.064696,-7352.558928,-4518.760174,12330.854035
1110.064998,-8271.628794,-7965.272172,12254.264880
1110.065319,-6969.613150,-7965.272172,10033.179370
1110.065615,-842.480710,-3752.868619,9420.466126
1110.065911,4365.581863,-76.589155,8654.574571
1110.066207,5054.884263,2757.209598,10569.303459
1110.066504,5514.419196,6663.256528,11411.784169
1110.066800,4901.705952,8807.752882,9650.233593
1110.067096,1991.318043,7582.326394,9573.644437
1110.067392,-3369.922842,1378.604799,10722.481770
1110.067711,-10339.535992,-4059.225241,12713.799813
1110.068007,-9190.698660,-6586.667373,12254.264880
1110.068303,-4825.116796,-7046.202306,9803.411904
1110.068599,2144.496354,-5820.775818,8501.396260
1110.068895,4671.938485,-4059.225241,10109.768526
1110.069191,6586.667373,-536.124088,10416.125148
1110.069487,8348.217949,2757.209598,9650.233593
1110.069783,4518.760174,3063.566220,8960.931193
1110.070101,-1302.015643,1225.426488,10262.946837
1110.070395,-7658.915550,-1761.550576,12330.854035
1110.070689,-7352.558928,-4365.581863,11028.838392
1110.070984,-5744.186662,-5667.597507,9573.644437
1110.071278,-2221.085509,-4825.116796,10109.768526
1110.071573,2833.798753,-2833.798753,10109.768526
1110.071867,7429.148083,306.356622,10722.481770
1110.072162,8960.931193,3829.457775,11028.838392
1110.072462,5820.775818,5437.830040,9880.001059
1110.072762,306.356622,4748.527641,9573.644437
1110.073062,-6203.721595,459.534933,11641.551636
1110.073362,-11947.908258,-4825.116796,13096.745590
1110.073662,-9880.001059,-6893.023995,11182.016703
1110.073962,-6050.543284,-6893.023995,9956.590215
1110.074262,1072.248177,-6127.132440,9114.109504
1110.074562,5973.954129,-3140.155375,10262.946837
1110.074892,10262.946837,2450.852976,10109.768526
1110.075189,9803.411904,3982.636086,8960.931193
1110.075486,2986.977064,3523.101153,10722.481770
1110.075783,-3523.101153,2297.674665,11335.195014
1110.076080,-7658.915550,-1608.372265,11794.729947
1110.076377,-9726.822748,-6586.667373,12407.443191
1110.076674,-7505.737239,-7046.202306,11028.838392
1110.076971,-995.659021,-4212.403552,9573.644437
1110.077279,6280.310751,459.534933,8348.217949
1110.077579,9114.109504,2910.387909,9956.590215
1110.077878,6280.310751,5284.651729,12254.264880
1110.078178,4671.938485,7582.326394,10875.660081
1110.078478,1838.139732,8041.861327,9267.287815
1110.078778,-4825.116796,1991.318043,10722.481770
1110.079078,-11947.908258,-4671.938485,13632.869679
1110.079378,-9726.822748,-6739.845684,12713.799813
1110.079661,-3369.922842,-5820.775818,9114.109504
1110.079966,4059.225241,-4059.225241,7582.326394
1110.080271,4518.760174,-2833.798753,10109.768526
1110.080575,6280.310751,919.069866,12101.086569
1110.080880,8041.861327,5284.651729,10875.660081
1110.081185,4365.581863,6510.078217,9650.233593
1110.081490,-1455.193954,4825.116796,10416.125148
1110.081794,-7199.380617,1225.426488,11028.838392
1110.082112,-7965.272172,-2986.977064,11182.016703
1110.082409,-6816.434839,-6127.132440,11182.016703
1110.082707,-3063.566220,-5667.597507,10569.303459
1110.083004,3446.511997,-2221.085509,9420.466126
1110.083301,8654.574571,919.069866,9420.466126
1110.083599,9420.466126,3829.457775,10416.125148
1110.083896,7046.202306,5284.651729,9573.644437
1110.084194,1991.318043,5284.651729,9420.466126
1110.084426,-4135.814397,153.178311,9803.411904
1110.084730,-11105.427547,-6127.132440,13020.156435
1110.085034,-10799.070925,-9726.822748,12254.264880
1110.085338,-5591.008351,-9343.876971,9803.411904
1110.085642,765.891555,-7352.558928,8731.163727
1110.085946,4748.527641,-4671.938485,9420.466126
1110.086250,5667.597507,-536.124088,11335.195014
1110.086554,5820.775818,2910.387909,10722.481770
1110.086868,3140.155375,4595.349330,9650.233593
1110.087166,-2604.031287,3523.101153,10262.946837
1110.087464,-7658.915550,-1302.015643,11182.016703
1110.087762,-9190.698660,-5208.062574,11641.551636
1110.088059,-5591.008351,-6739.845684,11182.016703
1110.088357,-382.945777,-5973.954129,9956.590215
1110.088655,6893.023995,-2527.442131,8807.752882
1110.088953,10569.303459,2144.496354,9650.233593
1110.089260,9497.055282,4288.992708,10569.303459
1110.089560,5361.240885,5591.008351,10722.481770
1110.089861,-689.302399,5284.651729,11335.195014
1110.090162,-5437.830040,1531.783110,11335.195014
1110.090462,-10799.070925,-4059.225241,12790.388968
1110.090763,-8884.342038,-6127.132440,11947.908258
1110.091063,-4442.171019,-6280.310751,9267.287815
1110.091364,1378.604799,-4212.403552,9114.109504
1110.091660,4748.527641,-1455.193954,10109.768526
1110.091961,5973.954129,1991.318043,10875.660081
1110.092261,6127.132440,5437.830040,10875.660081
1110.092561,1225.426488,5591.008351,10262.946837
1110.092862,-4748.527641,3063.566220,11335.195014
1110.093162,-9726.822748,-2067.907198,12790.388968
1110.093463,-9880.001059,-5361.240885,12407.443191
1110.093763,-3063.566220,-5667.597507,8731.163727
1110.094058,2833.798753,-4365.581863,8501.396260
1110.094358,7275.969772,-1914.728887,8654.574571
1110.094658,11028.838392,1991.318043,9420.466126
1110.094958,10722.481770,5897.364973,10262.946837
1110.095258,7275.969772,6510.078217,9650.233593
1110.095558,-1302.015643,5131.473418,10952.249236
1110.095859,-6816.434839,2910.387909,11488.373325
1110.096159,-11411.784169,-2067.907198,12713.799813
1110.096447,-10339.535992,-5514.419196,12943.567279
1110.096748,-6356.899906,-5820.775818,10416.125148
1110.097048,459.534933,-3140.155375,9267.287815
1110.097349,6127.132440,-689.302399,9650.233593
1110.097650,7888.683016,459.534933,10569.303459
1110.097951,6586.667373,2604.031287,11182.016703
1110.098252,4365.581863,4748.527641,9650.233593
1110.098553,-689.302399,2450.852976,8960.931193
1110.098862,-5591.008351,-3293.333686,11794.729947
1110.099161,-10492.714303,-8731.163727,12943.567279
1110.099460,-6510.078217,-8271.628794,10262.946837
1110.099760,153.178311,-5208.062574,8271.628794
1110.100059,6433.489062,-3752.868619,8195.039638
1110.100359,8348.217949,-536.124088,9803.411904
1110.100658,7735.504705,3216.744531,10875.660081
1110.100957,6127.132440,6356.899906,10416.125148
1110.101264,765.891555,5131.473418,9650.233593
1110.101563,-5437.830040,2450.852976,11488.373325
1110.101861,-11411.784169,-3140.155375,12484.032346
1110.102159,-11258.605858,-6586.667373,12101.086569
1110.102457,-8118.450483,-7812.093861,11335.195014
1110.102755,-382.945777,-5820.775818,9573.644437
1110.103053,6280.310751,-2986.977064,8960.931193
1110.103351,8348.217949,459.534933,9956.590215
1110.103668,7888.683016,2450.852976,10416.125148
1110.103966,4059.225241,3216.744531,10262.946837
1110.104264,-689.302399,2604.031287,10109.768526
1110.104563,-6510.078217,-1914.728887,11182.016703
1110.104861,-11105.427547,-6127.132440,12790.388968
1110.105160,-6203.721595,-6893.023995,10569.303459
1110.105458,765.891555,-4365.581863,7735.504705
1110.105757,7046.202306,-2986.977064,8348.217949
1110.106071,9267.287815,612.713244,9573.644437
1110.106370,9497.055282,4978.295107,10262.946837
1110.106668,6280.310751,6203.721595,10416.125148
1110.106967,-229.767466,5437.830040,11182.016703
1110.107266,-7812.093861,2757.209598,12790.388968
1110.107565,-13020.156435,-3140.155375,13403.102212
1110.107863,-10339.535992,-5054.884263,12254.264880
1110.108162,-5591.008351,-6280.310751,10722.481770
1110.108474,1684.961421,-4212.403552,9267.287815
1110.108770,7735.504705,-1455.193954,8501.396260
1110.109065,9420.466126,2450.852976,9880.001059
1110.109361,8807.752882,5284.651729,11028.838392
1110.109657,2680.620442,5591.008351,10722.481770
1110.109953,-2221.085509,4825.116796,10416.125148
1110.110249,-7122.791461,459.534933,11105.427547
1110.110544,-10033.179370,-4059.225241,12177.675724
1110.110867,-5591.008351,-7046.202306,11335.195014
1110.111164,1072.248177,-5208.062574,7888.683016
1110.111460,7735.504705,-1761.550576,8195.039638
1110.111757,10416.125148,1378.604799,9267.287815
1110.112054,10262.946837,4135.814397,10569.303459
1110.112350,7122.791461,6510.078217,10109.768526
1110.112647,-0.000000,5284.651729,9650.233593
1110.112944,-9880.001059,-382.945777,12407.443191
1110.113251,-16313.490121,-7812.093861,14322.172078
1110.113550,-14475.350389,-9726.822748,13249.923901
1110.113849,-7352.558928,-9037.520349,9650.233593
1110.114148,2144.496354,-5667.597507,7429.148083
1110.114448,7582.326394,-2374.263820,8577.985416
1110.114747,10262.946837,1531.783110,9650.233593
1110.115046,10109.768526,4288.992708,9803.411904
1110.115345,6433.489062,4595.349330,9420.466126
1110.115666,-2221.085509,1378.604799,10722.481770
1110.115963,-8271.628794,-3599.690308,13096.745590
1110.116260,-10339.535992,-6739.845684,12790.388968
1110.116557,-5591.008351,-7812.093861,10109.768526
1110.116854,-76.589155,-6739.845684,8577.985416
1110.117151,4901.705952,-2680.620442,8654.574571
1110.117448,8654.574571,459.534933,9803.411904
1110.117745,7888.683016,3369.922842,12407.443191
1110.118064,5514.419196,5897.364973,11488.373325
1110.118362,153.178311,7275.969772,10569.303459
1110.118660,-4825.116796,4442.171019,10875.660081
1110.118958,-10033.179370,-1148.837332,12101.086569
1110.119256,-10186.357681,-5667.597507,13249.923901
1110.119555,-5744.186662,-6433.489062,10722.481770
1110.119853,2374.263820,-4518.760174,7582.326394
1110.120151,7122.791461,-2833.798753,8960.931193
1110.120464,6586.667373,-1455.193954,11335.195014
1110.120760,5054.884263,2297.674665,12560.621502
1110.121056,2986.977064,4825.116796,10875.660081
1110.121352,-1455.193954,4442.171019,8577.985416
1110.121648,-6510.078217,-76.589155,10722.481770
1110.121944,-9573.644437,-2986.977064,12101.086569
1110.122240,-6356.899906,-4365.581863,10569.303459
1110.122536,-2604.031287,-4671.938485,10262.946837
1110.122836,3752.868619,-1914.728887,9803.411904
1110.123137,7888.683016,1531.783110,9114.109504
1110.123437,9803.411904,5744.186662,10033.179370
1110.123738,8195.039638,8501.396260,9956.590215
1110.124039,3293.333686,7735.504705,9573.644437
1110.124340,-2450.852976,3982.636086,11335.195014
1110.124640,-8884.342038,-995.659021,12101.086569
1110.124941,-9726.822748,-6127.132440,12254.264880
1110.125248,-7122.791461,-7812.093861,10569.303459
1110.125545,-229.767466,-7352.558928,8501.396260
1110.125842,4901.705952,-4059.225241,9114.109504
1110.126139,8041.861327,-1455.193954,10109.768526
1110.126436,7429.148083,1225.426488,10722.481770
1110.126733,4365.581863,2604.031287,10722.481770
1110.127030,-689.302399,2757.209598,10799.070925
1110.127327,-5284.651729,-1455.193954,10875.660081
1110.127635,-10492.714303,-5208.062574,11335.195014
1110.127936,-9037.520349,-7046.202306,10722.481770
1110.128238,-4825.116796,-7658.915550,9956.590215
1110.128540,3752.868619,-4825.116796,8960.931193
1110.128842,9650.233593,-995.659021,8807.752882
1110.129144,8501.396260,1838.139732,9956.590215
1110.129446,6433.489062,4595.349330,11182.016703
1110.129748,1991.318043,5437.830040,10416.125148
1110.130066,-3523.101153,2144.496354,11028.838392
1110.130361,-9343.876971,-3140.155375,12407.443191
1110.130657,-9726.822748,-5361.240885,12560.621502
1110.130952,-3829.457775,-6127.132440,9803.411904
1110.131247,2144.496354,-5361.240885,8348.217949
1110.131542,5054.884263,-3140.155375,9573.644437
1110.131837,6280.310751,-229.767466,10416.125148
1110.132132,6280.310751,3216.744531,11794.729947
1110.132450,3906.046930,5897.364973,10416.125148
1110.132748,-1148.837332,4442.171019,9573.644437
1110.133045,-8424.807105,-229.767466,11641.551636
1110.133343,-11718.140791,-5054.884263,13249.923901
1110.133641,-7965.272172,-7199.380617,12560.621502
1110.133939,-1761.550576,-5667.597507,9267.287815
1110.134236,4748.527641,-2680.620442,8041.861327
1110.134534,8348.217949,612.713244,8884.342038
1110.134834,9420.466126,5131.473418,9956.590215
1110.135134,8041.861327,7582.326394,9650.233593
1110.135434,2680.620442,7429.148083,10109.768526
1110.135734,-5131.473418,3063.566220,11488.373325
1110.136034,-10339.535992,-2221.085509,13249.923901
1110.136334,-11871.319102,-6127.132440,12943.567279
1110.136634,-7122.791461,-7046.202306,10569.303459
1110.136934,-995.659021,-4825.116796,9803.411904
1110.137225,6280.310751,-229.767466,8195.039638
1110.137528,9497.055282,4748.527641,9956.590215
1110.137832,8501.396260,5897.364973,11105.427547
1110.138135,5667.597507,7122.791461,10875.660081
1110.138439,1378.604799,6050.543284,10262.946837
1110.138742,-3369.922842,1378.604799,10262.946837
1110.139045,-9343.876971,-5054.884263,12713.799813
1110.139349,-8118.450483,-6586.667373,12101.086569
1110.139588,-3982.636086,-6433.489062,9650.233593
1110.139898,1838.139732,-3599.690308,8348.217949
1110.140208,4671.938485,-995.659021,9956.590215
1110.140517,5820.775818,1991.318043,11335.195014
1110.140827,6739.845684,5897.364973,10262.946837
1110.141136,4365.581863,7275.969772,8807.752882
1110.141446,-689.302399,3982.636086,9037.520349
1110.141756,-8271.628794,-4059.225241,12254.264880
1110.142039,-10645.892614,-8884.342038,13403.102212
1110.142335,-6816.434839,-10339.535992,10645.892614
1110.142632,-689.302399,-9497.055282,8654.574571
1110.142928,5514.419196,-5667.597507,8501.396260
1110.143224,8348.217949,-1148.837332,8654.574571
1110.143521,7888.683016,2910.387909,9573.644437
1110.143817,5667.597507,4978.295107,10492.714303
1110.144113,-1302.015643,3829.457775,11641.551636
1110.144441,-6050.543284,1378.604799,12024.497413
1110.144737,-9726.822748,-2374.263820,11182.016703
1110.145033,-9880.001059,-5820.775818,11028.838392
1110.145329,-5131.473418,-6893.023995,10722.481770
1110.145625,2527.442131,-3293.333686,8807.752882
1110.145922,8501.396260,-76.589155,8807.752882
1110.146218,10262.946837,1531.783110,10109.768526
1110.146514,8041.861327,3829.457775,11182.016703
1110.146826,4365.581863,6203.721595,10875.660081
1110.147125,-842.480710,3982.636086,10339.535992
1110.147424,-8271.628794,-1148.837332,12407.443191
1110.147723,-12254.264880,-5820.775818,12943.567279
1110.148022,-9497.055282,-5973.954129,11794.729947
1110.148321,-2221.085509,-3752.868619,9114.109504
1110.148621,3599.690308,-1761.550576,9267.287815
1110.148920,6739.845684,765.891555,10416.125148
1110.149234,7275.969772,4748.527641,10875.660081
1110.149531,6739.845684,7429.148083,11105.427547
1110.149828,1225.426488,6203.721595,10262.946837
1110.150126,-5437.830040,1684.961421,11794.729947
1110.150423,-9880.001059,-2221.085509,12637.210657
1110.150720,-7352.558928,-4365.581863,10722.481770
1110.151018,-4288.992708,-6586.667373,9267.287815
1110.151315,612.713244,-5208.062574,9497.055282
1110.151622,5361.240885,-1455.193954,9956.590215
1110.151921,8348.217949,2450.852976,9420.466126
1110.152220,8654.574571,5591.008351,10186.357681
1110.152519,4212.403552,5897.364973,9956.590215
1110.152818,-76.589155,4978.295107,9803.411904
1110.153116,-5131.473418,-0.000000,10722.481770
1110.153415,-8424.807105,-4825.116796,11028.838392
1110.153714,-6356.899906,-7199.380617,10722.481770
1110.154011,-2604.031287,-6433.489062,9267.287815
1110.154314,3752.868619,-3906.046930,8577.985416
1110.154617,6433.489062,-1914.728887,10186.357681
1110.154920,6127.132440,919.069866,10875.660081
1110.155222,5208.062574,4135.814397,9803.411904
1110.155525,1531.783110,4442.171019,9573.644437
1110.155828,-4978.295107,459.534933,10722.481770
1110.156131,-11411.784169,-4825.116796,13556.280523
1110.156426,-10186.357681,-7046.202306,12943.567279
1110.156726,-5437.830040,-7352.558928,9803.411904
1110.157026,2833.798753,-4901.705952,8807.752882
1110.157326,8195.039638,-2527.442131,9267.287815
1110.157627,10875.660081,1378.604799,9343.876971
1110.157927,11182.016703,6050.543284,9803.411904
1110.158227,6739.845684,6356.899906,9420.466126
1110.158527,-1608.372265,4288.992708,10722.481770
1110.158839,-8424.807105,-842.480710,12560.621502
1110.159136,-12407.443191,-5820.775818,12943.567279
1110.159434,-10186.357681,-6739.845684,11182.016703
1110.159731,-4442.171019,-6586.667373,9573.644437
1110.160028,1378.604799,-4059.225241,9420.466126
1110.160326,5667.597507,-1148.837332,9803.411904
1110.160623,6127.132440,1838.139732,11718.140791
1110.160921,5361.240885,4135.814397,11182.016703
1110.161230,2144.496354,5284.651729,9573.644437
1110.161526,-3216.744531,1991.318043,10722.481770
1110.161822,-9343.876971,-3140.155375,12101.086569
1110.162118,-9190.698660,-5667.597507,12407.443191
1110.162414,-3676.279464,-6127.132440,9880.001059
1110.162710,3906.046930,-4901.705952,6816.434839
1110.163006,8041.861327,-3446.511997,8807.752882
1110.163302,8807.752882,-0.000000,9803.411904
1110.163609,7582.326394,3523.101153,10722.481770
1110.163912,4365.581863,5437.830040,10109.768526
1110.164214,-1608.372265,4442.171019,10569.303459
1110.164516,-6816.434839,765.891555,11335.195014
1110.164818,-9880.001059,-2680.620442,12407.443191
1110.165121,-7352.558928,-4901.705952,12254.264880
1110.165423,-1455.193954,-3906.046930,9803.411904
1110.165725,4901.705952,-1914.728887,8501.396260
1110.166041,7122.791461,459.534933,9114.109504
1110.166335,5361.240885,1838.139732,11488.373325
1110.166629,3906.046930,4595.349330,12101.086569
1110.166922,-76.589155,4978.295107,10262.946837
1110.167216,-4825.116796,2910.387909,10952.249236
1110.167510,-10033.179370,-842.480710,12713.799813
1110.167804,-10186.357681,-5054.884263,12407.443191
1110.168097,-4442.171019,-5667.597507,10722.481770
1110.168416,1531.783110,-4901.705952,9573.644437
1110.168714,8195.039638,-1455.193954,8501.396260
1110.169012,11871.319102,2757.209598,8118.450483
1110.169311,11641.551636,5744.186662,9267.287815
1110.169609,7046.202306,5437.830040,9726.822748
1110.169907,-995.659021,3523.101153,11411.784169
1110.170205,-7505.737239,-842.480710,11335.195014
1110.170504,-11718.140791,-6280.310751,12330.854035
1110.170817,-11411.784169,-9037.520349,11871.319102
1110.171115,-7122.791461,-8731.163727,9956.590215
1110.171414,1378.604799,-5054.884263,8807.752882
1110.171712,7735.504705,-1148.837332,8501.396260
1110.172010,8654.574571,1531.783110,10033.179370
1110.172309,7275.969772,4442.171019,10569.303459
1110.172607,1991.318043,4825.116796,10416.125148
1110.172906,-3829.457775,1991.318043,11182.016703
1110.173205,-9880.001059,-4365.581863,12407.443191
1110.173505,-10952.249236,-7046.202306,13096.745590
1110.173805,-5437.830040,-6127.132440,10109.768526
1110.174105,2144.496354,-5054.884263,7505.737239
1110.174406,6586.667373,-2680.620442,8654.574571
1110.174706,8654.574571,1072.248177,10033.179370
1110.175006,8041.861327,4595.349330,10416.125148
1110.175306,5514.419196,7122.791461,9956.590215
1110.175613,-689.302399,5591.008351,9880.001059
1110.175910,-7505.737239,306.356622,11794.729947
1110.176206,-13479.691368,-6127.132440,13862.637145
1110.176503,-9726.822748,-9037.520349,12560.621502
1110.176800,-4135.814397,-9650.233593,9803.411904
1110.177097,4059.225241,-7046.202306,8195.039638
1110.177394,9267.287815,-3293.333686,9650.233593
1110.177691,9956.590215,612.713244,10416.125148
1110.178005,8807.752882,3829.457775,10109.768526
1110.178308,3599.690308,4978.295107,9573.644437
1110.178612,-5284.651729,1991.318043,12101.086569
1110.178916,-11411.784169,-2221.085509,13862.637145
1110.179219,-11871.319102,-4212.403552,13556.280523
1110.179523,-4825.116796,-3752.868619,10262.946837
1110.179827,1991.318043,-2680.620442,9420.466126
1110.180130,9114.109504,1378.604799,8348.217949
1110.180449,11028.838392,5744.186662,8960.931193
1110.180742,8501.396260,7735.504705,10722.481770
1110.181036,3599.690308,8348.217949,11488.373325
1110.181330,-1761.550576,6816.434839,10109.768526
1110.181623,-7199.380617,2757.209598,10262.946837
1110.181917,-12713.799813,-4518.760174,12790.388968
1110.182210,-9880.001059,-7658.915550,12407.443191
1110.182504,-2910.387909,-7658.915550,9880.001059
1110.182821,4901.705952,-5514.419196,8195.039638
1110.183119,8654.574571,-3293.333686,9037.520349
1110.183417,9267.287815,-0.000000,10262.946837
1110.183715,7735.504705,4288.992708,9880.001059
1110.184012,2680.620442,5131.473418,9267.287815
1110.184310,-5131.473418,1991.318043,10875.660081
1110.184608,-11411.784169,-2680.620442,12560.621502
1110.184906,-10645.892614,-4518.760174,12560.621502
1110.185206,-4978.295107,-5208.062574,10109.768526
1110.185503,2833.798753,-4365.581863,7735.504705
1110.185800,9497.055282,-995.659021,7429.148083
1110.186098,11028.838392,1072.248177,9420.466126
1110.186395,8041.861327,3523.101153,11794.729947
1110.186693,4518.760174,5437.830040,11028.838392
1110.186990,-1761.550576,4595.349330,9956.590215
1110.187288,-8884.342038,153.178311,11488.373325
1110.187618,-15088.063633,-5514.419196,13862.637145
1110.187915,-12407.443191,-7812.093861,12943.567279
1110.188212,-6050.543284,-8118.450483,9880.001059
1110.188509,2680.620442,-6433.489062,9114.109504
1110.188806,7275.969772,-3906.046930,9650.233593
1110.189103,9956.590215,-76.589155,9956.590215
1110.189399,8195.039638,1991.318043,10722.481770
1110.189696,2297.674665,3063.566220,11028.838392
1110.190004,-3216.744531,2757.209598,10875.660081
1110.190304,-6510.078217,-1302.015643,10569.303459
1110.190604,-7658.915550,-4365.581863,11335.195014
1110.190904,-4288.992708,-6739.845684,10262.946837
1110.191204,1072.248177,-5820.775818,8807.752882
1110.191503,7275.969772,-2527.442131,8348.217949
1110.191803,9803.411904,-536.124088,9573.644437
1110.192103,6280.310751,2450.852976,11641.551636
1110.192386,3752.868619,6663.256528,11335.195014
1110.192691,-1148.837332,7122.791461,10109.768526
1110.192996,-6663.256528,4748.527641,11641.551636
1110.193300,-11718.140791,-382.945777,13096.745590
1110.193605,-10799.070925,-2833.798753,12177.675724
1110.193910,-4595.349330,-3599.690308,10033.179370
1110.194215,2144.496354,-3446.511997,9573.644437
1110.194519,5361.240885,-995.659021,9803.411904
1110.194791,7582.326394,3063.566220,9956.590215
1110.195095,8960.931193,5744.186662,9037.520349
1110.195398,4212.403552,5591.008351,8807.752882
1110.195701,-3982.636086,1838.139732,11488.373325
1110.196004,-10492.714303,-4212.403552,14015.815456
1110.196307,-11718.140791,-7199.380617,14168.993767
1110.196610,-5437.830040,-7505.737239,10262.946837
1110.196914,1378.604799,-5054.884263,8041.861327
1110.197203,9114.109504,-382.945777,7275.969772
1110.197503,13403.102212,3063.566220,7888.683016
1110.197802,13249.923901,5131.473418,9267.287815
1110.198101,7888.683016,6510.078217,10262.946837
1110.198400,-0.000000,4748.527641,10722.481770
1110.198699,-6969.613150,765.891555,11794.729947
1110.198998,-13479.691368,-3446.511997,14168.993767
1110.199298,-13173.334746,-6433.489062,11947.908258
1110.199583,-9343.876971,-6433.489062,11028.838392
1110.199885,-1148.837332,-4518.760174,9267.287815
1110.200187,4518.760174,-2221.085509,10262.946837
1110.200489,6127.132440,-0.000000,10875.660081
1110.200791,5667.597507,3676.279464,11488.373325
1110.201092,4365.581863,5284.651729,10262.946837
1110.201394,-689.302399,3369.922842,10109.768526
1110.201696,-6510.078217,-1148.837332,11947.908258
1110.202003,-9726.822748,-4365.581863,12254.264880
1110.202300,-5131.473418,-5820.775818,10109.768526
1110.202598,919.069866,-5514.419196,8501.396260
1110.202895,5667.597507,-4825.116796,8960.931193
1110.203192,8960.931193,-1455.193954,9650.233593
1110.203489,8501.396260,1378.604799,10569.303459
1110.203786,6893.023995,5437.830040,10569.303459
1110.204084,1225.426488,5284.651729,10109.768526
1110.204380,-4595.349330,2297.674665,11182.016703
1110.204681,-10339.535992,-2374.263820,11947.908258
1110.204981,-10339.535992,-6280.310751,12024.497413
1110.205281,-6356.899906,-7812.093861,10416.125148
1110.205582,1225.426488,-6893.023995,8731.163727
1110.205882,5667.597507,-4825.116796,8654.574571
1110.206182,6433.489062,-2986.977064,10416.125148
1110.206483,5973.954129,1225.426488,11411.784169
1110.206778,3140.155375,4595.349330,10109.768526
1110.207078,-536.124088,4748.527641,9803.411904
1110.207378,-7812.093861,459.534933,12101.086569
1110.207678,-10033.179370,-1608.372265,12560.621502
1110.207978,-6203.721595,-2833.798753,10722.481770
1110.208278,-2067.907198,-2986.977064,9803.411904
1110.208578,4365.581863,-1455.193954,9956.590215
1110.208879,10109.768526,2450.852976,9114.109504
1110.209213,11488.373325,5284.651729,9573.644437
1110.209508,8041.861327,6203.721595,10262.946837
1110.209802,1531.783110,6050.543284,10875.660081
1110.210096,-2450.852976,3676.279464,10875.660081
1110.210390,-7812.093861,-1148.837332,11947.908258
1110.210684,-10645.892614,-5973.954129,11947.908258
1110.210978,-7505.737239,-6893.023995,11028.838392
1110.211272,-1761.550576,-5973.954129,9114.109504
1110.211581,2986.977064,-4212.403552,9497.055282
1110.211881,5054.884263,-1455.193954,10109.768526
1110.212180,5054.884263,1838.139732,11641.551636
1110.212479,3599.690308,3523.101153,10875.660081
1110.212779,-76.589155,2910.387909,10569.303459
1110.213078,-5897.364973,-76.589155,11028.838392
1110.213378,-7658.915550,-3446.511997,11028.838392
1110.213677,-3982.636086,-4518.760174,10109.768526
1110.214018,1531.783110,-4518.760174,8041.861327
1110.214313,6127.132440,-4059.225241,8195.039638
1110.214608,8960.931193,-1302.015643,9650.233593
1110.214902,8960.931193,1072.248177,10722.481770
1110.215197,6739.845684,3829.457775,10569.303459
1110.215492,153.178311,4288.992708,10416.125148
1110.215787,-7505.737239,1684.961421,11947.908258
1110.216082,-12254.264880,-995.659021,12713.799813
1110.216378,-13020.156435,-3599.690308,12254.264880
1110.216676,-9573.644437,-5820.775818,9573.644437
1110.216974,-2221.085509,-5973.954129,8960.931193
1110.217273,4671.938485,-3906.046930,8960.931193
1110.217571,9420.466126,-2527.442131,9267.287815
1110.217869,7888.683016,-2221.085509,11947.908258
1110.218167,5514.419196,-76.589155,10875.660081
1110.218465,1991.318043,612.713244,9803.411904
1110.218779,-3523.101153,-2221.085509,10109.768526
1110.219078,-8271.628794,-5361.240885,12407.443191
1110.219377,-5591.008351,-4671.938485,10875.660081
1110.219675,-842.480710,-2374.263820,8807.752882
1110.219974,5208.062574,-1302.015643,8501.396260
1110.220273,8348.217949,-76.589155,9803.411904
1110.220571,7888.683016,2757.209598,11488.373325
1110.220870,5820.775818,6203.721595,10262.946837
1110.221170,153.178311,6663.256528,11028.838392
1110.221471,-6816.434839,5284.651729,12560.621502
1110.221772,-11411.784169,3216.744531,13862.637145
1110.222072,-11871.319102,1531.783110,12177.675724
1110.222373,-8271.628794,-76.589155,11028.838392
1110.222674,-2604.031287,-1761.550576,10722.481770
1110.222975,2680.620442,-1302.015643,10033.179370
1110.223275,8501.396260,-0.000000,9267.287815
1110.223575,9420.466126,1225.426488,9114.109504
1110.223874,6893.023995,1991.318043,9956.590215
1110.224173,1991.318043,919.069866,10416.125148
1110.224473,-3523.101153,-842.480710,10722.481770
1110.224772,-7122.791461,-3446.511997,11794.729947
1110.225071,-4978.295107,-4365.581863,10416.125148
1110.225370,-229.767466,-2680.620442,8041.861327
1110.225670,5820.775818,-382.945777,8041.861327
1110.225977,7429.148083,-0.000000,8654.574571
1110.226276,5667.597507,1838.139732,10416.125148
1110.226575,3140.155375,3829.457775,11335.195014
1110.226874,-2067.907198,4135.814397,11182.016703
1110.227174,-8118.450483,1378.604799,12101.086569
1110.227473,-12101.086569,-1302.015643,12943.567279
1110.227772,-11947.908258,-4518.760174,11794.729947
1110.228071,-7505.737239,-5820.775818,10262.946837
1110.228392,-382.945777,-5667.597507,8960.931193
1110.228689,7735.504705,-4212.403552,8960.931193
1110.228986,13096.745590,-1761.550576,8348.217949
1110.229283,12024.497413,-995.659021,9343.876971
1110.229580,6739.845684,306.356622,10416.125148
1110.229877,-382.945777,153.178311,10875.660081
1110.230174,-7505.737239,-2067.907198,12407.443191
1110.230471,-11718.140791,-4212.403552,13249.923901
1110.230773,-9726.822748,-4671.938485,11641.551636
1110.231074,-3829.457775,-3906.046930,9190.698660
1110.231376,4212.403552,-2067.907198,8501.396260
1110.231677,7735.504705,-536.124088,9420.466126
1110.231979,8195.039638,2297.674665,10722.481770
1110.232280,7429.148083,4825.116796,10569.303459
1110.232581,2144.496354,4442.171019,10339.535992
1110.232883,-4825.116796,1378.604799,11794.729947
1110.233161,-10952.249236,-3293.333686,12790.388968
1110.233462,-11258.605858,-6127.132440,12713.799813
1110.233763,-4825.116796,-6739.845684,9420.466126
1110.234064,2144.496354,-6280.310751,8041.861327
1110.234365,6739.845684,-4212.403552,8654.574571
1110.234665,10262.946837,-76.589155,8654.574571
1110.234966,8195.039638,2144.496354,10569.303459
1110.235267,2833.798753,4442.171019,11335.195014
1110.235567,-3829.457775,4748.527641,12407.443191
1110.235868,-8118.450483,4595.349330,11488.373325
1110.236168,-9880.001059,2297.674665,11641.551636
1110.236469,-8271.628794,306.356622,11794.729947
1110.236770,-3216.744531,-1608.372265,9956.590215
1110.237071,5514.419196,459.534933,8195.039638
1110.237371,9956.590215,1378.604799,8501.396260
1110.237672,7888.683016,919.069866,11028.838392
1110.237979,4671.938485,1838.139732,12637.210657
1110.238276,2374.263820,3369.922842,10109.768526
1110.238573,-1148.837332,1838.139732,8807.752882
1110.238870,-6050.543284,-2680.620442,11182.016703
1110.239167,-8731.163727,-6127.132440,11794.729947
1110.239464,-3982.636086,-7352.558928,10109.768526
1110.239761,153.178311,-7046.202306,8501.396260
1110.240057,3293.333686,-5667.597507,9267.287815
1110.240418,4059.225241,-2680.620442,11182.016703
1110.240714,3906.046930,1225.426488,10722.481770
1110.241010,2986.977064,4442.171019,10109.768526
1110.241306,-3523.101153,4135.814397,11947.908258
1110.241602,-6969.613150,2297.674665,11794.729947
1110.241899,-8118.450483,459.534933,12101.086569
1110.242195,-4135.814397,-689.302399,10109.768526
1110.242491,-1608.372265,-3140.155375,9803.411904
1110.242809,3140.155375,-2986.977064,10033.179370
1110.243106,8501.396260,-1302.015643,9114.109504
1110.243402,9267.287815,1838.139732,9650.233593
1110.243698,7888.683016,2450.852976,10569.303459
1110.243994,1991.318043,1838.139732,11411.784169
1110.244290,-3063.566220,306.356622,11641.551636
1110.244586,-8271.628794,-2680.620442,11794.729947
1110.244882,-11258.605858,-5054.884263,12560.621502
1110.245148,-6663.256528,-5361.240885,11182.016703
1110.245450,-229.767466,-2986.977064,8960.931193
1110.245753,5973.954129,-995.659021,7888.683016
1110.246056,9497.055282,306.356622,8501.396260
1110.246358,6893.023995,1378.604799,9803.411904
1110.246661,3906.046930,3063.566220,10722.481770
1110.246964,-2604.031287,2144.496354,10569.303459
1110.247266,-9880.001059,-1302.015643,12790.388968
1110.247566,-13173.334746,-5514.419196,13173.334746
1110.247866,-10799.070925,-7046.202306,11182.016703
1110.248166,-3829.457775,-5820.775818,9650.233593
1110.248466,5514.419196,-4212.403552,7735.504705
1110.248766,12330.854035,-382.945777,8884.342038
1110.249066,15471.009411,4288.992708,8884.342038
1110.249366,12177.675724,7429.148083,8960.931193
1110.249666,2986.977064,6510.078217,11335.195014
1110.249956,-5591.008351,4978.295107,12560.621502
1110.250255,-13020.156435,1072.248177,14015.815456
1110.250553,-13786.047990,-1455.193954,13020.156435
1110.250851,-8577.985416,-3752.868619,10416.125148
1110.251149,-1455.193954,-3752.868619,9956.590215
1110.251447,6739.845684,-2221.085509,8960.931193
1110.251746,9650.233593,-0.000000,9573.644437
1110.252044,8501.396260,765.891555,10339.535992
1110.252351,4365.581863,1991.318043,10569.303459
1110.252656,-1608.372265,2604.031287,10186.357681
1110.252960,-6356.899906,-382.945777,10416.125148
1110.253265,-11718.140791,-4901.705952,13020.156435
1110.253569,-8731.163727,-7046.202306,12101.086569
1110.253874,-76.589155,-5054.884263,9726.822748
1110.254179,7582.326394,-4518.760174,7735.504705
1110.254483,11028.838392,-1608.372265,8501.396260
1110.254767,11488.373325,1838.139732,9343.876971
1110.255063,8501.396260,4825.116796,8960.931193
1110.255359,3140.155375,6050.543284,9267.287815
1110.255656,-4748.527641,4135.814397,11028.838392
1110.255952,-10645.892614,-689.302399,12866.978124
1110.256248,-12560.621502,-4212.403552,13096.745590
1110.256545,-6969.613150,-4518.760174,10722.481770
1110.256841,-76.589155,-3906.046930,8195.039638
1110.257168,4901.705952,-1608.372265,7888.683016
1110.257465,6127.132440,-229.767466,9650.233593
1110.257761,3446.511997,-382.945777,11028.838392
1110.258057,-842.480710,1531.783110,12790.388968
1110.258353,-5131.473418,919.069866,11488.373325
1110.258649,-6969.613150,-382.945777,10416.125148
1110.258945,-8271.628794,-4212.403552,12407.443191
1110.259242,-4288.992708,-6127.132440,11182.016703
1110.259553,2833.798753,-6127.132440,9420.466126
1110.259853,9114.109504,-3293.333686,6969.613150
1110.260153,13249.923901,-1148.837332,7429.148083
1110.260453,10416.125148,-76.589155,9573.644437
1110.260753,4518.760174,2297.674665,11641.551636
1110.261053,459.534933,2450.852976,11182.016703
1110.261353,-7658.915550,919.069866,12407.443191
1110.261653,-10339.535992,-689.302399,13709.458834
1110.261962,-11564.962480,-2527.442131,12790.388968
1110.262260,-6203.721595,-2067.907198,10722.481770
1110.262559,153.178311,-1608.372265,8654.574571
1110.262857,5054.884263,-76.589155,8501.396260
1110.263156,7046.202306,1991.318043,10262.946837
1110.263454,4671.938485,3216.744531,10875.660081
1110.263753,2374.263820,4748.527641,11641.551636
1110.264051,-1914.728887,3369.922842,11182.016703
1110.264358,-6663.256528,306.356622,11641.551636
1110.264658,-9343.876971,-3752.868619,12560.621502
1110.264958,-6816.434839,-5973.954129,10875.660081
1110.265258,-536.124088,-5973.954129,9650.233593
1110.265557,5054.884263,-5514.419196,8654.574571
1110.265857,9956.590215,-1761.550576,7735.504705
1110.266157,10875.660081,1378.604799,8577.985416
1110.266457,8501.396260,3829.457775,9267.287815
1110.266753,4212.403552,4825.116796,10722.481770
1110.267052,-1761.550576,4288.992708,10722.481770
1110.267351,-6510.078217,1072.248177,11028.838392
1110.267650,-10952.249236,-2986.977064,12407.443191
1110.267948,-8118.450483,-4825.116796,11794.729947
1110.268247,-5131.473418,-4671.938485,10569.303459
1110.268546,1225.426488,-3293.333686,9114.109504
1110.268845,5208.062574,-229.767466,9573.644437
1110.269140,7275.969772,765.891555,9880.001059
1110.269440,4059.225241,2604.031287,10722.481770
1110.269740,-536.124088,3063.566220,11488.373325
1110.270040,-4288.992708,919.069866,11641.551636
1110.270340,-7352.558928,-2680.620442,12790.388968
1110.270640,-5744.186662,-4212.403552,12101.086569
1110.270941,-689.302399,-2986.977064,8960.931193
1110.271241,4518.760174,-2680.620442,8041.861327
1110.271552,8041.861327,-995.659021,8654.574571
1110.271852,8348.217949,1072.248177,10262.946837
1110.272152,6586.667373,3369.922842,11335.195014
1110.272452,2680.620442,3523.101153,10262.946837
1110.272752,-3523.101153,1684.961421,11335.195014
1110.273052,-9726.822748,-1761.550576,12101.086569
1110.273352,-12560.621502,-5054.884263,12713.799813
1110.273652,-9343.876971,-6739.845684,10569.303459
1110.273961,-2450.852976,-7199.380617,8501.396260
1110.274257,4212.403552,-6893.023995,8424.807105
1110.274552,7429.148083,-4825.116796,9573.644437
1110.274847,7888.683016,-3293.333686,10722.481770
1110.275143,5054.884263,-0.000000,10109.768526
1110.275438,-842.480710,-0.000000,10722.481770
1110.275733,-5897.364973,459.534933,11258.605858
1110.276029,-9037.520349,-1761.550576,11335.195014
1110.276336,-7199.380617,-2527.442131,11718.140791
1110.276635,-2757.209598,-3446.511997,10109.768526
1110.276933,4212.403552,-995.659021,8654.574571
1110.277232,11335.195014,3216.744531,7888.683016
1110.277531,12943.567279,5284.651729,8807.752882
1110.277830,9114.109504,5591.008351,10569.303459
1110.278129,3446.511997,6969.613150,11182.016703
1110.278428,-3829.457775,4978.295107,11105.427547
1110.278744,-9880.001059,459.534933,12101.086569
1110.279046,-15547.598566,-5361.240885,13709.458834
1110.279348,-11718.140791,-7199.380617,12790.388968
1110.279650,-4825.116796,-6127.132440,10109.768526
1110.279951,1838.139732,-4059.225241,9803.411904
1110.280253,6586.667373,-2374.263820,10109.768526
1110.280555,8807.752882,1838.139732,9573.644437
1110.280857,8501.396260,5437.830040,9190.698660
1110.281171,4212.403552,4748.527641,9267.287815
1110.281467,-2910.387909,1838.139732,11028.838392
1110.281764,-7658.915550,-2221.085509,12407.443191
1110.282060,-7199.380617,-4825.116796,12407.443191
1110.282356,-3523.101153,-5514.419196,10875.660081
1110.282652,2986.977064,-3906.046930,9267.287815
1110.282949,9114.109504,153.178311,7735.504705
1110.283245,11488.373325,3216.744531,8118.450483
1110.283533,7429.148083,4748.527641,9573.644437
1110.283833,2680.620442,5284.651729,11028.838392
1110.284133,-3369.922842,4748.527641,11794.729947
1110.284433,-8731.163727,919.069866,12254.264880
1110.284733,-12254.264880,-3446.511997,13096.745590
1110.285033,-9037.520349,-4671.938485,11641.551636
1110.285333,-3369.922842,-4365.581863,10109.768526
1110.285633,2374.263820,-4365.581863,8960.931193
1110.285932,3293.333686,-3293.333686,10109.768526
1110.286231,4671.938485,-1148.837332,10416.125148
1110.286530,4365.581863,1225.426488,10569.303459
1110.286830,1531.783110,1531.783110,10109.768526
1110.287129,-2910.387909,-0.000000,10109.768526
1110.287428,-5591.008351,-3599.690308,11335.195014
1110.287727,-6050.543284,-6127.132440,11335.195014
1110.288027,-1914.728887,-7352.558928,10109.768526
1110.288334,3140.155375,-5973.954129,8807.752882
1110.288636,8195.039638,-2680.620442,7888.683016
1110.288939,9803.411904,306.356622,8807.752882
1110.289241,7582.326394,2604.031287,10569.303459
1110.289544,3752.868619,4978.295107,11335.195014
1110.289847,-2450.852976,4442.171019,11488.373325
1110.290149,-7352.558928,1684.961421,11641.551636
1110.290452,-11258.605858,-1761.550576,13403.102212
1110.290772,-9497.055282,-3293.333686,12560.621502
1110.291069,-3982.636086,-2833.798753,10109.768526
1110.291366,1684.961421,-2067.907198,9267.287815
1110.291663,6127.132440,-382.945777,9803.411904
1110.291961,6893.023995,1378.604799,10109.768526
1110.292258,6586.667373,3216.744531,9803.411904
1110.292555,1531.783110,2910.387909,10875.660081
1110.292852,-3676.279464,306.356622,11028.838392
1110.293090,-8118.450483,-3140.155375,12790.388968
1110.293395,-10033.179370,-4518.760174,12866.978124
1110.293700,-4595.349330,-4365.581863,9956.590215
1110.294005,1531.783110,-3293.333686,8654.574571
1110.294310,7735.504705,-1914.728887,7582.326394
1110.294615,10722.481770,612.713244,8501.396260
1110.294920,8960.931193,2910.387909,9956.590215
1110.295225,5820.775818,4288.992708,9956.590215
1110.295542,-689.302399,3216.744531,11641.551636
1110.295841,-6356.899906,1072.248177,11794.729947
1110.296140,-9726.822748,-1302.015643,12713.799813
1110.296438,-7658.915550,-2374.263820,11028.838392
1110.296737,-3216.744531,-3906.046930,10109.768526
1110.297035,1991.318043,-2067.907198,9726.822748
1110.297334,6893.023995,-0.000000,8807.752882
1110.297633,8195.039638,1838.139732,9956.590215
1110.297932,6127.132440,3369.922842,10339.535992
1110.298230,-0.000000,3676.279464,11641.551636
1110.298527,-6050.543284,2144.496354,11641.551636
1110.298824,-8731.163727,153.178311,11947.908258
1110.299122,-10186.357681,-2680.620442,11641.551636
1110.299419,-7352.558928,-6127.132440,10416.125148
1110.299717,-2374.263820,-6433.489062,10109.768526
1110.300014,6127.132440,-5054.884263,8884.342038
1110.300321,10875.660081,-2833.798753,8960.931193
1110.300623,10262.946837,-382.945777,9573.644437
1110.300925,8654.574571,1838.139732,9956.590215
1110.301226,1531.783110,919.069866,9803.411904
1110.301528,-4825.116796,-1455.193954,10875.660081
1110.301830,-12713.799813,-5208.062574,12790.388968
1110.302131,-12101.086569,-7199.380617,12254.264880
1110.302433,-6969.613150,-6893.023995,10416.125148
1110.302713,-229.767466,-5208.062574,9420.466126
1110.303018,5514.419196,-3599.690308,9420.466126
1110.303323,9497.055282,919.069866,9803.411904
1110.303629,8960.931193,4135.814397,9650.233593
1110.303934,3446.511997,4595.349330,11182.016703
1110.304239,-3216.744531,3216.744531,12101.086569
1110.304544,-7505.737239,1225.426488,12713.799813
1110.304849,-10033.179370,-1761.550576,12254.264880
1110.305168,-6356.899906,-2680.620442,11028.838392
1110.305464,-536.124088,-1455.193954,9114.109504
1110.305760,6893.023995,306.356622,8195.039638
1110.306056,10569.303459,1225.426488,9037.520349
1110.306352,8501.396260,2757.209598,10262.946837
1110.306648,5820.775818,4595.349330,11488.373325
1110.306944,-76.589155,4442.171019,10722.481770
1110.307240,-6816.434839,1838.139732,11488.373325
1110.307557,-11411.784169,-1302.015643,12254.264880
1110.307852,-10339.535992,-3752.868619,11794.729947
1110.308146,-4825.116796,-5054.884263,10339.535992
1110.308441,1225.426488,-4825.116796,8654.574571
1110.308735,5514.419196,-2986.977064,9956.590215
1110.309030,8654.574571,1072.248177,9420.466126
1110.309324,7429.148083,3523.101153,9573.644437
1110.309619,2144.496354,3982.636086,10722.481770
1110.309918,-5897.364973,2144.496354,12254.264880
1110.310218,-9497.055282,-689.302399,13249.923901
1110.310517,-7505.737239,-1761.550576,11641.551636
1110.310816,-1761.550576,-2986.977064,10109.768526
1110.311115,4212.403552,-2986.977064,8654.574571
1110.311414,10109.768526,-842.480710,8041.861327
1110.311713,11871.319102,1838.139732,8501.396260
1110.312012,8807.752882,1991.318043,10109.768526
1110.312326,2374.263820,3063.566220,11794.729947
1110.312625,-2374.263820,2757.209598,11028.838392
