#time,accel_x,accel_y,accel_z
1146.187904,306.356622,-536.124088,10109.768526
1146.188203,-76.589155,-689.302399,10262.946837
1146.188501,153.178311,-842.480710,10262.946837
1146.188799,-76.589155,-842.480710,10339.535992
1146.189097,-229.767466,-995.659021,10416.125148
1146.189410,-229.767466,-995.659021,10262.946837
1146.189706,-382.945777,-842.480710,10799.070925
1146.190002,-76.589155,-536.124088,10569.303459
1146.190298,1684.961421,-0.000000,10262.946837
1146.190594,4671.938485,-0.000000,10033.179370
1146.190890,8348.217949,153.178311,9650.233593
1146.191186,12790.388968,306.356622,9956.590215
1146.191482,17385.738298,306.356622,9114.109504
1146.191782,19606.823808,153.178311,9420.466126
1146.192083,21981.087628,153.178311,8884.342038
1146.192383,20219.537052,459.534933,9803.411904
1146.192684,19453.645497,1225.426488,9650.233593
1146.192985,18917.521408,1378.604799,9343.876971
1146.193286,16543.257588,1531.783110,9343.876971
1146.193587,16236.900966,1072.248177,9956.590215
1146.193888,15777.366033,-0.000000,10569.303459
1146.194195,19760.002119,-229.767466,10492.714303
1146.194491,25733.956248,765.891555,9650.233593
1146.194787,29103.879090,153.178311,8807.752882
1146.195084,25427.599626,-1761.550576,9420.466126
1146.195380,18457.986475,-4518.760174,13326.513057
1146.195677,10875.660081,-4901.705952,16236.900966
1146.195973,7046.202306,-2221.085509,14858.296167
1146.196269,5054.884263,612.713244,13862.637145
1146.196613,1225.426488,1072.248177,14781.707011
1146.196909,459.534933,1838.139732,16313.490121
1146.197205,3446.511997,3829.457775,16236.900966
1146.197501,12637.210657,7275.969772,11335.195014
1146.197798,20525.893674,7582.326394,8731.163727
1146.198094,25733.956248,4135.814397,7735.504705
1146.198390,30329.305578,-76.589155,6510.078217
1146.198686,33699.228420,-2221.085509,6127.132440
1146.199005,34158.763353,-6739.845684,5744.186662
1146.199300,30865.429666,-10339.535992,6893.023995
1146.199595,22746.979183,-10186.357681,9114.109504
1146.199890,11794.729947,-7352.558928,11335.195014
1146.200186,-689.302399,-4901.705952,14245.582923
1146.200481,-10186.357681,-995.659021,17309.149143
1146.200776,-13020.156435,4288.992708,15394.420255
1146.201071,-15241.241944,8348.217949,12713.799813
1146.201417,-12407.443191,7735.504705,10722.481770
1146.201711,-6816.434839,1838.139732,9956.590215
1146.202006,4212.403552,-2833.798753,8348.217949
1146.202300,11182.016703,-3752.868619,5514.419196
1146.202595,13403.102212,-6586.667373,5054.884263
1146.202889,10875.660081,-6280.310751,9114.109504
1146.203184,7046.202306,-2680.620442,11028.838392
1146.203478,612.713244,2144.496354,12560.621502
1146.203778,-5284.651729,4595.349330,13403.102212
1146.204078,-9190.698660,4135.814397,13249.923901
1146.204378,-7658.915550,-382.945777,12637.210657
1146.204678,-4748.527641,-5820.775818,11488.373325
1146.204978,5054.884263,-10645.892614,9267.287815
1146.205278,14551.939545,-12024.497413,6739.845684
1146.205578,22440.622561,-12790.388968,5514.419196
1146.205878,20219.537052,-8118.450483,7046.202306
1146.206169,13096.745590,-2374.263820,9420.466126
1146.206467,2680.620442,4595.349330,11182.016703
1146.206766,-8577.985416,7888.683016,13709.458834
1146.207065,-16466.668432,10416.125148,14015.815456
1146.207364,-21062.017762,10109.768526,14245.582923
1146.207662,-16313.490121,7582.326394,13556.280523
1146.207961,-9343.876971,2910.387909,10799.070925
1146.208260,-1148.837332,-995.659021,9803.411904
1146.208567,2144.496354,-7199.380617,10722.481770
1146.208871,2680.620442,-12790.388968,11794.729947
1146.209176,7122.791461,-13096.745590,8807.752882
1146.209481,11028.838392,-9343.876971,5208.062574
1146.209785,10569.303459,-5054.884263,6127.132440
1146.210090,9650.233593,-1302.015643,6586.667373
1146.210395,6739.845684,4825.116796,8960.931193
1146.210699,4365.581863,8654.574571,9573.644437
1146.210983,-4288.992708,8348.217949,12254.264880
1146.211279,-12407.443191,4825.116796,14628.528700
1146.211575,-12254.264880,4825.116796,13173.334746
1146.211872,-7352.558928,4135.814397,11105.427547
1146.212168,-229.767466,1684.961421,9343.876971
1146.212464,7275.969772,153.178311,8041.861327
1146.212761,14015.815456,-0.000000,7582.326394
1146.213057,14015.815456,306.356622,8501.396260
1146.213385,9956.590215,-229.767466,10569.303459
1146.213681,1684.961421,-2221.085509,10875.660081
1146.213977,-4442.171019,-3293.333686,12254.264880
1146.214273,-11258.605858,-4365.581863,14322.172078
1146.214569,-12254.264880,-4901.705952,13479.691368
1146.214865,-7965.272172,-3599.690308,12560.621502
1146.215162,-4135.814397,-1455.193954,13403.102212
1146.215458,-229.767466,765.891555,12943.567279
1146.215770,4748.527641,4442.171019,9956.590215
1146.216067,5973.954129,5131.473418,9420.466126
1146.216364,5208.062574,1684.961421,9803.411904
1146.216662,2833.798753,-536.124088,11335.195014
1146.216959,4748.527641,-1302.015643,9343.876971
1146.217257,7582.326394,-536.124088,7735.504705
1146.217554,4212.403552,-842.480710,10569.303459
1146.217852,-2374.263820,306.356622,13403.102212
1146.218161,-6050.543284,153.178311,12790.388968
1146.218459,-7812.093861,1378.604799,11105.427547
1146.218758,-10339.535992,-1761.550576,11641.551636
1146.219056,-8884.342038,-5820.775818,12177.675724
1146.219355,-4978.295107,-5514.419196,11182.016703
1146.219653,5361.240885,-2067.907198,8041.861327
1146.219952,9650.233593,-229.767466,6969.613150
1146.220250,8348.217949,-995.659021,9343.876971
1146.220557,5208.062574,-1148.837332,10645.892614
1146.220857,2680.620442,459.534933,10109.768526
1146.221157,-229.767466,919.069866,8348.217949
1146.221456,-1148.837332,1838.139732,6969.613150
1146.221756,-536.124088,1991.318043,7965.272172
1146.222056,-1455.193954,3369.922842,9650.233593
1146.222355,-6050.543284,3063.566220,11105.427547
1146.222655,-5591.008351,612.713244,10875.660081
1146.222952,-5437.830040,-1608.372265,11335.195014
1146.223251,-2757.209598,-4671.938485,11488.373325
1146.223551,-689.302399,-6127.132440,11182.016703
1146.223850,2833.798753,-6739.845684,9803.411904
1146.224150,7735.504705,-4901.705952,8195.039638
1146.224449,4365.581863,-4825.116796,8960.931193
1146.224749,-689.302399,-3293.333686,11794.729947
1146.225048,-6969.613150,-4671.938485,12560.621502
1146.225376,-10339.535992,-4825.116796,13862.637145
1146.225675,-8577.985416,-2986.977064,13096.745590
1146.225974,-995.659021,459.534933,9267.287815
1146.226272,5820.775818,4825.116796,7735.504705
1146.226571,11028.838392,6969.613150,8041.861327
1146.226870,9420.466126,7275.969772,8960.931193
1146.227169,7122.791461,5131.473418,10416.125148
1146.227468,2680.620442,459.534933,11641.551636
1146.227780,-3063.566220,-6127.132440,11871.319102
1146.228077,-7122.791461,-10799.070925,12943.567279
1146.228374,-6510.078217,-11718.140791,11488.373325
1146.228672,-536.124088,-9880.001059,9573.644437
1146.228969,-1761.550576,-5667.597507,11182.016703
1146.229266,-3216.744531,-1761.550576,11335.195014
1146.229564,-4748.527641,765.891555,11488.373325
1146.229861,-6203.721595,3829.457775,11335.195014
1146.230170,-2910.387909,6050.543284,9956.590215
1146.230466,-536.124088,6969.613150,10033.179370
1146.230763,6127.132440,8041.861327,8654.574571
1146.231059,11028.838392,8654.574571,7812.093861
1146.231355,9267.287815,6356.899906,9803.411904
1146.231651,6586.667373,4595.349330,11258.605858
1146.231947,2144.496354,1225.426488,10875.660081
1146.232243,-229.767466,-1608.372265,10569.303459
1146.232550,-6816.434839,-5054.884263,11258.605858
1146.232852,-5897.364973,-7352.558928,10569.303459
1146.233155,-3829.457775,-7199.380617,10722.481770
1146.233457,-3063.566220,-6433.489062,11488.373325
1146.233759,-4978.295107,-4059.225241,12484.032346
1146.234061,-3982.636086,-842.480710,12407.443191
1146.234363,-2221.085509,1838.139732,12407.443191
1146.234666,1991.318043,5131.473418,10875.660081
1146.234982,2986.977064,7888.683016,9650.233593
1146.235276,5361.240885,6816.434839,7888.683016
1146.235570,6586.667373,6050.543284,8501.396260
1146.235863,5820.775818,4135.814397,9956.590215
1146.236157,153.178311,612.713244,11028.838392
1146.236451,-3369.922842,-3599.690308,11028.838392
1146.236744,-5131.473418,-6280.310751,10109.768526
1146.237038,-4978.295107,-9650.233593,12177.675724
1146.237357,-3063.566220,-12024.497413,10722.481770
1146.237655,459.534933,-11258.605858,9573.644437
1146.237953,3906.046930,-9880.001059,9956.590215
1146.238251,2144.496354,-6433.489062,10033.179370
1146.238550,2374.263820,-3140.155375,10109.768526
1146.238848,1378.604799,459.534933,9420.466126
1146.239146,-536.124088,1991.318043,8960.931193
1146.239444,-4135.814397,765.891555,10109.768526
1146.239757,-2910.387909,3063.566220,10109.768526
1146.240056,1072.248177,4978.295107,8884.342038
1146.240354,2986.977064,5897.364973,9420.466126
1146.240653,-0.000000,4978.295107,11028.838392
1146.240951,-1761.550576,3829.457775,9573.644437
1146.241250,-2757.209598,919.069866,9420.466126
1146.241548,-3829.457775,-3293.333686,11182.016703
1146.241847,-7505.737239,-10645.892614,13632.869679
1146.242146,-5131.473418,-13709.458834,14015.815456
1146.242445,2833.798753,-8884.342038,10416.125148
1146.242745,9114.109504,-2527.442131,9267.287815
1146.243044,9497.055282,2604.031287,9343.876971
1146.243343,5514.419196,5284.651729,10875.660081
1146.243642,1991.318043,9420.466126,11028.838392
1146.243942,-76.589155,11182.016703,9573.644437
1146.244241,-3369.922842,8960.931193,10569.303459
1146.244548,-3829.457775,5284.651729,11028.838392
1146.244851,-2221.085509,6356.899906,12254.264880
1146.245153,-1914.728887,6356.899906,12024.497413
1146.245456,-995.659021,4748.527641,11488.373325
1146.245758,-2221.085509,612.713244,12101.086569
1146.246061,-3676.279464,-2986.977064,12560.621502
1146.246363,-3676.279464,-6127.132440,11641.551636
1146.246666,-2221.085509,-7658.915550,9573.644437
1146.246940,3293.333686,-8271.628794,8195.039638
1146.247243,4365.581863,-8424.807105,9650.233593
1146.247547,-76.589155,-8271.628794,10492.714303
1146.247851,-382.945777,-5514.419196,10645.892614
1146.248154,-1761.550576,-3140.155375,10416.125148
1146.248458,-0.000000,-1608.372265,9343.876971
1146.248762,1225.426488,1378.604799,7888.683016
1146.249065,2527.442131,3676.279464,7582.326394
1146.249338,2833.798753,4135.814397,8960.931193
1146.249638,3140.155375,3982.636086,9803.411904
1146.249939,2680.620442,3216.744531,10569.303459
1146.250239,-842.480710,-1302.015643,10875.660081
1146.250539,-3523.101153,-5973.954129,10645.892614
1146.250839,-6510.078217,-9037.520349,11794.729947
1146.251139,-4288.992708,-10799.070925,11335.195014
1146.251439,-842.480710,-11258.605858,11182.016703
1146.251756,153.178311,-8118.450483,11182.016703
1146.252055,-382.945777,-5820.775818,11182.016703
1146.252353,1531.783110,-1455.193954,10109.768526
1146.252652,612.713244,306.356622,10722.481770
1146.252951,1378.604799,2450.852976,10262.946837
1146.253249,-76.589155,4288.992708,10645.892614
1146.253548,2680.620442,7429.148083,9573.644437
1146.253846,6280.310751,10109.768526,8731.163727
1146.254146,6893.023995,11182.016703,10416.125148
1146.254444,3293.333686,10262.946837,12407.443191
1146.254741,-229.767466,6203.721595,11488.373325
1146.255039,-3063.566220,2604.031287,10875.660081
1146.255336,-6816.434839,-2986.977064,12713.799813
1146.255633,-6663.256528,-8118.450483,12560.621502
1146.255931,-5437.830040,-9190.698660,12254.264880
1146.256228,-842.480710,-7352.558928,11182.016703
1146.256535,-1455.193954,-5054.884263,11105.427547
1146.256837,1838.139732,-842.480710,10875.660081
1146.257139,2144.496354,3216.744531,8501.396260
1146.257441,2680.620442,4748.527641,8195.039638
1146.257742,-842.480710,3829.457775,9803.411904
1146.258044,612.713244,3676.279464,9267.287815
1146.258346,2297.674665,4442.171019,8807.752882
1146.258647,5208.062574,4978.295107,8654.574571
1146.258893,1684.961421,1838.139732,8807.752882
1146.259197,-689.302399,-995.659021,10952.249236
1146.259502,-2221.085509,-5514.419196,10109.768526
1146.259807,-1761.550576,-7812.093861,10569.303459
1146.260112,-3982.636086,-11258.605858,10722.481770
1146.260416,-5897.364973,-15471.009411,11488.373325
1146.260721,-2067.907198,-11105.427547,11028.838392
1146.261026,1838.139732,-5973.954129,10416.125148
1146.261343,2680.620442,-1455.193954,10416.125148
1146.261643,306.356622,-76.589155,10875.660081
1146.261944,-842.480710,3676.279464,10569.303459
1146.262245,-0.000000,4748.527641,9956.590215
1146.262545,2527.442131,6050.543284,9267.287815
1146.262846,3446.511997,5591.008351,9573.644437
1146.263147,4212.403552,4288.992708,10569.303459
1146.263447,1225.426488,1991.318043,12101.086569
1146.263729,306.356622,765.891555,11488.373325
1146.264031,-995.659021,-2374.263820,12254.264880
1146.264333,-4135.814397,-5820.775818,12713.799813
1146.264635,-2604.031287,-6433.489062,10569.303459
1146.264937,-1914.728887,-4901.705952,9650.233593
1146.265239,153.178311,-3446.511997,9956.590215
1146.265541,-689.302399,-1302.015643,12407.443191
1146.265843,-1608.372265,2450.852976,12407.443191
1146.266132,153.178311,5131.473418,10569.303459
1146.266431,-1455.193954,6816.434839,9573.644437
1146.266731,-842.480710,5591.008351,10186.357681
1146.267030,1531.783110,4748.527641,10109.768526
1146.267329,5208.062574,5437.830040,8960.931193
1146.267628,7429.148083,5591.008351,7965.272172
1146.267927,4671.938485,3216.744531,9267.287815
1146.268227,2297.674665,1072.248177,10569.303459
1146.268540,-1455.193954,-1148.837332,9803.411904
1146.268839,-4748.527641,-4671.938485,9650.233593
1146.269138,-10033.179370,-9880.001059,11641.551636
1146.269436,-8271.628794,-10799.070925,11794.729947
1146.269735,-4288.992708,-9497.055282,10875.660081
1146.270034,-2757.209598,-5820.775818,10645.892614
1146.270332,-1148.837332,-4059.225241,11335.195014
1146.270631,1378.604799,-229.767466,10186.357681
1146.270938,4212.403552,1531.783110,8960.931193
1146.271235,5054.884263,1072.248177,8807.752882
1146.271531,2833.798753,-1455.193954,9726.822748
1146.271827,5208.062574,-1455.193954,8960.931193
1146.272124,8348.217949,-382.945777,8654.574571
1146.272420,4671.938485,-2221.085509,10722.481770
1146.272717,-995.659021,-2374.263820,12101.086569
1146.273013,-3676.279464,-3140.155375,11488.373325
1146.273343,-7122.791461,-2833.798753,10799.070925
1146.273642,-9343.876971,-6586.667373,12407.443191
1146.273941,-11871.319102,-9497.055282,15394.420255
1146.274240,-6356.899906,-7199.380617,13096.745590
1146.274538,3293.333686,-2374.263820,10186.357681
1146.274837,6127.132440,919.069866,9114.109504
1146.275136,7888.683016,3063.566220,10109.768526
1146.275435,5820.775818,4825.116796,10569.303459
1146.275730,5361.240885,5897.364973,9114.109504
1146.276031,2297.674665,3982.636086,9420.466126
1146.276332,-382.945777,1225.426488,9114.109504
1146.276633,-76.589155,1684.961421,9803.411904
1146.276934,2833.798753,4825.116796,9267.287815
1146.277235,-229.767466,5131.473418,9956.590215
1146.277536,-3216.744531,3829.457775,12407.443191
1146.277836,-7352.558928,1684.961421,13326.513057
1146.278125,-5744.186662,1991.318043,12484.032346
1146.278425,-5131.473418,1378.604799,11488.373325
1146.278726,-2067.907198,-689.302399,9420.466126
1146.279027,2527.442131,306.356622,9114.109504
1146.279328,2527.442131,-842.480710,10569.303459
1146.279629,1225.426488,-995.659021,11641.551636
1146.279929,459.534933,-2374.263820,9956.590215
1146.280230,1531.783110,-2067.907198,9267.287815
1146.280539,1378.604799,-3752.868619,9114.109504
1146.280835,2527.442131,-3140.155375,7888.683016
1146.281130,3293.333686,-382.945777,8195.039638
1146.281425,2374.263820,919.069866,9956.590215
1146.281721,-382.945777,765.891555,11794.729947
1146.282016,-3063.566220,1684.961421,12101.086569
1146.282312,-3982.636086,765.891555,11641.551636
1146.282607,-6663.256528,-2833.798753,12254.264880
1146.282914,-7352.558928,-6586.667373,12713.799813
1146.283213,-1455.193954,-7965.272172,11488.373325
1146.283512,4059.225241,-8271.628794,8807.752882
1146.283811,4901.705952,-7199.380617,11182.016703
1146.284110,2527.442131,-8271.628794,11335.195014
1146.284409,2527.442131,-5514.419196,9956.590215
1146.284707,1531.783110,-2067.907198,8501.396260
1146.285006,919.069866,-995.659021,8807.752882
1146.285323,-1455.193954,-1148.837332,10033.179370
1146.285620,765.891555,1072.248177,9803.411904
1146.285918,4518.760174,4748.527641,8654.574571
1146.286216,1991.318043,5131.473418,10186.357681
1146.286513,-1148.837332,4595.349330,12101.086569
1146.286811,-6510.078217,1991.318043,12254.264880
1146.287109,-6510.078217,1531.783110,11641.551636
1146.287407,-8731.163727,-3140.155375,11794.729947
1146.287721,-5284.651729,-4518.760174,10492.714303
1146.288020,765.891555,-4518.760174,10262.946837
1146.288319,3752.868619,-2067.907198,10569.303459
1146.288617,4212.403552,-1914.728887,10109.768526
1146.288916,6127.132440,1684.961421,9573.644437
1146.289215,5054.884263,4135.814397,8501.396260
1146.289513,2986.977064,5744.186662,8195.039638
1146.289812,-2450.852976,4978.295107,9573.644437
1146.290100,-2450.852976,4978.295107,10722.481770
1146.290400,-0.000000,5284.651729,10109.768526
1146.290700,1072.248177,5897.364973,10569.303459
1146.291000,-689.302399,4595.349330,11641.551636
1146.291300,-2757.209598,1838.139732,10875.660081
1146.291600,-3982.636086,-536.124088,11641.551636
1146.291900,-5591.008351,-3599.690308,13096.745590
1146.292200,-3676.279464,-6893.023995,11794.729947
1146.292500,-1302.015643,-8118.450483,10569.303459
1146.292802,919.069866,-7046.202306,9803.411904
1146.293105,612.713244,-5973.954129,9803.411904
1146.293408,1072.248177,-4825.116796,11488.373325
1146.293710,-76.589155,-3599.690308,11794.729947
1146.294013,765.891555,-995.659021,9803.411904
1146.294315,-76.589155,459.534933,9037.520349
1146.294618,2986.977064,2450.852976,7275.969772
1146.294925,5361.240885,2450.852976,8195.039638
1146.295225,4671.938485,2450.852976,11182.016703
1146.295525,306.356622,-382.945777,11718.140791
1146.295826,-995.659021,-1608.372265,11794.729947
1146.296126,-1914.728887,-3906.046930,10033.179370
1146.296426,-3523.101153,-5973.954129,10952.249236
1146.296726,-4442.171019,-8884.342038,10722.481770
1146.297026,-3982.636086,-9880.001059,9650.233593
1146.297343,-1608.372265,-8118.450483,9880.001059
1146.297636,-1761.550576,-6280.310751,11488.373325
1146.297930,-1761.550576,-1608.372265,11794.729947
1146.298224,-0.000000,1991.318043,9956.590215
1146.298517,612.713244,4978.295107,9114.109504
1146.298811,-229.767466,7275.969772,9956.590215
1146.299105,2680.620442,8348.217949,9803.411904
1146.299399,5208.062574,8960.931193,8501.396260
1146.299717,8041.861327,9803.411904,9114.109504
1146.300015,3293.333686,5744.186662,10952.249236
1146.300314,765.891555,2144.496354,11488.373325
1146.300612,-995.659021,153.178311,12101.086569
1146.300910,-3369.922842,-2374.263820,11641.551636
1146.301208,-7658.915550,-6433.489062,11182.016703
1146.301507,-6969.613150,-7046.202306,12254.264880
1146.301805,-2910.387909,-5054.884263,12101.086569
1146.302118,153.178311,-1761.550576,11182.016703
1146.302417,-842.480710,459.534933,10875.660081
1146.302716,-229.767466,1072.248177,11641.551636
1146.303016,-536.124088,3523.101153,11105.427547
1146.303315,3140.155375,4978.295107,8501.396260
1146.303615,3752.868619,4978.295107,8348.217949
1146.303914,4671.938485,1991.318043,7812.093861
1146.304213,5208.062574,1531.783110,9343.876971
1146.304513,2986.977064,-0.000000,10875.660081
1146.304810,2144.496354,-1761.550576,10416.125148
1146.305108,-2910.387909,-6586.667373,10952.249236
1146.305405,-4748.527641,-8424.807105,10262.946837
1146.305703,-8271.628794,-11564.962480,11564.962480
1146.306000,-8118.450483,-12943.567279,12790.388968
1146.306297,-3063.566220,-10952.249236,12560.621502
1146.306595,919.069866,-5667.597507,10569.303459
1146.306902,3293.333686,-2221.085509,9420.466126
1146.307203,4059.225241,1531.783110,9803.411904
1146.307504,4365.581863,3523.101153,8807.752882
1146.307805,4365.581863,4825.116796,7965.272172
1146.308106,765.891555,1684.961421,9114.109504
1146.308407,-76.589155,-689.302399,9956.590215
1146.308708,2297.674665,1225.426488,9956.590215
1146.309008,2680.620442,2757.209598,10645.892614
1146.309289,-536.124088,1378.604799,10569.303459
1146.309594,-4595.349330,-2374.263820,13096.745590
1146.309899,-6816.434839,-2527.442131,13096.745590
1146.310204,-5897.364973,-2221.085509,10875.660081
1146.310509,-3982.636086,-3140.155375,10262.946837
1146.310814,-1455.193954,-3140.155375,11182.016703
1146.311120,2680.620442,-995.659021,11335.195014
1146.311425,7275.969772,3216.744531,10109.768526
1146.311698,7122.791461,4978.295107,10416.125148
1146.312001,5973.954129,6050.543284,10722.481770
1146.312303,5054.884263,6510.078217,9803.411904
1146.312606,3906.046930,7122.791461,8807.752882
1146.312909,4212.403552,6203.721595,7888.683016
1146.313211,-1302.015643,3369.922842,10722.481770
1146.313514,-4288.992708,765.891555,12713.799813
1146.313816,-8118.450483,-76.589155,13249.923901
1146.314089,-9497.055282,-536.124088,12790.388968
1146.314390,-9573.644437,-3599.690308,11947.908258
1146.314690,-8118.450483,-3446.511997,11488.373325
1146.314991,-4595.349330,-4825.116796,11794.729947
1146.315292,2833.798753,-4825.116796,9114.109504
1146.315593,9420.466126,-1914.728887,6969.613150
1146.315894,8501.396260,-2986.977064,9573.644437
1146.316195,6739.845684,-4212.403552,10416.125148
1146.316495,3752.868619,-4518.760174,9803.411904
1146.316795,2374.263820,-4212.403552,8960.931193
1146.317095,-1302.015643,-4825.116796,9267.287815
1146.317395,-1148.837332,-3446.511997,9267.287815
1146.317695,1531.783110,-536.124088,9114.109504
1146.317995,2986.977064,919.069866,9650.233593
1146.318295,-2604.031287,306.356622,10799.070925
1146.318595,-5897.364973,-1302.015643,13403.102212
1146.318885,-8577.985416,-2833.798753,13556.280523
1146.319188,-7352.558928,-3293.333686,12407.443191
1146.319491,-7199.380617,-6433.489062,11028.838392
1146.319793,-2067.907198,-7965.272172,9726.822748
1146.320096,3906.046930,-7046.202306,9803.411904
1146.320398,7735.504705,-4825.116796,10109.768526
1146.320701,6739.845684,-2527.442131,9650.233593
1146.321003,7122.791461,-689.302399,8960.931193
1146.321311,5667.597507,1838.139732,8348.217949
1146.321611,4212.403552,3676.279464,8195.039638
1146.321911,1531.783110,5284.651729,8960.931193
1146.322211,153.178311,5284.651729,9726.822748
1146.322511,-1761.550576,5437.830040,11335.195014
1146.322811,-4135.814397,6356.899906,13403.102212
1146.323110,-5437.830040,8041.861327,13403.102212
1146.323410,-8577.985416,6050.543284,13403.102212
1146.323694,-6969.613150,4825.116796,12101.086569
1146.323997,-7199.380617,3063.566220,12560.621502
1146.324299,-3063.566220,-1148.837332,11182.016703
1146.324602,1225.426488,-3140.155375,10722.481770
1146.324905,3446.511997,-3906.046930,10722.481770
1146.325208,5361.240885,-5054.884263,9343.876971
1146.325511,6739.845684,-3446.511997,8041.861327
1146.325814,5054.884263,-2221.085509,9114.109504
1146.326095,4365.581863,-382.945777,9114.109504
1146.326398,919.069866,1225.426488,9420.466126
1146.326701,1991.318043,3982.636086,7888.683016
1146.327003,1684.961421,5591.008351,9343.876971
1146.327306,-2067.907198,5284.651729,11488.373325
1146.327609,-6356.899906,2757.209598,12790.388968
1146.327912,-10186.357681,-1761.550576,14322.172078
1146.328214,-8577.985416,-2833.798753,12101.086569
1146.328504,-6356.899906,-6280.310751,11641.551636
1146.328800,-1914.728887,-9726.822748,10262.946837
1146.329096,1684.961421,-11564.962480,10569.303459
1146.329391,5973.954129,-11564.962480,9803.411904
1146.329687,8654.574571,-9343.876971,8960.931193
1146.329983,8960.931193,-7658.915550,8960.931193
1146.330279,5054.884263,-6433.489062,9114.109504
1146.330575,-842.480710,-3906.046930,8884.342038
1146.330884,-3216.744531,-536.124088,9497.055282
1146.331182,-1148.837332,2450.852976,9420.466126
1146.331481,-842.480710,4442.171019,10722.481770
1146.331779,-382.945777,8195.039638,11947.908258
1146.332078,-3369.922842,9420.466126,12254.264880
1146.332376,-3523.101153,7735.504705,11028.838392
1146.332675,-4288.992708,3369.922842,10952.249236
1146.332973,-6663.256528,-1914.728887,13249.923901
1146.333280,-5131.473418,-6739.845684,12177.675724
1146.333580,-689.302399,-7199.380617,9956.590215
1146.333880,6586.667373,-6280.310751,8960.931193
1146.334179,6586.667373,-5208.062574,10109.768526
1146.334479,3906.046930,-2680.620442,11488.373325
1146.334779,2374.263820,612.713244,10722.481770
1146.335078,3293.333686,5284.651729,8041.861327
1146.335378,1684.961421,8348.217949,7658.915550
1146.335675,1991.318043,8807.752882,8348.217949
1146.335974,919.069866,10109.768526,10109.768526
1146.336274,2680.620442,10722.481770,9956.590215
1146.336573,-1148.837332,7888.683016,11335.195014
1146.336873,-3982.636086,4442.171019,12943.567279
1146.337172,-6663.256528,612.713244,12484.032346
1146.337472,-7199.380617,-3599.690308,12254.264880
1146.337772,-4748.527641,-7812.093861,10186.357681
1146.338099,-3216.744531,-10952.249236,8577.985416
1146.338398,765.891555,-11411.784169,9497.055282
1146.338697,153.178311,-11411.784169,12637.210657
1146.338995,-689.302399,-10033.179370,11947.908258
1146.339294,2297.674665,-5973.954129,9803.411904
1146.339593,2527.442131,-1914.728887,8654.574571
1146.339892,3140.155375,765.891555,8960.931193
1146.340191,3906.046930,2910.387909,8654.574571
1146.340479,6127.132440,4825.116796,8041.861327
1146.340779,5973.954129,6203.721595,8807.752882
1146.341080,459.534933,1838.139732,11488.373325
1146.341381,-3216.744531,-76.589155,14322.172078
1146.341682,-6510.078217,-3599.690308,12943.567279
1146.341983,-6816.434839,-5361.240885,10722.481770
1146.342283,-9573.644437,-9650.233593,12024.497413
1146.342584,-4595.349330,-10799.070925,10722.481770
1146.342893,-0.000000,-9190.698660,10875.660081
1146.343192,3906.046930,-5054.884263,10875.660081
1146.343491,2527.442131,-4212.403552,10033.179370
1146.343789,2833.798753,-1761.550576,10186.357681
1146.344088,3446.511997,1991.318043,10109.768526
1146.344387,3906.046930,4978.295107,9420.466126
1146.344685,1225.426488,5897.364973,8654.574571
1146.344984,3752.868619,6816.434839,8807.752882
1146.345291,5667.597507,8501.396260,9573.644437
1146.345589,4901.705952,9650.233593,11258.605858
1146.345887,459.534933,9267.287815,12101.086569
1146.346186,-2604.031287,5131.473418,10416.125148
1146.346484,-7199.380617,2297.674665,10722.481770
1146.346782,-10492.714303,-2527.442131,11947.908258
1146.347080,-10033.179370,-5514.419196,12713.799813
1146.347378,-5744.186662,-7658.915550,12713.799813
1146.347694,-76.589155,-5208.062574,10952.249236
1146.347993,2527.442131,-2221.085509,10262.946837
1146.348291,3599.690308,-76.589155,10492.714303
1146.348590,3140.155375,919.069866,10262.946837
1146.348888,4212.403552,2297.674665,7888.683016
1146.349187,1378.604799,1838.139732,9190.698660
1146.349485,4212.403552,1838.139732,7888.683016
1146.349784,5054.884263,3063.566220,9190.698660
1146.350098,6586.667373,4135.814397,10262.946837
1146.350397,1838.139732,1072.248177,9803.411904
1146.350695,-3063.566220,-76.589155,11718.140791
1146.350994,-6050.543284,-4212.403552,12484.032346
1146.351293,-8884.342038,-5820.775818,11488.373325
1146.351591,-9573.644437,-10033.179370,11335.195014
1146.351890,-6969.613150,-11258.605858,11794.729947
1146.352189,-1455.193954,-11105.427547,11718.140791
1146.352477,2144.496354,-7965.272172,12101.086569
1146.352777,4748.527641,-4671.938485,11335.195014
1146.353077,4365.581863,-4212.403552,9956.590215
1146.353377,5361.240885,-1608.372265,8041.861327
1146.353677,3906.046930,919.069866,7275.969772
1146.353976,4059.225241,1838.139732,8654.574571
1146.354276,3752.868619,3369.922842,9114.109504
1146.354576,5667.597507,4748.527641,8960.931193
1146.354876,1684.961421,5437.830040,10569.303459
1146.355175,-995.659021,3676.279464,10875.660081
1146.355474,-5437.830040,1225.426488,12407.443191
1146.355774,-7505.737239,-842.480710,12484.032346
1146.356073,-9190.698660,-4059.225241,11564.962480
1146.356372,-6663.256528,-5514.419196,12101.086569
1146.356671,-0.000000,-4365.581863,11641.551636
1146.356970,4518.760174,-995.659021,10416.125148
1146.357278,4212.403552,1072.248177,9803.411904
1146.357577,2986.977064,1838.139732,10722.481770
1146.357876,1072.248177,1991.318043,10109.768526
1146.358175,-0.000000,2297.674665,10569.303459
1146.358475,-689.302399,4135.814397,10875.660081
1146.358774,1838.139732,5437.830040,8807.752882
1146.359073,5514.419196,9573.644437,8501.396260
1146.359373,4365.581863,10569.303459,10262.946837
1146.359693,2144.496354,8501.396260,11335.195014
1146.359990,-2604.031287,4595.349330,11182.016703
1146.360287,-3523.101153,1838.139732,10722.481770
1146.360584,-5591.008351,-3752.868619,10109.768526
1146.360881,-4595.349330,-8577.985416,11182.016703
1146.361178,-229.767466,-10033.179370,12254.264880
1146.361475,1072.248177,-10186.357681,11335.195014
1146.361772,-1148.837332,-9880.001059,11947.908258
1146.362091,-1914.728887,-7965.272172,12024.497413
1146.362388,-1914.728887,-5054.884263,10339.535992
1146.362685,-842.480710,-2680.620442,9420.466126
1146.362981,-1761.550576,-382.945777,9114.109504
1146.363278,3140.155375,2910.387909,8654.574571
1146.363575,9803.411904,6203.721595,6280.310751
1146.363872,9420.466126,6203.721595,7735.504705
1146.364169,1531.783110,3063.566220,11182.016703
1146.364486,-3829.457775,-2067.907198,12560.621502
1146.364782,-4135.814397,-1608.372265,10722.481770
1146.365078,-4135.814397,-4825.116796,10262.946837
1146.365374,-6510.078217,-9497.055282,11794.729947
1146.365670,-4978.295107,-11871.319102,12560.621502
1146.365966,-995.659021,-9650.233593,12254.264880
1146.366262,919.069866,-7505.737239,10569.303459
1146.366558,-76.589155,-7199.380617,10722.481770
1146.366858,-1455.193954,-4212.403552,10875.660081
1146.367158,765.891555,-1608.372265,9114.109504
1146.367459,1072.248177,1991.318043,8424.807105
1146.367760,5054.884263,6663.256528,7888.683016
1146.368061,6739.845684,8041.861327,9420.466126
1146.368362,6893.023995,11947.908258,11182.016703
1146.368662,3906.046930,12713.799813,10645.892614
1146.368963,1838.139732,11182.016703,9880.001059
1146.369270,-3369.922842,5591.008351,11641.551636
1146.369567,-4135.814397,1225.426488,11488.373325
1146.369864,-6969.613150,-3906.046930,12407.443191
1146.370161,-6203.721595,-8424.807105,12330.854035
1146.370458,-689.302399,-7199.380617,10875.660081
1146.370755,612.713244,-7046.202306,12254.264880
1146.371052,306.356622,-3906.046930,11947.908258
1146.371349,-2067.907198,-2833.798753,10416.125148
1146.371657,-1914.728887,1072.248177,9573.644437
1146.371956,-1914.728887,2757.209598,9803.411904
1146.372255,-0.000000,4288.992708,9650.233593
1146.372554,1684.961421,6356.899906,10722.481770
1146.372853,6586.667373,8195.039638,9956.590215
1146.373152,4671.938485,8195.039638,9650.233593
1146.373450,3906.046930,4748.527641,9726.822748
1146.373749,-382.945777,-382.945777,11794.729947
1146.374066,-2374.263820,-4825.116796,10722.481770
1146.374365,-3523.101153,-9497.055282,8501.396260
1146.374664,-2221.085509,-14168.993767,9650.233593
1146.374964,612.713244,-15011.474478,12101.086569
1146.375263,1991.318043,-12484.032346,12560.621502
1146.375562,-689.302399,-9190.698660,11028.838392
1146.375861,-229.767466,-5208.062574,9573.644437
1146.376160,-2450.852976,-1761.550576,9803.411904
1146.376477,-3829.457775,765.891555,10109.768526
1146.376775,-4442.171019,3216.744531,10416.125148
1146.377073,-2221.085509,4442.171019,9956.590215
1146.377371,3906.046930,7122.791461,8501.396260
1146.377669,5054.884263,6663.256528,10109.768526
1146.377966,3446.511997,4978.295107,11641.551636
1146.378264,-995.659021,765.891555,11641.551636
1146.378562,-995.659021,-2374.263820,10186.357681
1146.378862,-2757.209598,-4365.581863,10186.357681
1146.379161,-2221.085509,-7658.915550,10722.481770
1146.379460,-382.945777,-6739.845684,11564.962480
1146.379759,765.891555,-4671.938485,11028.838392
1146.380058,-689.302399,-3293.333686,10416.125148
1146.380357,-2604.031287,-229.767466,12024.497413
1146.380657,-1761.550576,2450.852976,11641.551636
1146.380956,1378.604799,6050.543284,10569.303459
1146.381242,919.069866,9573.644437,9956.590215
1146.381541,4518.760174,11028.838392,8348.217949
1146.381840,4671.938485,11028.838392,9650.233593
1146.382140,3140.155375,8501.396260,11641.551636
1146.382439,-536.124088,5591.008351,12024.497413
1146.382739,-3523.101153,-382.945777,10875.660081
1146.383038,-4978.295107,-2527.442131,9956.590215
1146.383338,-5131.473418,-7352.558928,10262.946837
1146.383678,-3829.457775,-8884.342038,11794.729947
1146.383974,-1914.728887,-8884.342038,11411.784169
1146.384270,1378.604799,-6586.667373,9956.590215
1146.384565,-536.124088,-4518.760174,10416.125148
1146.384861,-842.480710,-3140.155375,10645.892614
1146.385157,-689.302399,-1302.015643,10416.125148
1146.385452,-229.767466,-1148.837332,9267.287815
1146.385748,612.713244,-1608.372265,9114.109504
1146.386045,3140.155375,-536.124088,9956.590215
1146.386345,7275.969772,1225.426488,9726.822748
1146.386645,8501.396260,3216.744531,8960.931193
1146.386946,2527.442131,1072.248177,9803.411904
1146.387246,-1455.193954,-842.480710,9803.411904
1146.387546,-4978.295107,-5054.884263,10722.481770
1146.387847,-6050.543284,-7352.558928,10569.303459
1146.388147,-6356.899906,-9190.698660,10875.660081
1146.388442,-3063.566220,-9343.876971,10416.125148
1146.388743,3140.155375,-4671.938485,9650.233593
1146.389043,4671.938485,-1148.837332,10416.125148
1146.389344,1991.318043,153.178311,11335.195014
1146.389645,-3523.101153,-1148.837332,11794.729947
1146.389946,-3063.566220,-536.124088,10722.481770
1146.390247,-2757.209598,153.178311,9956.590215
1146.390548,153.178311,306.356622,9420.466126
1146.390836,2680.620442,2297.674665,9573.644437
1146.391137,4518.760174,5591.008351,10109.768526
1146.391438,3293.333686,6356.899906,10569.303459
1146.391738,306.356622,5437.830040,11488.373325
1146.392039,-2450.852976,2604.031287,12101.086569
1146.392340,-2450.852976,2604.031287,10262.946837
1146.392641,-2067.907198,-76.589155,8960.931193
1146.392942,-1148.837332,-1148.837332,9956.590215
1146.393255,1684.961421,-2986.977064,11641.551636
1146.393554,1991.318043,-995.659021,13403.102212
1146.393853,612.713244,-229.767466,11028.838392
1146.394152,-1608.372265,-1914.728887,10416.125148
1146.394450,-2604.031287,-842.480710,10722.481770
1146.394749,-1761.550576,-382.945777,10416.125148
1146.395048,459.534933,1072.248177,8960.931193
1146.395346,1531.783110,1378.604799,9420.466126
1146.395687,3599.690308,3369.922842,10722.481770
1146.395981,2297.674665,4748.527641,11182.016703
1146.396276,1838.139732,5591.008351,10416.125148
1146.396570,-2604.031287,1072.248177,10109.768526
1146.396864,-5284.651729,-3752.868619,11182.016703
1146.397159,-3829.457775,-4901.705952,11028.838392
1146.397453,1225.426488,-6127.132440,9420.466126
1146.397748,5514.419196,-7199.380617,9114.109504
1146.398044,3906.046930,-6586.667373,10875.660081
1146.398342,459.534933,-6433.489062,10186.357681
1146.398640,-229.767466,-4212.403552,10416.125148
1146.398938,-4135.814397,-5514.419196,11028.838392
1146.399237,-4595.349330,-5514.419196,10033.179370
1146.399535,-4595.349330,-3599.690308,10416.125148
1146.399833,1072.248177,-995.659021,8348.217949
1146.400131,5361.240885,1531.783110,8807.752882
1146.400488,5667.597507,2910.387909,10262.946837
1146.400780,919.069866,4442.171019,11182.016703
1146.401073,-3063.566220,2297.674665,10952.249236
1146.401366,-4442.171019,1072.248177,10109.768526
1146.401658,-4288.992708,-1608.372265,9803.411904
1146.401951,-2067.907198,-4212.403552,11335.195014
1146.402243,612.713244,-7046.202306,11335.195014
1146.402536,3906.046930,-5667.597507,11028.838392
1146.402848,4212.403552,-1914.728887,11105.427547
1146.403144,1684.961421,-995.659021,11105.427547
1146.403441,-1455.193954,-0.000000,11182.016703
1146.403738,-2450.852976,1838.139732,10722.481770
1146.404034,-4978.295107,2757.209598,10262.946837
1146.404331,-229.767466,5131.473418,9114.109504
1146.404628,2833.798753,5897.364973,9803.411904
1146.404924,4671.938485,7735.504705,9956.590215
1146.405224,919.069866,8195.039638,10875.660081
1146.405526,-1148.837332,4748.527641,10262.946837
1146.405829,-5284.651729,-536.124088,11794.729947
1146.406132,-5897.364973,-5054.884263,13249.923901
1146.406434,-3369.922842,-6586.667373,10109.768526
1146.406737,1225.426488,-8271.628794,9420.466126
1146.407039,5973.954129,-5054.884263,9267.287815
1146.407342,5820.775818,-3906.046930,9803.411904
1146.407682,3140.155375,-689.302399,11028.838392
1146.407974,-1761.550576,-1761.550576,10262.946837
1146.408265,-5744.186662,-2680.620442,10262.946837
1146.408556,-5897.364973,-2221.085509,10416.125148
1146.408847,-2067.907198,-536.124088,9267.287815
1146.409138,3293.333686,612.713244,9267.287815
1146.409429,7735.504705,4825.116796,9114.109504
1146.409720,5208.062574,5437.830040,9956.590215
1146.410041,2986.977064,3829.457775,9956.590215
1146.410338,-1761.550576,-382.945777,12024.497413
1146.410635,-2221.085509,-4059.225241,10109.768526
1146.410932,-3829.457775,-8271.628794,9573.644437
1146.411229,-3676.279464,-12177.675724,10262.946837
1146.411526,-536.124088,-12484.032346,11641.551636
1146.411823,153.178311,-9037.520349,13249.923901
1146.412120,-229.767466,-3906.046930,11182.016703
1146.412438,-2374.263820,-2221.085509,10186.357681
1146.412737,-4978.295107,1072.248177,10339.535992
1146.413035,-4135.814397,3523.101153,10569.303459
1146.413333,-382.945777,7122.791461,9420.466126
1146.413631,4212.403552,7275.969772,9650.233593
1146.413930,7735.504705,7582.326394,9650.233593
1146.414228,6586.667373,8807.752882,10722.481770
1146.414526,4748.527641,7735.504705,11028.838392
1146.414839,-0.000000,1531.783110,10875.660081
1146.415137,-2450.852976,-2680.620442,10875.660081
1146.415436,-4825.116796,-5054.884263,11488.373325
1146.415734,-3523.101153,-7658.915550,11182.016703
1146.416033,-995.659021,-7812.093861,10875.660081
1146.416331,1838.139732,-4671.938485,12407.443191
1146.416630,-1302.015643,-2680.620442,11641.551636
1146.416928,-2221.085509,1072.248177,10645.892614
1146.417228,-2757.209598,3676.279464,9956.590215
1146.417528,-689.302399,5437.830040,8807.752882
1146.417829,-1608.372265,5131.473418,8960.931193
1146.418130,2833.798753,4442.171019,9573.644437
1146.418431,4671.938485,4595.349330,9573.644437
1146.418731,5514.419196,3982.636086,10569.303459
1146.419032,1072.248177,1991.318043,11028.838392
1146.419333,-1914.728887,-3293.333686,10416.125148
1146.419674,-3523.101153,-5667.597507,9650.233593
1146.419966,-5897.364973,-9650.233593,11028.838392
1146.420258,-4442.171019,-10799.070925,10416.125148
1146.420550,-842.480710,-11871.319102,10875.660081
1146.420842,3140.155375,-8118.450483,10569.303459
1146.421134,5208.062574,-3752.868619,10416.125148
1146.421426,4518.760174,765.891555,9420.466126
1146.421718,1991.318043,2910.387909,8960.931193
1146.422032,-1914.728887,1838.139732,10569.303459
1146.422335,-7122.791461,-1302.015643,12713.799813
1146.422638,-4288.992708,153.178311,11182.016703
1146.422941,2527.442131,2450.852976,8654.574571
1146.423243,3906.046930,3829.457775,9343.876971
1146.423546,153.178311,2144.496354,11028.838392
1146.423849,-842.480710,1684.961421,11488.373325
1146.424152,-1608.372265,-689.302399,11105.427547
1146.424425,-2910.387909,-5208.062574,10262.946837
1146.424727,-5897.364973,-9497.055282,11488.373325
1146.425030,-3676.279464,-10033.179370,11794.729947
1146.425332,3906.046930,-4825.116796,10416.125148
1146.425635,6893.023995,-229.767466,10339.535992
1146.425938,3446.511997,2757.209598,11641.551636
1146.426240,-76.589155,4748.527641,10799.070925
1146.426543,306.356622,9267.287815,9420.466126
1146.426860,1225.426488,10416.125148,8118.450483
1146.427156,-689.302399,5897.364973,10109.768526
1146.427451,-2450.852976,3676.279464,12254.264880
1146.427746,3140.155375,5284.651729,10569.303459
1146.428041,4365.581863,5284.651729,9114.109504
1146.428337,1072.248177,2144.496354,9956.590215
1146.428632,-3829.457775,-3293.333686,11947.908258
1146.428927,-4135.814397,-4059.225241,11105.427547
1146.429227,-2604.031287,-5514.419196,9803.411904
1146.429525,-1148.837332,-7965.272172,9573.644437
1146.429822,153.178311,-7199.380617,10492.714303
1146.430119,-76.589155,-4671.938485,13096.745590
1146.430417,-1148.837332,-1302.015643,11641.551636
1146.430714,-536.124088,459.534933,9956.590215
1146.431012,-1914.728887,1225.426488,9956.590215
1146.431309,-2221.085509,1072.248177,10569.303459
1146.431639,-689.302399,3063.566220,9650.233593
1146.431936,4671.938485,3829.457775,8731.163727
1146.432233,6893.023995,3063.566220,9114.109504
1146.432530,3752.868619,1991.318043,10339.535992
1146.432827,-689.302399,306.356622,11335.195014
1146.433124,-4442.171019,-4212.403552,10875.660081
1146.433421,-4748.527641,-6893.023995,9803.411904
1146.433718,-6663.256528,-9650.233593,10109.768526
1146.434026,-3063.566220,-12330.854035,10799.070925
1146.434326,612.713244,-10952.249236,11182.016703
1146.434625,4671.938485,-6433.489062,11564.962480
1146.434925,3906.046930,-3752.868619,10492.714303
1146.435225,2297.674665,-1302.015643,10875.660081
1146.435525,612.713244,1378.604799,10722.481770
1146.435825,1072.248177,4825.116796,8960.931193
1146.436125,-995.659021,5131.473418,8195.039638
1146.436408,-842.480710,4595.349330,8501.396260
1146.436711,153.178311,4978.295107,11105.427547
1146.437014,306.356622,5437.830040,12790.388968
1146.437316,-2221.085509,6969.613150,11641.551636
1146.437619,-2757.209598,2757.209598,11488.373325
1146.437922,-2757.209598,765.891555,10416.125148
1146.438225,-842.480710,-1914.728887,10109.768526
1146.438528,1072.248177,-4365.581863,9650.233593
1146.438843,1838.139732,-6433.489062,10262.946837
1146.439137,2986.977064,-6586.667373,11335.195014
1146.439431,-1148.837332,-6586.667373,14015.815456
1146.439725,-1148.837332,-3293.333686,13249.923901
1146.440019,-1914.728887,306.356622,11105.427547
1146.440313,-689.302399,4595.349330,7429.148083
1146.440607,-1761.550576,5744.186662,8501.396260
1146.440901,-229.767466,7735.504705,9420.466126
1146.441213,3599.690308,10109.768526,9573.644437
1146.441512,4518.760174,9650.233593,10722.481770
1146.441812,-382.945777,6510.078217,11258.605858
1146.442111,-1455.193954,3063.566220,11488.373325
1146.442410,-1302.015643,-1455.193954,9956.590215
1146.442709,153.178311,-5667.597507,9267.287815
1146.443008,-689.302399,-11564.962480,10033.179370
1146.443307,-2067.907198,-15930.544344,11564.962480
1146.443621,1378.604799,-12177.675724,11794.729947
1146.443919,2297.674665,-9497.055282,11182.016703
1146.444217,-229.767466,-6280.310751,11641.551636
1146.444515,-5284.651729,-4825.116796,11335.195014
1146.444812,-6510.078217,-536.124088,10875.660081
1146.445110,-3982.636086,3369.922842,9267.287815
1146.445408,-382.945777,5591.008351,9037.520349
1146.445706,2144.496354,4978.295107,9420.466126
1146.446013,5208.062574,6663.256528,10109.768526
1146.446313,3906.046930,8348.217949,11488.373325
1146.446613,5208.062574,7429.148083,9573.644437
1146.446912,2680.620442,2757.209598,8348.217949
1146.447212,-2067.907198,-4518.760174,10722.481770
1146.447512,-6356.899906,-11718.140791,12101.086569
1146.447812,-3829.457775,-12637.210657,11258.605858
1146.448111,1225.426488,-11871.319102,10262.946837
1146.448408,2144.496354,-10799.070925,11794.729947
1146.448708,-2757.209598,-7046.202306,13862.637145
1146.449007,-2067.907198,-229.767466,11794.729947
1146.449307,-842.480710,5744.186662,10416.125148
1146.449606,306.356622,9803.411904,9114.109504
1146.449906,459.534933,11641.551636,9573.644437
1146.450205,2374.263820,13479.691368,9573.644437
1146.450505,6280.310751,14934.885322,8577.985416
1146.450800,4901.705952,11028.838392,10569.303459
1146.451100,-76.589155,5591.008351,11335.195014
1146.451400,-4825.116796,-229.767466,11105.427547
1146.451700,-5897.364973,-5054.884263,11641.551636
1146.452000,-6050.543284,-9726.822748,11411.784169
1146.452300,-3369.922842,-13709.458834,9803.411904
1146.452601,765.891555,-13403.102212,10416.125148
1146.452901,3293.333686,-10033.179370,10875.660081
1146.453212,1684.961421,-7658.915550,11335.195014
1146.453510,1991.318043,-2527.442131,11335.195014
1146.453807,306.356622,-229.767466,9956.590215
1146.454105,153.178311,2144.496354,9573.644437
1146.454402,153.178311,5131.473418,9573.644437
1146.454700,3293.333686,6510.078217,7275.969772
1146.454997,6739.845684,8041.861327,8195.039638
1146.455295,4748.527641,7429.148083,10722.481770
1146.455594,-76.589155,5437.830040,11335.195014
1146.455894,-4978.295107,-382.945777,12177.675724
1146.456194,-8424.807105,-6586.667373,11794.729947
1146.456494,-9190.698660,-10186.357681,12254.264880
1146.456794,-4595.349330,-13249.923901,10109.768526
1146.457094,-2450.852976,-13709.458834,10416.125148
1146.457394,4059.225241,-10952.249236,10416.125148
1146.457694,5667.597507,-6280.310751,10109.768526
1146.458001,3752.868619,-3446.511997,11794.729947
1146.458299,1072.248177,-1455.193954,10416.125148
1146.458598,459.534933,4442.171019,9650.233593
1146.458896,306.356622,6663.256528,8501.396260
1146.459194,2986.977064,8041.861327,7275.969772
1146.459492,3752.868619,8654.574571,10262.946837
1146.459790,5208.062574,9420.466126,12254.264880
1146.460088,1378.604799,8807.752882,11488.373325
1146.460405,919.069866,7582.326394,10569.303459
1146.460706,-3829.457775,3216.744531,10722.481770
1146.461007,-6356.899906,-1914.728887,11335.195014
1146.461308,-7505.737239,-4901.705952,11335.195014
1146.461609,-5131.473418,-8271.628794,10875.660081
1146.461910,-1302.015643,-8884.342038,11335.195014
1146.462211,-689.302399,-8118.450483,13403.102212
1146.462512,1072.248177,-3599.690308,12101.086569
1146.462826,2680.620442,153.178311,9803.411904
1146.463123,1531.783110,1991.318043,8501.396260
1146.463419,765.891555,3216.744531,9114.109504
1146.463715,3752.868619,6510.078217,8195.039638
1146.464012,5973.954129,9114.109504,8041.861327
1146.464308,7429.148083,8195.039638,8807.752882
1146.464604,1378.604799,4825.116796,10569.303459
1146.464901,-2450.852976,3369.922842,12101.086569
1146.465212,-5437.830040,-229.767466,11028.838392
1146.465509,-5897.364973,-4365.581863,10875.660081
1146.465805,-9190.698660,-10186.357681,11488.373325
1146.466102,-5437.830040,-12484.032346,12101.086569
1146.466398,-536.124088,-10492.714303,11718.140791
1146.466695,2986.977064,-9343.876971,11028.838392
1146.466991,2374.263820,-7505.737239,10722.481770
1146.467288,1531.783110,-5820.775818,10722.481770
1146.467587,765.891555,-1148.837332,9803.411904
1146.467887,3599.690308,153.178311,7429.148083
1146.468186,1531.783110,919.069866,8041.861327
1146.468485,2297.674665,1838.139732,9497.055282
1146.468785,4901.705952,3523.101153,9956.590215
1146.469084,2374.263820,5437.830040,11028.838392
1146.469383,1225.426488,5591.008351,10722.481770
1146.469683,-4748.527641,3063.566220,10339.535992
1146.469990,-6203.721595,459.534933,11335.195014
1146.470290,-7122.791461,-3293.333686,12101.086569
1146.470590,-4978.295107,-7199.380617,11182.016703
1146.470890,-1148.837332,-8271.628794,11105.427547
1146.471190,2986.977064,-6280.310751,11335.195014
1146.471490,1838.139732,-5361.240885,10875.660081
1146.471790,2144.496354,-3599.690308,12101.086569
1146.472090,-1761.550576,-2374.263820,13403.102212
1146.472410,765.891555,1991.318043,9880.001059
1146.472711,2527.442131,6203.721595,6893.023995
1146.473011,4671.938485,8195.039638,5973.954129
1146.473311,6280.310751,9956.590215,8807.752882
1146.473612,6127.132440,11947.908258,11028.838392
1146.473912,3140.155375,10262.946837,9650.233593
1146.474213,-2374.263820,5591.008351,10339.535992
1146.474513,-6510.078217,1991.318043,11182.016703
1146.474832,-7199.380617,-3140.155375,11794.729947
1146.475125,-6510.078217,-7658.915550,11182.016703
1146.475419,-5897.364973,-10952.249236,12713.799813
1146.475712,-3063.566220,-11564.962480,12407.443191
1146.476006,-1455.193954,-8731.163727,12254.264880
1146.476299,612.713244,-4901.705952,11947.908258
1146.476593,-0.000000,-3906.046930,9573.644437
1146.476886,153.178311,-689.302399,9803.411904
1146.477232,2680.620442,919.069866,8195.039638
1146.477524,7122.791461,4978.295107,6280.310751
1146.477817,7735.504705,5437.830040,8195.039638
1146.478110,6280.310751,4978.295107,10645.892614
1146.478403,2374.263820,5897.364973,11641.551636
1146.478695,1991.318043,4978.295107,9880.001059
1146.478988,-2450.852976,765.891555,9956.590215
1146.479281,-7122.791461,-4825.116796,11488.373325
1146.479580,-9573.644437,-10033.179370,12943.567279
1146.479881,-6663.256528,-13096.745590,12254.264880
1146.480182,-2374.263820,-12484.032346,11488.373325
1146.480483,-1455.193954,-12177.675724,12943.567279
1146.480783,-2067.907198,-9650.233593,12560.621502
1146.481084,765.891555,-4825.116796,11105.427547
1146.481385,2986.977064,-842.480710,9037.520349
1146.481685,4748.527641,3216.744531,7735.504705
1146.481993,6739.845684,6510.078217,8041.861327
1146.482289,8041.861327,9803.411904,6816.434839
1146.482586,8348.217949,10722.481770,9114.109504
1146.482883,3293.333686,10109.768526,10416.125148
1146.483180,-0.000000,9573.644437,11258.605858
1146.483477,-2910.387909,6663.256528,10109.768526
1146.483774,-6203.721595,919.069866,11641.551636
1146.484071,-10186.357681,-5514.419196,12790.388968
1146.484379,-9190.698660,-9190.698660,12943.567279
1146.484678,-5897.364973,-10492.714303,13249.923901
1146.484977,-2450.852976,-8884.342038,12101.086569
1146.485276,-1302.015643,-6280.310751,11488.373325
1146.485575,-229.767466,-2986.977064,9956.590215
1146.485874,2144.496354,1378.604799,9114.109504
1146.486173,4212.403552,3369.922842,8271.628794
1146.486472,4518.760174,6203.721595,7505.737239
1146.486788,6739.845684,8348.217949,7275.969772
1146.487087,7429.148083,9803.411904,8654.574571
1146.487387,4365.581863,8195.039638,11028.838392
1146.487686,2527.442131,7275.969772,9956.590215
1146.487985,-3523.101153,2450.852976,11028.838392
1146.488284,-8118.450483,-5054.884263,12407.443191
1146.488584,-9190.698660,-10339.535992,13249.923901
1146.488883,-4442.171019,-13096.745590,11488.373325
1146.489200,-1455.193954,-13249.923901,10416.125148
1146.489498,459.534933,-11411.784169,11335.195014
1146.489796,-995.659021,-8577.985416,12024.497413
1146.490093,1225.426488,-4059.225241,10262.946837
1146.490391,-1455.193954,-1761.550576,10109.768526
1146.490689,-995.659021,459.534933,10109.768526
1146.490987,1991.318043,3523.101153,8195.039638
1146.491284,7046.202306,6050.543284,6969.613150
1146.491584,8348.217949,6510.078217,8807.752882
1146.491884,5667.597507,5591.008351,11411.784169
1146.492184,1072.248177,5744.186662,12101.086569
1146.492485,153.178311,3676.279464,10109.768526
1146.492785,-3063.566220,306.356622,10109.768526
1146.493085,-7352.558928,-4901.705952,11488.373325
1146.493385,-8731.163727,-8884.342038,12101.086569
1146.493685,-5591.008351,-9880.001059,12330.854035
1146.493975,-2757.209598,-8577.985416,12101.086569
1146.494274,-2067.907198,-6280.310751,13096.745590
1146.494573,459.534933,-842.480710,11488.373325
1146.494871,1378.604799,3829.457775,10262.946837
1146.495170,4365.581863,6203.721595,8348.217949
1146.495469,4748.527641,8195.039638,8501.396260
1146.495768,6586.667373,8501.396260,8501.396260
1146.496066,6893.023995,9114.109504,9573.644437
1146.496374,6127.132440,7735.504705,10416.125148
1146.496677,2297.674665,6969.613150,10339.535992
1146.496980,-1608.372265,2910.387909,10109.768526
1146.497284,-6356.899906,-1608.372265,11028.838392
1146.497587,-9573.644437,-5054.884263,11641.551636
1146.497890,-11105.427547,-8884.342038,12560.621502
1146.498194,-6663.256528,-9497.055282,10569.303459
1146.498497,-2067.907198,-7352.558928,11947.908258
1146.498780,-229.767466,-6127.132440,12407.443191
1146.499079,2833.798753,-2680.620442,9956.590215
1146.499378,4365.581863,-842.480710,9573.644437
1146.499677,4901.705952,765.891555,8960.931193
1146.499976,4518.760174,459.534933,9114.109504
1146.500275,5514.419196,1225.426488,7352.558928
1146.500574,6739.845684,2450.852976,8654.574571
1146.500873,5361.240885,1378.604799,9803.411904
1146.501168,-842.480710,459.534933,11028.838392
1146.501469,-4825.116796,-76.589155,11641.551636
1146.501770,-7812.093861,-2221.085509,11182.016703
1146.502070,-8118.450483,-4671.938485,11335.195014
1146.502371,-8271.628794,-8577.985416,11641.551636
1146.502672,-5437.830040,-9650.233593,12637.210657
1146.502973,1991.318043,-6739.845684,10722.481770
1146.503274,6280.310751,-4212.403552,9803.411904
1146.503609,5054.884263,-1914.728887,10262.946837
1146.503903,1991.318043,-1455.193954,10416.125148
1146.504197,-1302.015643,765.891555,11028.838392
1146.504491,2297.674665,1378.604799,9420.466126
1146.504785,2833.798753,2604.031287,8348.217949
1146.505079,3906.046930,3523.101153,8960.931193
1146.505374,5208.062574,5591.008351,10109.768526
1146.505668,3752.868619,6510.078217,11488.373325
1146.505977,306.356622,6203.721595,11105.427547
1146.506276,-4978.295107,4135.814397,11794.729947
1146.506575,-6356.899906,3369.922842,12101.086569
1146.506875,-4978.295107,765.891555,9803.411904
1146.507174,-2374.263820,-1761.550576,9343.876971
1146.507474,-2221.085509,-4518.760174,11488.373325
1146.507773,-1914.728887,-5054.884263,13020.156435
1146.508072,-689.302399,-4671.938485,12790.388968
1146.508379,1838.139732,-1608.372265,10262.946837
1146.508679,-76.589155,-995.659021,9573.644437
1146.508979,-689.302399,-382.945777,9650.233593
1146.509278,-995.659021,153.178311,8654.574571
1146.509578,2527.442131,1378.604799,8041.861327
1146.509878,4901.705952,4135.814397,9573.644437
1146.510177,4059.225241,3523.101153,10262.946837
1146.510477,919.069866,3216.744531,10262.946837
1146.510774,-229.767466,2604.031287,10722.481770
1146.511072,-1148.837332,459.534933,9803.411904
1146.511371,-2604.031287,-5054.884263,9803.411904
1146.511670,-3829.457775,-9343.876971,10645.892614
1146.511969,-3216.744531,-11258.605858,11488.373325
1146.512268,-842.480710,-10799.070925,12407.443191
1146.512566,-382.945777,-9037.520349,12330.854035
1146.512865,-536.124088,-6280.310751,11335.195014
1146.513160,-842.480710,-2986.977064,10416.125148
1146.513459,-76.589155,306.356622,8348.217949
1146.513759,612.713244,1838.139732,9420.466126
1146.514058,4212.403552,4135.814397,8348.217949
1146.514357,3906.046930,4135.814397,9956.590215
1146.514657,4059.225241,4825.116796,10569.303459
1146.514956,1225.426488,4825.116796,11335.195014
1146.515255,-382.945777,4135.814397,11028.838392
1146.515567,-2374.263820,459.534933,10569.303459
1146.515867,-4288.992708,-2986.977064,10645.892614
1146.516167,-3216.744531,-5054.884263,10262.946837
1146.516467,-2450.852976,-9037.520349,11028.838392
1146.516767,-1302.015643,-8577.985416,13096.745590
1146.517067,1531.783110,-6280.310751,12254.264880
1146.517366,1072.248177,-2527.442131,11028.838392
1146.517666,1072.248177,612.713244,9956.590215
1146.517966,306.356622,3982.636086,9420.466126
1146.518265,919.069866,6356.899906,9267.287815
1146.518565,2374.263820,7122.791461,7888.683016
1146.518864,1378.604799,7582.326394,10109.768526
1146.519163,3599.690308,9114.109504,10722.481770
1146.519462,1072.248177,8195.039638,9956.590215
1146.519762,-689.302399,4288.992708,10492.714303
1146.520061,-5591.008351,-842.480710,12254.264880
1146.520368,-6510.078217,-3599.690308,12101.086569
1146.520665,-4288.992708,-7352.558928,10262.946837
1146.520961,765.891555,-10033.179370,8577.985416
1146.521258,3446.511997,-10492.714303,10492.714303
1146.521555,2374.263820,-9190.698660,12484.032346
1146.521851,1378.604799,-5361.240885,9650.233593
1146.522148,765.891555,-2374.263820,10416.125148
1146.522444,-4135.814397,-382.945777,10799.070925
1146.522765,-4442.171019,919.069866,11488.373325
1146.523062,-1148.837332,4825.116796,9267.287815
1146.523359,3906.046930,6203.721595,7888.683016
1146.523656,5820.775818,5284.651729,10262.946837
1146.523953,3752.868619,3982.636086,11488.373325
1146.524250,1991.318043,3982.636086,10645.892614
1146.524547,-536.124088,765.891555,9726.822748
1146.524844,-4978.295107,-4212.403552,11182.016703
1146.525163,-7658.915550,-8731.163727,12024.497413
1146.525461,-5284.651729,-11718.140791,11182.016703
1146.525759,-842.480710,-12484.032346,11182.016703
1146.526058,1531.783110,-9726.822748,11641.551636
1146.526356,1838.139732,-7812.093861,12101.086569
1146.526654,2374.263820,-2221.085509,10875.660081
1146.526952,2680.620442,2450.852976,9343.876971
1146.527250,3446.511997,6203.721595,8501.396260
1146.527563,-0.000000,7888.683016,8654.574571
1146.527862,153.178311,8501.396260,8960.931193
1146.528160,2374.263820,8195.039638,10569.303459
1146.528459,2144.496354,7582.326394,12560.621502
1146.528757,1225.426488,5744.186662,10722.481770
1146.529056,-842.480710,2757.209598,10416.125148
1146.529354,-2604.031287,-76.589155,10109.768526
1146.529653,-3982.636086,-5208.062574,11028.838392
1146.529941,-4825.116796,-7505.737239,11488.373325
1146.530243,-3829.457775,-9190.698660,10722.481770
1146.530545,-1608.372265,-7505.737239,11335.195014
1146.530848,-1148.837332,-4212.403552,11028.838392
1146.531150,-382.945777,-842.480710,11335.195014
1146.531453,-536.124088,1531.783110,10109.768526
1146.531755,1531.783110,5284.651729,9267.287815
1146.532057,2680.620442,6510.078217,9114.109504
1146.532364,5054.884263,6510.078217,8195.039638
1146.532661,5208.062574,5744.186662,10109.768526
1146.532958,5054.884263,4442.171019,10416.125148
1146.533255,153.178311,612.713244,10645.892614
1146.533552,-2067.907198,-1914.728887,10645.892614
1146.533849,-6203.721595,-5514.419196,10722.481770
1146.534146,-6510.078217,-9037.520349,10875.660081
1146.534443,-6663.256528,-12177.675724,10569.303459
1146.534757,-3523.101153,-12024.497413,12254.264880
1146.535059,1838.139732,-9343.876971,10569.303459
1146.535362,3599.690308,-4825.116796,9880.001059
1146.535665,2986.977064,-1302.015643,10569.303459
1146.535968,459.534933,-76.589155,10416.125148
1146.536270,-2374.263820,2604.031287,12101.086569
1146.536573,-1608.372265,3829.457775,9880.001059
1146.536876,1378.604799,3676.279464,8041.861327
1146.537149,4365.581863,4135.814397,8807.752882
1146.537451,5667.597507,2910.387909,9956.590215
1146.537754,1531.783110,1838.139732,11335.195014
1146.538057,-842.480710,-689.302399,11335.195014
1146.538359,-3829.457775,-2680.620442,11105.427547
1146.538662,-5437.830040,-5054.884263,11488.373325
1146.538964,-6356.899906,-6433.489062,11028.838392
1146.539267,-1302.015643,-5973.954129,9267.287815
1146.539584,1378.604799,-5667.597507,9956.590215
1146.539879,2833.798753,-3140.155375,13249.923901
1146.540175,306.356622,-229.767466,12560.621502
1146.540470,2144.496354,3676.279464,10339.535992
1146.540765,-0.000000,6816.434839,9956.590215
1146.541061,-229.767466,6969.613150,9420.466126
1146.541356,-1608.372265,6969.613150,9650.233593
1146.541651,612.713244,6356.899906,9420.466126
1146.541974,2374.263820,5437.830040,9956.590215
1146.542268,-0.000000,2604.031287,11105.427547
1146.542563,-842.480710,919.069866,11488.373325
1146.542857,-1761.550576,-1455.193954,10722.481770
1146.543151,153.178311,-1914.728887,9114.109504
1146.543445,-842.480710,-4825.116796,9420.466126
1146.543739,-0.000000,-8731.163727,8807.752882
1146.544033,1531.783110,-8118.450483,11488.373325
1146.544363,2527.442131,-7046.202306,11947.908258
1146.544660,-382.945777,-6586.667373,11335.195014
1146.544957,-1608.372265,-4059.225241,12560.621502
1146.545254,-5131.473418,-2067.907198,10952.249236
1146.545551,-3829.457775,1531.783110,10262.946837
1146.545848,-2221.085509,3216.744531,10722.481770
1146.546145,2297.674665,5131.473418,8501.396260
1146.546442,4901.705952,5437.830040,9650.233593
1146.546755,3906.046930,4825.116796,10416.125148
1146.547052,-0.000000,4135.814397,11028.838392
1146.547350,-3063.566220,-995.659021,11641.551636
1146.547647,-3216.744531,-2833.798753,10262.946837
1146.547944,-4825.116796,-6280.310751,10416.125148
1146.548242,-2450.852976,-10186.357681,9114.109504
1146.548539,-1914.728887,-12790.388968,11335.195014
1146.548837,1838.139732,-10799.070925,11947.908258
1146.549153,4365.581863,-7046.202306,11641.551636
1146.549454,2297.674665,-3752.868619,10875.660081
1146.549755,1531.783110,-536.124088,9650.233593
1146.550055,1531.783110,3523.101153,9267.287815
1146.550356,612.713244,5591.008351,9114.109504
1146.550657,3446.511997,6203.721595,7888.683016
1146.550957,2297.674665,7888.683016,9956.590215
1146.551258,2527.442131,9267.287815,10875.660081
1146.551540,-76.589155,9114.109504,9803.411904
1146.551842,-2757.209598,6663.256528,11028.838392
1146.552145,-7199.380617,1838.139732,12790.388968
1146.552448,-9190.698660,-1608.372265,12713.799813
1146.552750,-7199.380617,-5208.062574,10262.946837
1146.553053,-2374.263820,-9343.876971,10339.535992
1146.553356,1378.604799,-9650.233593,12560.621502
1146.553658,3293.333686,-9343.876971,11182.016703
1146.553971,6433.489062,-4365.581863,9956.590215
1146.554267,6433.489062,-2527.442131,9267.287815
1146.554563,2527.442131,153.178311,10033.179370
1146.554859,765.891555,3369.922842,9573.644437
1146.555155,2144.496354,7429.148083,8501.396260
1146.555451,1838.139732,8041.861327,8271.628794
1146.555746,1225.426488,8348.217949,10799.070925
1146.556042,-3063.566220,7582.326394,13326.513057
1146.556328,-3063.566220,5591.008351,10952.249236
1146.556630,-3982.636086,2297.674665,11028.838392
1146.556932,-4135.814397,-2986.977064,10875.660081
1146.557234,-7122.791461,-9880.001059,12101.086569
1146.557535,-3523.101153,-12943.567279,11641.551636
1146.557837,1531.783110,-13403.102212,10875.660081
1146.558139,5208.062574,-12790.388968,11182.016703
1146.558441,1838.139732,-10952.249236,10799.070925
1146.558753,919.069866,-7658.915550,11335.195014
1146.559052,4059.225241,-536.124088,8501.396260
1146.559351,5208.062574,3676.279464,6510.078217
1146.559650,2144.496354,5131.473418,6663.256528
1146.559949,919.069866,5591.008351,8807.752882
1146.560248,1225.426488,7429.148083,11488.373325
1146.560548,1838.139732,7735.504705,11488.373325
1146.560847,-2374.263820,6050.543284,12101.086569
1146.561143,-5897.364973,3523.101153,12407.443191
1146.561443,-4288.992708,1684.961421,9956.590215
1146.561742,-5744.186662,-3752.868619,11641.551636
1146.562042,-4825.116796,-8731.163727,10569.303459
1146.562342,-3982.636086,-12177.675724,11335.195014
1146.562641,-229.767466,-11564.962480,12330.854035
1146.562941,1991.318043,-9880.001059,11335.195014
1146.563240,3293.333686,-6586.667373,10952.249236
1146.563535,3446.511997,-2221.085509,9573.644437
1146.563836,6893.023995,4288.992708,7888.683016
1146.564137,6280.310751,9114.109504,7888.683016
1146.564438,6739.845684,11488.373325,8118.450483
1146.564739,5514.419196,12713.799813,10416.125148
1146.565040,4212.403552,12866.978124,10262.946837
1146.565341,-229.767466,9573.644437,10186.357681
1146.565642,-7122.791461,4595.349330,11335.195014
1146.565930,-11947.908258,-995.659021,13173.334746
1146.566231,-14245.582923,-7046.202306,14322.172078
1146.566531,-10645.892614,-10952.249236,11947.908258
1146.566832,-7199.380617,-12024.497413,12330.854035
1146.567133,765.891555,-10492.714303,10799.070925
1146.567434,5514.419196,-7505.737239,10416.125148
1146.567734,8501.396260,-5514.419196,8041.861327
1146.568035,5973.954129,-3906.046930,8807.752882
1146.568344,4518.760174,-2374.263820,9956.590215
1146.568640,4365.581863,459.534933,9650.233593
1146.568935,8501.396260,2450.852976,6510.078217
1146.569230,7046.202306,4748.527641,7888.683016
1146.569526,4671.938485,5897.364973,10952.249236
1146.569821,-1148.837332,6050.543284,10416.125148
1146.570117,-3523.101153,4288.992708,10722.481770
1146.570412,-9190.698660,-76.589155,12254.264880
1146.570719,-13632.869679,-5514.419196,13249.923901
1146.571018,-13173.334746,-8731.163727,12637.210657
1146.571317,-7199.380617,-9880.001059,11028.838392
1146.571616,-1761.550576,-10339.535992,11488.373325
1146.571915,765.891555,-10186.357681,13862.637145
1146.572213,5667.597507,-5820.775818,11335.195014
1146.572512,9650.233593,-1148.837332,7582.326394
1146.572811,10109.768526,2450.852976,7275.969772
1146.573127,6127.132440,3216.744531,8424.807105
1146.573425,5514.419196,6663.256528,7888.683016
1146.573723,4901.705952,8348.217949,8041.861327
1146.574021,2986.977064,7429.148083,10569.303459
1146.574318,-2604.031287,6663.256528,12943.567279
1146.574616,-3216.744531,6663.256528,12254.264880
1146.574914,-6203.721595,4978.295107,11488.373325
1146.575212,-6510.078217,1072.248177,11335.195014
1146.575526,-8577.985416,-2527.442131,12407.443191
1146.575826,-7505.737239,-5667.597507,11335.195014
1146.576125,-4288.992708,-7352.558928,12101.086569
1146.576425,-995.659021,-6893.023995,12637.210657
1146.576724,612.713244,-6739.845684,10722.481770
1146.577024,3599.690308,-5208.062574,9956.590215
1146.577324,4671.938485,-382.945777,7965.272172
1146.577623,8960.931193,1531.783110,8654.574571
1146.577911,8041.861327,5284.651729,7122.791461
1146.578212,7275.969772,7735.504705,7199.380617
1146.578513,5514.419196,8807.752882,9803.411904
1146.578814,1378.604799,6356.899906,10569.303459
1146.579115,-2910.387909,4288.992708,12101.086569
1146.579416,-10186.357681,-689.302399,12713.799813
1146.579716,-10799.070925,-3446.511997,12637.210657
1146.580017,-10952.249236,-7658.915550,12254.264880
1146.580317,-8577.985416,-10033.179370,11488.373325
1146.580616,-6356.899906,-12484.032346,12560.621502
1146.580915,-2221.085509,-9343.876971,12790.388968
1146.581214,4059.225241,-7046.202306,10569.303459
1146.581514,8501.396260,-3599.690308,8348.217949
1146.581813,8195.039638,-1455.193954,7735.504705
1146.582112,10262.946837,1225.426488,7505.737239
1146.582411,8654.574571,1378.604799,7122.791461
1146.582718,8041.861327,3216.744531,8195.039638
1146.583018,4212.403552,4748.527641,10262.946837
1146.583317,-536.124088,4978.295107,11871.319102
1146.583616,-4442.171019,6203.721595,12254.264880
1146.583915,-9037.520349,3982.636086,10875.660081
1146.584215,-12407.443191,1838.139732,12101.086569
1146.584514,-15088.063633,-2221.085509,14015.815456
1146.584813,-10799.070925,-4901.705952,12407.443191
1146.585134,-4288.992708,-6893.023995,11105.427547
1146.585434,2297.674665,-6433.489062,12101.086569
1146.585734,6893.023995,-5667.597507,11794.729947
1146.586035,10875.660081,-2680.620442,9267.287815
1146.586335,10569.303459,153.178311,6969.613150
1146.586635,8195.039638,1991.318043,8195.039638
1146.586936,3599.690308,2450.852976,9956.590215
1146.587236,4212.403552,5437.830040,8654.574571
1146.587474,4365.581863,7888.683016,7888.683016
1146.587780,-76.589155,8807.752882,10569.303459
1146.588085,-4595.349330,8654.574571,12790.388968
1146.588390,-6356.899906,8501.396260,11105.427547
1146.588695,-7965.272172,5591.008351,11028.838392
1146.589000,-9880.001059,1225.426488,12713.799813
1146.589305,-10952.249236,-4825.116796,12790.388968
1146.589610,-5131.473418,-7199.380617,11335.195014
1146.589927,1072.248177,-8577.985416,11794.729947
1146.590223,2833.798753,-9880.001059,12330.854035
1146.590519,4059.225241,-8271.628794,10569.303459
1146.590815,6280.310751,-6893.023995,7888.683016
1146.591111,5820.775818,-4518.760174,8807.752882
1146.591407,2833.798753,-2527.442131,9573.644437
1146.591703,2833.798753,-1302.015643,7352.558928
1146.591999,4059.225241,2757.209598,7429.148083
1146.592299,5667.597507,4595.349330,9956.590215
1146.592600,-229.767466,4825.116796,13096.745590
1146.592901,-2374.263820,4825.116796,12407.443191
1146.593201,-4288.992708,3829.457775,10569.303459
1146.593502,-5284.651729,1838.139732,10875.660081
1146.593803,-7122.791461,-3752.868619,11564.962480
1146.594104,-6203.721595,-8118.450483,10875.660081
1146.594404,-4135.814397,-10033.179370,12407.443191
1146.594711,-1455.193954,-10645.892614,13096.745590
1146.595012,-995.659021,-10799.070925,11335.195014
1146.595313,459.534933,-8577.985416,10875.660081
1146.595614,1838.139732,-5208.062574,8960.931193
1146.595915,5514.419196,-1761.550576,8654.574571
1146.596216,7122.791461,2757.209598,5973.954129
1146.596517,9267.287815,5591.008351,6663.256528
1146.596818,8041.861327,8654.574571,9573.644437
1146.597132,5820.775818,9114.109504,10416.125148
1146.597432,1991.318043,10262.946837,11182.016703
1146.597731,-3982.636086,7735.504705,11182.016703
1146.598031,-7505.737239,3982.636086,11335.195014
1146.598331,-10492.714303,-1608.372265,12713.799813
1146.598631,-9497.055282,-6127.132440,12407.443191
1146.598931,-6969.613150,-8884.342038,12713.799813
1146.599231,-2067.907198,-7199.380617,12407.443191
1146.599549,612.713244,-5820.775818,10952.249236
1146.599842,3140.155375,-4671.938485,9956.590215
1146.600135,1684.961421,-2680.620442,10109.768526
1146.600427,3599.690308,1225.426488,9803.411904
1146.600720,4748.527641,2910.387909,8271.628794
1146.601013,7122.791461,5437.830040,7122.791461
1146.601305,8041.861327,7888.683016,9573.644437
1146.601598,5973.954129,9114.109504,10109.768526
1146.601915,153.178311,7735.504705,10262.946837
1146.602213,-3216.744531,4135.814397,11488.373325
1146.602511,-7122.791461,919.069866,11641.551636
1146.602809,-11105.427547,-4901.705952,12713.799813
1146.603106,-11105.427547,-9343.876971,12407.443191
1146.603404,-6816.434839,-10952.249236,12330.854035
1146.603702,-995.659021,-10033.179370,12254.264880
1146.604000,919.069866,-9190.698660,11182.016703
1146.604300,3140.155375,-6893.023995,10416.125148
1146.604599,4212.403552,-4059.225241,9573.644437
1146.604898,5054.884263,-1608.372265,8654.574571
1146.605197,5667.597507,-76.589155,8041.861327
1146.605496,5820.775818,1531.783110,7429.148083
1146.605796,4901.705952,1838.139732,9573.644437
1146.606095,3599.690308,4442.171019,10109.768526
1146.606394,-689.302399,4442.171019,12254.264880
1146.606708,-2374.263820,3369.922842,11641.551636
1146.607006,-4135.814397,919.069866,10569.303459
1146.607305,-4595.349330,-382.945777,10875.660081
1146.607604,-4135.814397,-3599.690308,9114.109504
1146.607902,-5131.473418,-8118.450483,10569.303459
1146.608201,-3216.744531,-8271.628794,13556.280523
1146.608500,-1608.372265,-5667.597507,13403.102212
1146.608798,153.178311,-4059.225241,11641.551636
1146.609105,-0.000000,-1455.193954,9650.233593
1146.609403,2144.496354,1378.604799,9956.590215
1146.609700,5361.240885,6050.543284,8654.574571
1146.609997,7888.683016,7582.326394,6816.434839
1146.610294,6739.845684,8348.217949,8195.039638
1146.610592,3906.046930,7122.791461,11182.016703
1146.610889,-229.767466,6050.543284,13403.102212
1146.611186,1072.248177,4748.527641,11182.016703
1146.611516,-4595.349330,1531.783110,11182.016703
1146.611812,-4288.992708,-1608.372265,10109.768526
1146.612109,-6203.721595,-5054.884263,10416.125148
1146.612405,-3523.101153,-6586.667373,10569.303459
1146.612701,-3063.566220,-7658.915550,11641.551636
1146.612997,-2910.387909,-6739.845684,12943.567279
1146.613294,-2450.852976,-4825.116796,11794.729947
1146.613590,-689.302399,-3446.511997,11105.427547
1146.613885,153.178311,459.534933,9420.466126
1146.614186,2527.442131,-229.767466,9267.287815
1146.614487,4748.527641,1838.139732,7275.969772
1146.614788,7122.791461,2297.674665,7275.969772
1146.615089,7122.791461,3216.744531,10186.357681
1146.615389,4365.581863,2604.031287,11794.729947
1146.615690,1225.426488,1225.426488,10569.303459
1146.615991,-2374.263820,-1608.372265,9114.109504
1146.616303,-3829.457775,-4059.225241,9650.233593
1146.616600,-8271.628794,-9343.876971,11488.373325
1146.616898,-8884.342038,-12330.854035,12943.567279
1146.617195,-5437.830040,-11564.962480,12560.621502
1146.617492,-1302.015643,-8577.985416,11258.605858
1146.617790,-76.589155,-6586.667373,11641.551636
1146.618087,1378.604799,-689.302399,11182.016703
1146.618385,919.069866,1684.961421,9956.590215
1146.618717,5514.419196,4595.349330,8807.752882
1146.619012,4901.705952,3829.457775,8195.039638
1146.619306,5667.597507,3982.636086,8960.931193
1146.619601,5054.884263,4288.992708,9880.001059
1146.619895,3293.333686,3829.457775,11105.427547
1146.620190,-0.000000,4825.116796,11794.729947
1146.620484,-3063.566220,2910.387909,10569.303459
1146.620779,-4135.814397,3216.744531,10109.768526
1146.621086,-3982.636086,919.069866,11641.551636
1146.621385,-3063.566220,-1761.550576,10262.946837
1146.621685,-995.659021,-3140.155375,10875.660081
1146.621985,153.178311,-3599.690308,12713.799813
1146.622284,-382.945777,-4212.403552,12560.621502
1146.622584,-76.589155,-2067.907198,11794.729947
1146.622884,-2221.085509,153.178311,10722.481770
1146.623183,-1761.550576,919.069866,10799.070925
1146.623513,-0.000000,3676.279464,8960.931193
1146.623811,4059.225241,5897.364973,6663.256528
1146.624109,2297.674665,3982.636086,9650.233593
1146.624407,153.178311,3216.744531,11335.195014
1146.624705,-842.480710,4135.814397,13096.745590
1146.625004,-382.945777,2910.387909,9267.287815
1146.625302,-1761.550576,-1302.015643,8884.342038
1146.625600,-3216.744531,-3599.690308,10416.125148
1146.625895,-1608.372265,-5667.597507,9190.698660
1146.626195,1225.426488,-8424.807105,9803.411904
1146.626495,3140.155375,-8271.628794,10875.660081
1146.626795,919.069866,-9497.055282,12713.799813
1146.627095,-842.480710,-7658.915550,10645.892614
1146.627395,-382.945777,-5514.419196,8960.931193
1146.627695,-2604.031287,-5820.775818,10262.946837
1146.627995,-3063.566220,-4365.581863,10416.125148
1146.628283,765.891555,-689.302399,9114.109504
1146.628583,3906.046930,3063.566220,7275.969772
1146.628883,5361.240885,2604.031287,10109.768526
1146.629183,-1302.015643,2757.209598,13709.458834
1146.629483,-1302.015643,4135.814397,10722.481770
1146.629783,-1761.550576,4135.814397,9420.466126
1146.630083,-3216.744531,-229.767466,10109.768526
1146.630383,-3676.279464,-4518.760174,11182.016703
1146.630739,-842.480710,-4901.705952,11028.838392
1146.631032,1531.783110,-6586.667373,10416.125148
1146.631325,1991.318043,-6739.845684,11641.551636
1146.631617,-2067.907198,-5054.884263,13096.745590
1146.631910,-536.124088,-1302.015643,11641.551636
1146.632203,1991.318043,3982.636086,9573.644437
1146.632495,765.891555,4595.349330,10416.125148
1146.632788,1531.783110,6203.721595,9037.520349
1146.633095,4365.581863,8654.574571,7812.093861
1146.633396,5361.240885,10722.481770,8960.931193
1146.633697,1531.783110,8195.039638,11182.016703
1146.633998,-2757.209598,5897.364973,12560.621502
1146.634298,-6663.256528,1378.604799,11028.838392
1146.634599,-3829.457775,-1608.372265,10416.125148
1146.634900,-4595.349330,-5820.775818,12407.443191
1146.635201,-1302.015643,-7812.093861,9956.590215
1146.635517,3293.333686,-6586.667373,9497.055282
1146.635810,2680.620442,-5361.240885,9956.590215
1146.636104,1991.318043,-3599.690308,11182.016703
1146.636398,-2604.031287,-3140.155375,12101.086569
1146.636691,-5591.008351,-2221.085509,11028.838392
1146.636985,-2604.031287,919.069866,9803.411904
1146.637279,-1761.550576,612.713244,9114.109504
1146.637573,1684.961421,1531.783110,8654.574571
1146.637891,5667.597507,3676.279464,10109.768526
1146.638190,7046.202306,5744.186662,9803.411904
1146.638488,4212.403552,4442.171019,9956.590215
1146.638786,-229.767466,459.534933,10569.303459
1146.639084,-2221.085509,-2374.263820,9956.590215
1146.639382,-3369.922842,-6586.667373,10569.303459
1146.639681,-3216.744531,-11411.784169,9880.001059
1146.639979,-3369.922842,-14551.939545,11564.962480
1146.640292,-689.302399,-13556.280523,12101.086569
1146.640590,-536.124088,-9880.001059,13556.280523
1146.640889,-842.480710,-5514.419196,11488.373325
1146.641187,-842.480710,153.178311,9420.466126
1146.641486,-2374.263820,4595.349330,9190.698660
1146.641784,-2910.387909,5284.651729,9650.233593
1146.642083,-0.000000,6510.078217,9880.001059
1146.642381,2680.620442,7122.791461,10569.303459
1146.642669,4901.705952,6663.256528,10569.303459
1146.642971,3752.868619,5437.830040,10569.303459
1146.643272,4212.403552,5744.186662,9803.411904
1146.643574,-76.589155,765.891555,10109.768526
1146.643876,-3523.101153,-1608.372265,11182.016703
1146.644177,-3216.744531,-4212.403552,10109.768526
1146.644479,-1608.372265,-6433.489062,10109.768526
1146.644780,1531.783110,-6586.667373,11335.195014
1146.645087,-382.945777,-5667.597507,12560.621502
1146.645384,306.356622,-3140.155375,11947.908258
1146.645681,-689.302399,459.534933,9956.590215
1146.645978,-689.302399,4442.171019,9803.411904
1146.646275,-1608.372265,5437.830040,9650.233593
1146.646572,306.356622,6356.899906,9267.287815
1146.646869,1531.783110,6510.078217,9267.287815
1146.647166,3140.155375,4595.349330,10262.946837
1146.647480,153.178311,1991.318043,11335.195014
1146.647780,1072.248177,1838.139732,10109.768526
1146.648080,-2221.085509,-2374.263820,9650.233593
1146.648381,-3063.566220,-6127.132440,9650.233593
1146.648681,-4135.814397,-10033.179370,9650.233593
1146.648981,-2374.263820,-11105.427547,9956.590215
1146.649282,459.534933,-11411.784169,10645.892614
1146.649582,1225.426488,-9650.233593,11641.551636
1146.649901,1072.248177,-5667.597507,11335.195014
1146.650197,1072.248177,-3752.868619,11641.551636
1146.650494,153.178311,-1148.837332,10722.481770
1146.650791,306.356622,306.356622,10109.768526
1146.651088,1838.139732,1991.318043,8501.396260
1146.651385,3446.511997,3676.279464,8195.039638
1146.651682,3293.333686,3982.636086,10033.179370
1146.651979,459.534933,3369.922842,11794.729947
1146.652296,-0.000000,3216.744531,10339.535992
1146.652591,-4135.814397,-1455.193954,10416.125148
1146.652887,-5131.473418,-5208.062574,10952.249236
1146.653182,-4442.171019,-7812.093861,11794.729947
1146.653477,-689.302399,-7812.093861,10033.179370
1146.653772,1991.318043,-8118.450483,10416.125148
1146.654068,1991.318043,-6127.132440,10722.481770
1146.654363,1072.248177,-2221.085509,11335.195014
1146.654663,1531.783110,3063.566220,11182.016703
1146.654963,-536.124088,4825.116796,11641.551636
1146.655263,-382.945777,6663.256528,10416.125148
1146.655563,2374.263820,8195.039638,9114.109504
1146.655863,5667.597507,8041.861327,8501.396260
1146.656163,4671.938485,6050.543284,10875.660081
1146.656463,1225.426488,5591.008351,12560.621502
1146.656763,-382.945777,6356.899906,10722.481770
1146.657070,-1148.837332,4825.116796,8654.574571
1146.657370,-4135.814397,-76.589155,9190.698660
1146.657671,-8884.342038,-5054.884263,12713.799813
1146.657971,-5744.186662,-6893.023995,11488.373325
1146.658271,459.534933,-5973.954129,9880.001059
1146.658571,3293.333686,-6280.310751,10875.660081
1146.658872,1225.426488,-5208.062574,12713.799813
1146.659172,153.178311,-3752.868619,10033.179370
1146.659480,-382.945777,612.713244,9267.287815
1146.659776,-76.589155,153.178311,9650.233593
1146.660073,-2604.031287,-382.945777,9956.590215
1146.660369,2527.442131,1838.139732,8501.396260
1146.660666,5820.775818,3829.457775,8348.217949
1146.660962,4365.581863,1378.604799,11182.016703
1146.661259,-1455.193954,-0.000000,12713.799813
1146.661555,-1455.193954,2297.674665,9267.287815
1146.661872,-2221.085509,306.356622,7275.969772
1146.662174,-5591.008351,-5973.954129,10109.768526
1146.662477,-8118.450483,-11258.605858,12330.854035
1146.662779,-3676.279464,-12637.210657,11335.195014
1146.663082,3446.511997,-10492.714303,10416.125148
1146.663384,4365.581863,-10339.535992,11488.373325
1146.663687,2680.620442,-7505.737239,12560.621502
1146.663989,3752.868619,-1455.193954,9956.590215
1146.664227,2986.977064,2450.852976,8424.807105
1146.664535,612.713244,2910.387909,9420.466126
1146.664843,-1302.015643,5284.651729,9803.411904
1146.665151,459.534933,7888.683016,9114.109504
1146.665459,2297.674665,7582.326394,10416.125148
1146.665768,-2221.085509,5131.473418,13556.280523
1146.666076,-1455.193954,5744.186662,12254.264880
1146.666384,-2221.085509,5437.830040,9880.001059
1146.666662,-76.589155,2757.209598,8960.931193
1146.666963,-1455.193954,-1914.728887,10109.768526
1146.667263,306.356622,-4365.581863,10952.249236
1146.667564,1225.426488,-7199.380617,11258.605858
1146.667864,459.534933,-9190.698660,12943.567279
1146.668165,-3369.922842,-9343.876971,14015.815456
1146.668465,-2450.852976,-5514.419196,11488.373325
1146.668766,-1148.837332,153.178311,9420.466126
1146.669051,2297.674665,4978.295107,8195.039638
1146.669351,2986.977064,8348.217949,7582.326394
1146.669650,3140.155375,10262.946837,9420.466126
1146.669950,2144.496354,11028.838392,11028.838392
1146.670249,-995.659021,9114.109504,12101.086569
1146.670549,-536.124088,7582.326394,10262.946837
1146.670848,-3829.457775,3216.744531,9573.644437
1146.671147,-2374.263820,-2067.907198,9803.411904
1146.671454,-3216.744531,-7352.558928,10875.660081
1146.671755,-842.480710,-10799.070925,10339.535992
1146.672055,919.069866,-13096.745590,10645.892614
1146.672356,1991.318043,-12024.497413,12254.264880
1146.672656,1072.248177,-9726.822748,11794.729947
1146.672957,-76.589155,-7352.558928,10109.768526
1146.673258,-3829.457775,-5208.062574,10109.768526
1146.673558,-3216.744531,-995.659021,9267.287815
1146.673854,-1455.193954,612.713244,10109.768526
1146.674155,3599.690308,2757.209598,9650.233593
1146.674455,8348.217949,7735.504705,9573.644437
1146.674756,7582.326394,8348.217949,9420.466126
1146.675056,2986.977064,7735.504705,9267.287815
1146.675356,-1914.728887,4748.527641,10262.946837
1146.675657,-3523.101153,2604.031287,10722.481770
1146.675957,-6816.434839,-3599.690308,11794.729947
1146.676252,-6969.613150,-8884.342038,11641.551636
1146.676553,-3523.101153,-10952.249236,12024.497413
1146.676854,612.713244,-10952.249236,12101.086569
1146.677154,765.891555,-10339.535992,13326.513057
1146.677455,-2067.907198,-6893.023995,12330.854035
1146.677756,-1455.193954,-689.302399,10875.660081
1146.678057,612.713244,4442.171019,9190.698660
1146.678358,1684.961421,7275.969772,9267.287815
1146.678646,4671.938485,10569.303459,9803.411904
1146.678947,6433.489062,12407.443191,8501.396260
1146.679248,7735.504705,12101.086569,9573.644437
1146.679549,2833.798753,9803.411904,11488.373325
1146.679849,153.178311,7275.969772,11182.016703
1146.680150,-3523.101153,1991.318043,9267.287815
1146.680451,-5284.651729,-2527.442131,9267.287815
1146.680752,-7505.737239,-8884.342038,11028.838392
1146.681061,-6356.899906,-13403.102212,11794.729947
1146.681360,-1455.193954,-11871.319102,12713.799813
1146.681660,-0.000000,-12177.675724,11947.908258
1146.681959,-229.767466,-8424.807105,11794.729947
1146.682258,-995.659021,-5973.954129,10569.303459
1146.682558,-536.124088,-0.000000,8807.752882
1146.682857,-0.000000,3523.101153,8195.039638
1146.683156,765.891555,4595.349330,8654.574571
1146.683463,2680.620442,6356.899906,9956.590215
1146.683763,5973.954129,6050.543284,10109.768526
1146.684063,4671.938485,6969.613150,10569.303459
1146.684363,5208.062574,4748.527641,8807.752882
1146.684662,612.713244,1684.961421,9420.466126
1146.684962,-1302.015643,-3140.155375,9497.055282
1146.685262,-5131.473418,-8577.985416,10109.768526
1146.685561,-6050.543284,-11871.319102,12560.621502
1146.685858,-4288.992708,-13556.280523,13403.102212
1146.686155,-2450.852976,-11564.962480,13862.637145
1146.686453,-1302.015643,-8577.985416,11718.140791
1146.686750,-2757.209598,-6280.310751,12101.086569
1146.687047,-2067.907198,-842.480710,11794.729947
1146.687345,-0.000000,3063.566220,9956.590215
1146.687642,2527.442131,6510.078217,9420.466126
1146.687939,7122.791461,9267.287815,7812.093861
1146.688254,7888.683016,12254.264880,9497.055282
1146.688553,8501.396260,12866.978124,10262.946837
1146.688851,5361.240885,10569.303459,9803.411904
1146.689150,-689.302399,5131.473418,10109.768526
1146.689449,-2374.263820,1378.604799,9803.411904
1146.689748,-6203.721595,-3906.046930,11794.729947
1146.690046,-5744.186662,-9650.233593,11488.373325
1146.690345,-4595.349330,-10799.070925,11488.373325
1146.690657,-3829.457775,-9726.822748,12254.264880
1146.690956,-4978.295107,-7812.093861,12407.443191
1146.691255,-4978.295107,-4901.705952,13249.923901
1146.691554,-4288.992708,-2067.907198,11641.551636
1146.691853,1225.426488,2757.209598,8731.163727
1146.692152,4365.581863,4978.295107,7658.915550
1146.692451,9420.466126,7122.791461,6969.613150
1146.692750,11182.016703,10109.768526,8807.752882
1146.693050,8501.396260,10875.660081,9650.233593
1146.693349,1531.783110,8654.574571,9956.590215
1146.693648,-4135.814397,4442.171019,10569.303459
1146.693947,-6663.256528,1378.604799,9880.001059
1146.694247,-10033.179370,-5514.419196,11028.838392
1146.694546,-9037.520349,-11718.140791,11488.373325
1146.694845,-6050.543284,-14168.993767,12560.621502
1146.695144,-76.589155,-14475.350389,11794.729947
1146.695451,612.713244,-12943.567279,13326.513057
1146.695751,919.069866,-10952.249236,12407.443191
1146.696050,1072.248177,-6433.489062,10109.768526
1146.696349,2527.442131,-1148.837332,8348.217949
1146.696648,5361.240885,2604.031287,6969.613150
1146.696948,7275.969772,4978.295107,8195.039638
1146.697247,6739.845684,5897.364973,10186.357681
1146.697546,5054.884263,8807.752882,10875.660081
1146.697867,765.891555,9573.644437,11028.838392
1146.698163,-3216.744531,7122.791461,10722.481770
1146.698460,-8271.628794,3829.457775,10645.892614
1146.698756,-9190.698660,1531.783110,11182.016703
1146.699053,-8271.628794,-3293.333686,9956.590215
1146.699349,-5591.008351,-9880.001059,12560.621502
1146.699646,-995.659021,-10492.714303,15241.241944
1146.699942,3906.046930,-10186.357681,12637.210657
1146.700261,4748.527641,-9343.876971,11028.838392
1146.700559,3752.868619,-5054.884263,8807.752882
1146.700857,5054.884263,-229.767466,8348.217949
1146.701156,3906.046930,3676.279464,8348.217949
1146.701454,6280.310751,8195.039638,6203.721595
1146.701752,4901.705952,10416.125148,8731.163727
1146.702050,3446.511997,11488.373325,10339.535992
1146.702349,-382.945777,11182.016703,12713.799813
1146.702662,-2757.209598,9803.411904,12024.497413
1146.702958,-8424.807105,7735.504705,11028.838392
1146.703254,-8424.807105,3523.101153,9573.644437
1146.703550,-9726.822748,-842.480710,10492.714303
1146.703846,-7658.915550,-7046.202306,12177.675724
1146.704142,-3676.279464,-10799.070925,12866.978124
1146.704438,612.713244,-11411.784169,12713.799813
1146.704734,2680.620442,-11718.140791,11641.551636
1146.705033,3752.868619,-11718.140791,10262.946837
1146.705334,2986.977064,-7658.915550,8807.752882
1146.705635,4212.403552,-3446.511997,8271.628794
1146.705936,5208.062574,-536.124088,7275.969772
1146.706236,6433.489062,3676.279464,8118.450483
1146.706537,7046.202306,7735.504705,9803.411904
1146.706838,2297.674665,8501.396260,11794.729947
1146.707139,612.713244,9650.233593,10722.481770
1146.707446,-3982.636086,6663.256528,10416.125148
1146.707743,-5591.008351,1991.318043,10722.481770
1146.708040,-10492.714303,-4059.225241,12407.443191
1146.708336,-8118.450483,-9726.822748,11641.551636
1146.708633,-6050.543284,-12790.388968,12943.567279
1146.708930,-2450.852976,-14475.350389,13249.923901
1146.709227,2144.496354,-13403.102212,12101.086569
1146.709524,3446.511997,-9343.876971,9420.466126
1146.709838,3906.046930,-6739.845684,9114.109504
1146.710141,5667.597507,-1761.550576,8807.752882
1146.710443,5208.062574,919.069866,7582.326394
1146.710746,6280.310751,4135.814397,7582.326394
1146.711049,6280.310751,7275.969772,9343.876971
1146.711352,3446.511997,9956.590215,10875.660081
1146.711655,1531.783110,11028.838392,10875.660081
1146.711958,-1914.728887,12560.621502,10262.946837
1146.712276,-2604.031287,10722.481770,9114.109504
1146.712572,-8271.628794,2757.209598,11947.908258
1146.712868,-10492.714303,-3752.868619,12943.567279
1146.713164,-8884.342038,-8577.985416,13096.745590
1146.713460,-6816.434839,-11258.605858,13020.156435
1146.713756,-3063.566220,-10492.714303,12790.388968
1146.714053,-689.302399,-10645.892614,11335.195014
1146.714349,2986.977064,-4825.116796,10339.535992
1146.714621,7735.504705,153.178311,7505.737239
1146.714922,9420.466126,5131.473418,6969.613150
1146.715223,9956.590215,8041.861327,6510.078217
1146.715523,6586.667373,9803.411904,8960.931193
1146.715824,3599.690308,10109.768526,10109.768526
1146.716125,-2221.085509,7122.791461,12407.443191
1146.716426,-4748.527641,4595.349330,11488.373325
1146.716727,-4825.116796,1991.318043,10109.768526
1146.717027,-4135.814397,-1761.550576,10416.125148
1146.717327,-3982.636086,-7505.737239,11488.373325
1146.717627,-1914.728887,-10492.714303,11411.784169
1146.717927,-689.302399,-10186.357681,12254.264880
1146.718227,-1302.015643,-10952.249236,12560.621502
1146.718527,-5744.186662,-11105.427547,12866.978124
1146.718827,-5897.364973,-7965.272172,10875.660081
1146.719127,-1761.550576,-4671.938485,8501.396260
1146.719418,1225.426488,-1608.372265,8501.396260
1146.719720,8041.861327,765.891555,8041.861327
1146.720023,9803.411904,3523.101153,8807.752882
1146.720326,11641.551636,7582.326394,9267.287815
1146.720628,7429.148083,8501.396260,10416.125148
1146.720931,3446.511997,7429.148083,10109.768526
1146.721234,-2757.209598,6050.543284,10262.946837
1146.721536,-6510.078217,1991.318043,10416.125148
1146.721844,-8271.628794,-2986.977064,11488.373325
1146.722144,-7122.791461,-7812.093861,13249.923901
1146.722444,-3369.922842,-9726.822748,12254.264880
1146.722744,-2067.907198,-8271.628794,12943.567279
1146.723043,-2910.387909,-6893.023995,12254.264880
1146.723343,-2067.907198,-2833.798753,10569.303459
1146.723643,-3063.566220,612.713244,11028.838392
1146.723943,612.713244,3523.101153,9267.287815
1146.724226,3906.046930,6663.256528,8195.039638
1146.724529,9803.411904,7735.504705,8041.861327
1146.724832,12484.032346,7275.969772,8807.752882
1146.725135,9497.055282,7888.683016,11335.195014
1146.725438,6280.310751,7429.148083,8960.931193
1146.725741,-2450.852976,4135.814397,10262.946837
1146.726043,-6969.613150,-229.767466,11182.016703
1146.726346,-10799.070925,-3752.868619,10952.249236
1146.726661,-10492.714303,-8271.628794,11105.427547
1146.726955,-8424.807105,-9880.001059,11641.551636
1146.727249,-4825.116796,-9650.233593,12790.388968
1146.727543,-2374.263820,-8424.807105,12790.388968
1146.727837,1378.604799,-5054.884263,11641.551636
1146.728131,3599.690308,-1761.550576,8501.396260
1146.728425,5667.597507,919.069866,8041.861327
1146.728719,4901.705952,2450.852976,8195.039638
1146.729031,6280.310751,2757.209598,8654.574571
1146.729328,5514.419196,3523.101153,9803.411904
1146.729625,3140.155375,3216.744531,10109.768526
1146.729922,-1302.015643,2144.496354,12177.675724
1146.730218,-2374.263820,1225.426488,10416.125148
1146.730515,-2450.852976,306.356622,9114.109504
1146.730812,-6050.543284,-3752.868619,9420.466126
1146.731108,-6203.721595,-7965.272172,10569.303459
1146.731417,-2604.031287,-9497.055282,10569.303459
1146.731716,-1455.193954,-10033.179370,11335.195014
1146.732014,-1148.837332,-9497.055282,13096.745590
1146.732313,-1914.728887,-9037.520349,13096.745590
1146.732611,-229.767466,-4059.225241,11794.729947
1146.732910,6280.310751,612.713244,6663.256528
1146.733208,5820.775818,4442.171019,7199.380617
1146.733507,5667.597507,5437.830040,9573.644437
1146.733814,3599.690308,7275.969772,10722.481770
1146.734114,3906.046930,9267.287815,10569.303459
1146.734413,-995.659021,8041.861327,11182.016703
1146.734713,-4825.116796,5284.651729,12254.264880
1146.735013,-5591.008351,3829.457775,11947.908258
1146.735312,-3829.457775,2450.852976,9650.233593
1146.735612,-2374.263820,-842.480710,10416.125148
1146.735912,-229.767466,-5208.062574,12101.086569
1146.736208,2986.977064,-5208.062574,12024.497413
1146.736508,4059.225241,-5820.775818,13862.637145
1146.736807,153.178311,-5208.062574,12024.497413
1146.737107,-2374.263820,-3906.046930,10416.125148
1146.737406,-3063.566220,-1302.015643,9803.411904
1146.737706,-2221.085509,919.069866,8041.861327
1146.738006,765.891555,3216.744531,8654.574571
1146.738305,1072.248177,5284.651729,9573.644437
1146.738633,2986.977064,5131.473418,10875.660081
1146.738931,2833.798753,6969.613150,11794.729947
1146.739230,1684.961421,6356.899906,9650.233593
1146.739529,-995.659021,4978.295107,8654.574571
1146.739828,-4825.116796,-0.000000,9420.466126
1146.740127,-7505.737239,-6280.310751,10875.660081
1146.740426,-5437.830040,-10799.070925,11794.729947
1146.740724,-2757.209598,-12484.032346,12560.621502
1146.741012,2144.496354,-12177.675724,12177.675724
1146.741313,2680.620442,-10492.714303,11335.195014
1146.741614,2833.798753,-6739.845684,9420.466126
1146.741915,2680.620442,-1608.372265,8960.931193
1146.742216,459.534933,1225.426488,8884.342038
1146.742517,-76.589155,2450.852976,9650.233593
1146.742817,3140.155375,5131.473418,8654.574571
1146.743118,4748.527641,6050.543284,9650.233593
1146.743427,3293.333686,3982.636086,11335.195014
1146.743723,612.713244,3523.101153,10952.249236
1146.744019,-842.480710,3676.279464,11258.605858
1146.744316,-1148.837332,1531.783110,8884.342038
1146.744612,-4288.992708,-2986.977064,10416.125148
1146.744908,-5897.364973,-6280.310751,11794.729947
1146.745204,-3523.101153,-7505.737239,9880.001059
1146.745500,-1455.193954,-7658.915550,11794.729947
1146.745807,-1302.015643,-7965.272172,12407.443191
1146.746106,-229.767466,-4901.705952,12407.443191
1146.746405,612.713244,-995.659021,10722.481770
1146.746704,4365.581863,3676.279464,8654.574571
1146.747003,2680.620442,4978.295107,9573.644437
1146.747302,4365.581863,8195.039638,8118.450483
1146.747600,5054.884263,9803.411904,9114.109504
1146.747899,2144.496354,9573.644437,10875.660081
1146.748216,-1148.837332,6816.434839,10952.249236
1146.748513,-2374.263820,4825.116796,10416.125148
1146.748810,-689.302399,4135.814397,9497.055282
1146.749107,-2450.852976,-3140.155375,10416.125148
1146.749404,-4288.992708,-8731.163727,11182.016703
1146.749701,-1455.193954,-9343.876971,11794.729947
1146.749998,2144.496354,-9190.698660,10033.179370
1146.750295,1225.426488,-7965.272172,11794.729947
1146.750613,-1148.837332,-7658.915550,11488.373325
1146.750912,-4135.814397,-4518.760174,11182.016703
1146.751210,-2604.031287,-1608.372265,9803.411904
1146.751508,-2374.263820,919.069866,9420.466126
1146.751806,919.069866,3063.566220,9420.466126
1146.752104,4518.760174,6203.721595,9114.109504
1146.752403,6586.667373,7735.504705,9114.109504
1146.752701,3599.690308,5131.473418,10875.660081
1146.753014,-1608.372265,1838.139732,11488.373325
1146.753312,-2374.263820,-1148.837332,11182.016703
1146.753611,-4135.814397,-4671.938485,10569.303459
1146.753909,-3523.101153,-9190.698660,10569.303459
1146.754208,-1914.728887,-11411.784169,9956.590215
1146.754506,1838.139732,-12177.675724,11028.838392
1146.754804,2374.263820,-10645.892614,12560.621502
1146.755103,765.891555,-7505.737239,11794.729947
1146.755402,-382.945777,-2680.620442,10569.303459
1146.755702,-382.945777,1684.961421,9114.109504
1146.756001,-2221.085509,4442.171019,10416.125148
1146.756300,-0.000000,7275.969772,9803.411904
1146.756599,1378.604799,9573.644437,10569.303459
1146.756899,5361.240885,10262.946837,10569.303459
1146.757198,4901.705952,9420.466126,10722.481770
1146.757497,2297.674665,6203.721595,9956.590215
1146.757804,-1148.837332,3063.566220,10416.125148
1146.758107,-3676.279464,-382.945777,10109.768526
1146.758409,-4748.527641,-4825.116796,10416.125148
1146.758712,-4595.349330,-8731.163727,11641.551636
1146.759014,-1608.372265,-8884.342038,11641.551636
1146.759317,2833.798753,-7046.202306,10416.125148
1146.759619,919.069866,-5820.775818,11411.784169
1146.759922,-382.945777,-3599.690308,11641.551636
1146.760196,-0.000000,1531.783110,9650.233593
1146.760500,919.069866,4748.527641,9114.109504
1146.760804,919.069866,5744.186662,8041.861327
1146.761107,1378.604799,5591.008351,9114.109504
1146.761411,3446.511997,7429.148083,10875.660081
1146.761715,1684.961421,6050.543284,10722.481770
1146.762018,306.356622,3369.922842,10262.946837
1146.762322,-5284.651729,-536.124088,11411.784169
1146.762641,-4442.171019,-3599.690308,10722.481770
1146.762934,-6510.078217,-7046.202306,10569.303459
1146.763228,-4595.349330,-9037.520349,9956.590215
1146.763521,-995.659021,-11871.319102,9573.644437
1146.763815,919.069866,-11411.784169,12101.086569
1146.764108,2833.798753,-9726.822748,12177.675724
1146.764402,5208.062574,-4671.938485,9573.644437
1146.764695,3293.333686,-2680.620442,9037.520349
1146.765012,3752.868619,1531.783110,9420.466126
1146.765311,765.891555,2144.496354,9573.644437
1146.765610,-229.767466,3216.744531,9956.590215
1146.765908,612.713244,4978.295107,10339.535992
1146.766207,-1761.550576,3676.279464,11028.838392
1146.766505,-2757.209598,4288.992708,11641.551636
1146.766804,-3829.457775,2757.209598,11182.016703
1146.767103,-2757.209598,1991.318043,10262.946837
1146.767403,-3369.922842,-1914.728887,10722.481770
1146.767700,-2757.209598,-3906.046930,10262.946837
1146.767997,-689.302399,-5208.062574,11488.373325
1146.768295,1378.604799,-5820.775818,11488.373325
1146.768592,2374.263820,-4212.403552,11641.551636
1146.768890,1531.783110,-2221.085509,10875.660081
1146.769187,-0.000000,306.356622,10416.125148
1146.769484,1991.318043,2604.031287,10722.481770
1146.769792,1225.426488,6050.543284,10109.768526
1146.770093,4901.705952,7429.148083,7888.683016
1146.770395,4671.938485,6663.256528,8654.574571
1146.770697,3446.511997,6816.434839,11258.605858
1146.770999,-536.124088,4825.116796,11794.729947
1146.771300,-3676.279464,3982.636086,10262.946837
1146.771602,-4825.116796,-76.589155,10109.768526
1146.771904,-4825.116796,-2986.977064,11182.016703
1146.772184,-3829.457775,-5820.775818,10109.768526
1146.772484,-1608.372265,-5820.775818,10262.946837
1146.772783,765.891555,-6893.023995,10186.357681
1146.773083,-689.302399,-8424.807105,12713.799813
1146.773383,-1761.550576,-7199.380617,11794.729947
1146.773683,-2910.387909,-5361.240885,9956.590215
1146.773982,-3982.636086,-3599.690308,10875.660081
1146.774282,-2450.852976,-2374.263820,10492.714303
1146.774599,2986.977064,1531.783110,8960.931193
1146.774898,6586.667373,4825.116796,8501.396260
1146.775197,9803.411904,6663.256528,8348.217949
1146.775497,4365.581863,6663.256528,10569.303459
1146.775796,1225.426488,4825.116796,9880.001059
1146.776095,-2757.209598,3063.566220,10262.946837
1146.776394,-5437.830040,-1148.837332,10262.946837
1146.776694,-7122.791461,-6739.845684,9803.411904
1146.777011,-4978.295107,-10952.249236,11641.551636
1146.777308,-1914.728887,-11258.605858,12407.443191
1146.777606,1991.318043,-10799.070925,11794.729947
1146.777904,306.356622,-9497.055282,11871.319102
1146.778202,2374.263820,-3446.511997,9956.590215
1146.778500,2144.496354,-229.767466,9956.590215
1146.778797,-995.659021,1684.961421,10799.070925
1146.779095,-0.000000,5437.830040,9114.109504
1146.779395,2833.798753,7582.326394,8807.752882
1146.779694,4671.938485,9420.466126,9114.109504
1146.779993,1531.783110,8348.217949,12101.086569
1146.780292,-229.767466,9114.109504,10722.481770
1146.780592,-995.659021,7429.148083,9343.876971
1146.780891,-842.480710,3829.457775,9803.411904
1146.781190,-2450.852976,-382.945777,12713.799813
1146.781489,-1302.015643,-4365.581863,11794.729947
1146.781775,1684.961421,-5667.597507,10109.768526
1146.782078,1225.426488,-7658.915550,10722.481770
1146.782380,-0.000000,-9650.233593,12101.086569
1146.782683,153.178311,-5361.240885,9956.590215
1146.782986,-2221.085509,-4365.581863,9650.233593
1146.783288,-4442.171019,-2221.085509,12713.799813
1146.783591,-4748.527641,-382.945777,11488.373325
1146.783894,1531.783110,6050.543284,9114.109504
1146.784201,7122.791461,9803.411904,7582.326394
1146.784498,4518.760174,9803.411904,9267.287815
1146.784795,459.534933,7275.969772,10569.303459
1146.785092,-1455.193954,5131.473418,9803.411904
1146.785390,-536.124088,2450.852976,9573.644437
1146.785687,-4978.295107,-5514.419196,11182.016703
1146.785984,-5131.473418,-10492.714303,11794.729947
1146.786281,-995.659021,-13096.745590,10875.660081
1146.786578,612.713244,-13862.637145,10875.660081
1146.786879,-536.124088,-13862.637145,14015.815456
1146.787180,-1148.837332,-10952.249236,11488.373325
1146.787481,-1148.837332,-5054.884263,10262.946837
1146.787782,1225.426488,-229.767466,7812.093861
1146.788083,-1761.550576,1838.139732,9650.233593
1146.788384,765.891555,4978.295107,10569.303459
1146.788685,7046.202306,10416.125148,7735.504705
1146.788980,7735.504705,11641.551636,8807.752882
1146.789281,2833.798753,7275.969772,10952.249236
1146.789582,-76.589155,5897.364973,11488.373325
1146.789883,-2221.085509,3063.566220,11335.195014
1146.790184,-3369.922842,-536.124088,9650.233593
1146.790485,-5284.651729,-5820.775818,9343.876971
1146.790786,-7122.791461,-10339.535992,11871.319102
1146.791086,-5131.473418,-11871.319102,13403.102212
1146.791375,-3216.744531,-11718.140791,13249.923901
1146.791675,-1608.372265,-7965.272172,11641.551636
1146.791976,765.891555,-4901.705952,10416.125148
1146.792277,2680.620442,765.891555,10109.768526
1146.792578,6127.132440,6816.434839,8577.985416
1146.792879,9114.109504,11028.838392,6586.667373
1146.793179,6893.023995,12560.621502,9190.698660
1146.793480,5820.775818,11947.908258,9956.590215
1146.793789,1991.318043,10262.946837,11182.016703
1146.794089,-1761.550576,7735.504705,10109.768526
1146.794388,-4825.116796,2757.209598,9956.590215
1146.794687,-7965.272172,-3446.511997,11641.551636
1146.794987,-7965.272172,-7199.380617,11488.373325
1146.795286,-5744.186662,-10339.535992,11182.016703
1146.795586,-5897.364973,-13249.923901,13096.745590
1146.795885,-4748.527641,-12943.567279,13862.637145
1146.796192,-382.945777,-9190.698660,11411.784169
1146.796492,2833.798753,-3752.868619,9037.520349
1146.796791,4671.938485,-689.302399,7275.969772
1146.797091,4518.760174,-0.000000,9726.822748
1146.797391,7429.148083,2604.031287,7429.148083
1146.797690,9267.287815,5284.651729,7888.683016
1146.797990,8807.752882,5897.364973,9343.876971
1146.798290,1991.318043,3829.457775,10875.660081
1146.798586,-2374.263820,3982.636086,11335.195014
1146.798883,-7352.558928,2297.674665,10109.768526
1146.799180,-10645.892614,-1455.193954,12024.497413
1146.799477,-12866.978124,-7352.558928,14168.993767
1146.799774,-8424.807105,-10033.179370,12407.443191
1146.800071,-1914.728887,-10492.714303,9956.590215
1146.800368,919.069866,-11564.962480,10722.481770
1146.800664,1531.783110,-11411.784169,13096.745590
1146.800979,5667.597507,-5973.954129,9650.233593
1146.801278,5973.954129,-1148.837332,8807.752882
1146.801576,3599.690308,1072.248177,9420.466126
1146.801875,2144.496354,3982.636086,9573.644437
1146.802174,6280.310751,8807.752882,8654.574571
1146.802473,8348.217949,10875.660081,8118.450483
1146.802771,2833.798753,9420.466126,11488.373325
1146.803070,-229.767466,8654.574571,12254.264880
1146.803382,-995.659021,8807.752882,10262.946837
1146.803678,-1608.372265,7735.504705,8807.752882
1146.803975,-8118.450483,153.178311,11488.373325
1146.804272,-12101.086569,-5973.954129,14475.350389
1146.804568,-10186.357681,-8424.807105,13709.458834
1146.804865,-4135.814397,-8884.342038,11641.551636
1146.805162,-2757.209598,-8424.807105,12560.621502
1146.805458,1225.426488,-7199.380617,10722.481770
1146.805758,4748.527641,-3140.155375,9880.001059
1146.806060,9420.466126,1225.426488,6510.078217
1146.806363,9803.411904,3216.744531,6510.078217
1146.806666,8807.752882,4442.171019,8195.039638
1146.806968,7122.791461,6663.256528,9420.466126
1146.807271,6280.310751,8041.861327,9803.411904
1146.807573,-1455.193954,5897.364973,10109.768526
1146.807876,-5437.830040,5591.008351,11182.016703
1146.808183,-9343.876971,1378.604799,12254.264880
1146.808484,-11871.319102,-2067.907198,12943.567279
1146.808784,-11947.908258,-6280.310751,12024.497413
1146.809085,-10645.892614,-10645.892614,12484.032346
1146.809386,-5284.651729,-12790.388968,13862.637145
1146.809687,153.178311,-12790.388968,12407.443191
1146.809987,5973.954129,-9343.876971,10109.768526
1146.810288,8195.039638,-5973.954129,8348.217949
1146.810604,9803.411904,-5054.884263,7429.148083
1146.810898,8960.931193,-2527.442131,9114.109504
1146.811192,11182.016703,1684.961421,6433.489062
1146.811485,5973.954129,3676.279464,8195.039638
1146.811779,1991.318043,3829.457775,10109.768526
1146.812073,-4748.527641,5591.008351,13709.458834
1146.812367,-6510.078217,6816.434839,12790.388968
1146.812660,-9497.055282,6816.434839,10875.660081
1146.812979,-11411.784169,3216.744531,12254.264880
1146.813277,-9190.698660,-1302.015643,11182.016703
1146.813575,-4595.349330,-3599.690308,11182.016703
1146.813874,-382.945777,-5667.597507,12024.497413
1146.814172,4671.938485,-7046.202306,10416.125148
1146.814470,6893.023995,-7658.915550,10186.357681
1146.814768,8960.931193,-4518.760174,8195.039638
1146.815066,6433.489062,-1914.728887,9420.466126
1146.815379,2297.674665,-1608.372265,10569.303459
1146.815678,4059.225241,4288.992708,7888.683016
1146.815976,5361.240885,7735.504705,7965.272172
1146.816275,1991.318043,8041.861327,9956.590215
1146.816573,-4288.992708,6356.899906,13862.637145
1146.816872,-3216.744531,8960.931193,11335.195014
1146.817170,-4595.349330,8960.931193,9420.466126
1146.817469,-7965.272172,3369.922842,11258.605858
1146.817768,-10033.179370,-2067.907198,13403.102212
1146.818066,-6050.543284,-4365.581863,12101.086569
1146.818363,-1302.015643,-6127.132440,9803.411904
1146.818661,-2067.907198,-10645.892614,12407.443191
1146.818958,-1914.728887,-12484.032346,14628.528700
1146.819255,3906.046930,-7658.915550,9956.590215
1146.819553,7429.148083,-3599.690308,6663.256528
1146.819850,7735.504705,-1914.728887,7582.326394
1146.820157,5054.884263,-1914.728887,9343.876971
1146.820458,7429.148083,1991.318043,8424.807105
1146.820759,8348.217949,6050.543284,7429.148083
1146.821060,919.069866,4825.116796,11335.195014
1146.821361,-4595.349330,3523.101153,12254.264880
1146.821662,-5284.651729,4288.992708,12407.443191
1146.821963,-4595.349330,4748.527641,9956.590215
1146.822264,-9497.055282,-2221.085509,11641.551636
1146.822549,-10645.892614,-7812.093861,12790.388968
1146.822852,-7505.737239,-10339.535992,12790.388968
1146.823155,-3829.457775,-12484.032346,13249.923901
1146.823458,-1148.837332,-12484.032346,11794.729947
1146.823760,2527.442131,-10186.357681,9420.466126
1146.824063,6586.667373,-4825.116796,8348.217949
1146.824366,9497.055282,-689.302399,7429.148083
1146.824668,9114.109504,2910.387909,7735.504705
1146.824970,11488.373325,6510.078217,6586.667373
1146.825270,9420.466126,9420.466126,7122.791461
1146.825569,4901.705952,8501.396260,10416.125148
1146.825868,-2374.263820,7735.504705,12790.388968
1146.826168,-5744.186662,9420.466126,11794.729947
1146.826467,-8424.807105,6663.256528,10722.481770
1146.826766,-12101.086569,612.713244,12407.443191
1146.827066,-12407.443191,-2680.620442,13862.637145
1146.827383,-7965.272172,-5820.775818,11488.373325
1146.827677,-3982.636086,-7658.915550,12254.264880
1146.827972,-1455.193954,-9497.055282,13862.637145
1146.828266,3752.868619,-6586.667373,10492.714303
1146.828561,8041.861327,-2833.798753,7505.737239
1146.828855,9650.233593,-382.945777,6280.310751
1146.829150,7275.969772,-382.945777,8041.861327
1146.829444,8501.396260,2450.852976,7965.272172
1146.829767,6280.310751,5744.186662,8960.931193
1146.830064,5361.240885,6663.256528,9880.001059
1146.830361,-1148.837332,7275.969772,12407.443191
1146.830657,-4442.171019,5897.364973,10645.892614
1146.830954,-9497.055282,4748.527641,11411.784169
1146.831251,-13020.156435,-1148.837332,13403.102212
1146.831547,-12254.264880,-5667.597507,13020.156435
1146.831844,-6969.613150,-8271.628794,12407.443191
1146.832174,-3063.566220,-10339.535992,11641.551636
1146.832471,-0.000000,-11411.784169,12330.854035
1146.832768,2144.496354,-9037.520349,11258.605858
1146.833065,5973.954129,-4825.116796,7429.148083
1146.833362,7275.969772,-2833.798753,6969.613150
1146.833659,4518.760174,-2833.798753,9956.590215
1146.833956,7122.791461,919.069866,7582.326394
1146.834253,10569.303459,4288.992708,5667.597507
1146.834561,7122.791461,2910.387909,8654.574571
1146.834861,-76.589155,1378.604799,13862.637145
1146.835161,-4288.992708,2144.496354,12713.799813
1146.835460,-6356.899906,4442.171019,10416.125148
1146.835760,-8731.163727,1684.961421,10875.660081
1146.836060,-11105.427547,-2374.263820,14015.815456
1146.836360,-7352.558928,-2833.798753,11718.140791
1146.836660,-3829.457775,-2833.798753,10875.660081
1146.836943,-689.302399,-4671.938485,11794.729947
1146.837248,-1455.193954,-5361.240885,13249.923901
1146.837552,4059.225241,-1455.193954,10645.892614
1146.837857,5820.775818,1225.426488,8348.217949
1146.838162,7429.148083,3216.744531,7658.915550
1146.838467,9114.109504,3216.744531,6280.310751
1146.838772,10109.768526,5591.008351,7352.558928
1146.839076,8654.574571,6203.721595,10339.535992
1146.839394,1531.783110,3829.457775,12330.854035
1146.839691,-2757.209598,2910.387909,12024.497413
1146.839988,-6510.078217,2604.031287,11794.729947
1146.840286,-9726.822748,-382.945777,11947.908258
1146.840583,-13632.869679,-3140.155375,12790.388968
1146.840881,-10033.179370,-2833.798753,11105.427547
1146.841178,-6203.721595,-2986.977064,10569.303459
1146.841475,-3676.279464,-5054.884263,13403.102212
1146.841765,-536.124088,-4212.403552,13403.102212
1146.842061,6127.132440,-1302.015643,8041.861327
1146.842357,7735.504705,-0.000000,7275.969772
1146.842653,8807.752882,-1302.015643,7888.683016
1146.842949,7735.504705,-1608.372265,8041.861327
1146.843244,9956.590215,-76.589155,7582.326394
1146.843540,7046.202306,-995.659021,8807.752882
1146.843836,306.356622,-2986.977064,12101.086569
1146.844145,-3676.279464,-2527.442131,12790.388968
1146.844444,-4748.527641,-229.767466,10109.768526
1146.844742,-9190.698660,-1455.193954,11641.551636
1146.845040,-11871.319102,-4365.581863,12407.443191
1146.845339,-10799.070925,-5361.240885,11182.016703
1146.845637,-6050.543284,-4059.225241,11182.016703
1146.845936,-1148.837332,-4059.225241,12177.675724
1146.846234,1838.139732,-4212.403552,11105.427547
1146.846541,8195.039638,-1148.837332,8960.931193
1146.846842,9267.287815,459.534933,6969.613150
1146.847142,6739.845684,-0.000000,8731.163727
1146.847443,2297.674665,-1148.837332,10722.481770
1146.847744,4518.760174,1072.248177,8807.752882
1146.848044,3599.690308,3676.279464,9956.590215
1146.848345,2144.496354,1684.961421,9803.411904
1146.848645,-3982.636086,1531.783110,14168.993767
1146.848942,-3063.566220,4288.992708,11564.962480
1146.849241,-1761.550576,5437.830040,8960.931193
1146.849541,-5131.473418,4442.171019,11335.195014
1146.849841,-5437.830040,-0.000000,11641.551636
1146.850140,-1455.193954,459.534933,10722.481770
1146.850440,1378.604799,765.891555,10416.125148
1146.850739,-1914.728887,-2833.798753,12790.388968
1146.851039,-5284.651729,-6280.310751,14934.885322
1146.851333,-842.480710,-1608.372265,10799.070925
1146.851634,4365.581863,1838.139732,7582.326394
1146.851934,2297.674665,-1148.837332,8960.931193
1146.852234,1991.318043,-382.945777,9573.644437
1146.852534,7275.969772,4288.992708,8501.396260
1146.852834,6127.132440,4288.992708,8960.931193
1146.853134,-382.945777,1072.248177,12790.388968
1146.853435,-3216.744531,459.534933,12330.854035
1146.853770,-2374.263820,1072.248177,9650.233593
1146.854064,-76.589155,-76.589155,8577.985416
1146.854358,-842.480710,-3752.868619,8654.574571
1146.854652,-1608.372265,-6586.667373,11028.838392
1146.854946,-2374.263820,-10492.714303,12560.621502
1146.855240,-2450.852976,-9343.876971,12790.388968
1146.855534,-3523.101153,-8271.628794,12713.799813
1146.855828,-3216.744531,-5054.884263,11182.016703
1146.856128,-3982.636086,-2986.977064,10109.768526
1146.856428,-229.767466,-229.767466,9114.109504
1146.856728,1838.139732,153.178311,8118.450483
1146.857028,6586.667373,1684.961421,7582.326394
1146.857328,7582.326394,1684.961421,10109.768526
1146.857628,3140.155375,-76.589155,12024.497413
1146.857928,1684.961421,2604.031287,10416.125148
1146.858228,153.178311,4595.349330,9420.466126
1146.858569,-1302.015643,1991.318043,9573.644437
1146.858863,-6356.899906,-2221.085509,11641.551636
1146.859157,-5131.473418,-3293.333686,11028.838392
1146.859451,-995.659021,-3140.155375,9880.001059
1146.859745,-1302.015643,-7658.915550,12560.621502
1146.860039,-2221.085509,-6586.667373,14934.885322
1146.860333,2527.442131,-2680.620442,10416.125148
1146.860627,2374.263820,3829.457775,8577.985416
1146.860943,2374.263820,4825.116796,8960.931193
1146.861242,-1302.015643,3369.922842,9956.590215
1146.861540,1838.139732,6356.899906,9420.466126
1146.861839,4365.581863,8195.039638,8807.752882
1146.862137,3140.155375,4978.295107,9803.411904
1146.862436,306.356622,2144.496354,13403.102212
1146.862734,1378.604799,3676.279464,9956.590215
1146.863033,1378.604799,2604.031287,7888.683016
1146.863347,-3982.636086,-2527.442131,10722.481770
1146.863646,-5437.830040,-5514.419196,11258.605858
1146.863945,-4595.349330,-7352.558928,11182.016703
1146.864243,153.178311,-5667.597507,10875.660081
1146.864542,-3523.101153,-7352.558928,13786.047990
1146.864841,-3063.566220,-5973.954129,13556.280523
1146.865139,1072.248177,-0.000000,10033.179370
1146.865438,2297.674665,3063.566220,7122.791461
1146.865773,612.713244,2144.496354,9650.233593
1146.866067,2297.674665,2604.031287,9803.411904
1146.866361,5514.419196,4748.527641,7735.504705
1146.866655,5054.884263,2297.674665,8807.752882
1146.866950,-2757.209598,-2527.442131,13249.923901
1146.867244,-3523.101153,-3293.333686,13096.745590
1146.867538,-76.589155,-382.945777,9420.466126
1146.867832,-995.659021,-2833.798753,8960.931193
1146.868131,-2757.209598,-7352.558928,10722.481770
1146.868431,-1302.015643,-7352.558928,11182.016703
1146.868730,1838.139732,-5820.775818,10262.946837
1146.869029,919.069866,-6433.489062,11794.729947
1146.869328,-4288.992708,-6433.489062,12866.978124
1146.869627,-3063.566220,-2680.620442,10416.125148
1146.869927,-536.124088,1838.139732,10262.946837
1146.870226,-229.767466,3982.636086,9956.590215
1146.870533,3140.155375,6663.256528,7888.683016
1146.870832,4748.527641,8348.217949,8807.752882
1146.871131,5514.419196,6510.078217,10109.768526
1146.871431,1531.783110,4442.171019,12713.799813
1146.871730,612.713244,3829.457775,10722.481770
1146.872029,-2604.031287,765.891555,9956.590215
1146.872329,-3829.457775,-2833.798753,10875.660081
1146.872628,-5131.473418,-5208.062574,12101.086569
1146.872948,-2757.209598,-4825.116796,10416.125148
1146.873249,-1302.015643,-4901.705952,9880.001059
1146.873549,-2067.907198,-5208.062574,11794.729947
1146.873849,-1455.193954,-4059.225241,12790.388968
1146.874150,2680.620442,1838.139732,10109.768526
1146.874450,3446.511997,4748.527641,8960.931193
1146.874750,2680.620442,4442.171019,8654.574571
1146.875051,3293.333686,4135.814397,9114.109504
1146.875370,5208.062574,5591.008351,8195.039638
1146.875663,4671.938485,3369.922842,9420.466126
1146.875957,-2067.907198,-995.659021,12713.799813
1146.876250,-5131.473418,-689.302399,12254.264880
1146.876544,-4825.116796,-1914.728887,11335.195014
1146.876837,-5284.651729,-2986.977064,10416.125148
1146.877131,-5897.364973,-6127.132440,10033.179370
1146.877424,-3829.457775,-8271.628794,10262.946837
1146.877742,153.178311,-6739.845684,10109.768526
1146.878037,1838.139732,-7812.093861,11641.551636
1146.878333,2144.496354,-5361.240885,11641.551636
1146.878629,1991.318043,-3446.511997,9956.590215
1146.878925,2374.263820,-76.589155,8960.931193
1146.879221,1838.139732,-0.000000,8960.931193
1146.879517,-0.000000,-229.767466,11335.195014
1146.879813,4901.705952,2604.031287,8348.217949
1146.880113,7122.791461,4748.527641,7888.683016
1146.880414,3446.511997,1991.318043,9726.822748
1146.880715,-2067.907198,-842.480710,13403.102212
1146.881016,-4748.527641,1684.961421,12407.443191
1146.881316,-4288.992708,2144.496354,9114.109504
1146.881617,-8424.807105,-1302.015643,11794.729947
1146.881918,-7505.737239,-3293.333686,12560.621502
1146.882219,-2374.263820,-3293.333686,11258.605858
1146.882525,1072.248177,-1302.015643,11028.838392
1146.882826,153.178311,-3446.511997,12637.210657
1146.883127,459.534933,-2680.620442,12560.621502
1146.883428,3446.511997,2297.674665,10109.768526
1146.883729,5208.062574,4825.116796,7275.969772
1146.884030,2374.263820,4135.814397,8960.931193
1146.884331,2144.496354,3216.744531,11028.838392
1146.884632,4901.705952,4825.116796,9573.644437
1146.884912,6280.310751,4442.171019,9190.698660
1146.885211,1684.961421,2450.852976,11182.016703
1146.885510,-1608.372265,459.534933,11641.551636
1146.885809,-2374.263820,919.069866,10722.481770
1146.886108,-2374.263820,765.891555,10109.768526
1146.886407,-2757.209598,-2374.263820,8118.450483
1146.886706,-2450.852976,-4365.581863,9803.411904
1146.887005,-4442.171019,-6280.310751,13403.102212
1146.887322,-5897.364973,-7658.915550,13786.047990
1146.887621,-6356.899906,-5054.884263,12943.567279
1146.887920,-2450.852976,-1761.550576,10875.660081
1146.888219,-76.589155,153.178311,9803.411904
1146.888518,1378.604799,1378.604799,10416.125148
1146.888818,6893.023995,3982.636086,7352.558928
1146.889117,10262.946837,4978.295107,6510.078217
1146.889416,7275.969772,1072.248177,9650.233593
1146.889733,153.178311,-2833.798753,12713.799813
1146.890031,-76.589155,-1148.837332,10799.070925
1146.890329,-2067.907198,-0.000000,8501.396260
1146.890626,-3523.101153,-3752.868619,9420.466126
1146.890924,-8424.807105,-6586.667373,12484.032346
1146.891222,-4595.349330,-5973.954129,11411.784169
1146.891520,-1761.550576,-4518.760174,10262.946837
1146.891817,-3523.101153,-6127.132440,12101.086569
1146.892117,-4748.527641,-6280.310751,15088.063633
1146.892417,-1761.550576,-1302.015643,12560.621502
1146.892717,2144.496354,3829.457775,8501.396260
1146.893017,3140.155375,4135.814397,7735.504705
1146.893318,2297.674665,2450.852976,9114.109504
1146.893618,6127.132440,4748.527641,9420.466126
1146.893918,9114.109504,6816.434839,8041.861327
1146.894218,4901.705952,4288.992708,9956.590215
1146.894508,1225.426488,2144.496354,11488.373325
1146.894807,919.069866,3216.744531,9114.109504
1146.895106,306.356622,2450.852976,8501.396260
1146.895404,-7352.558928,-4518.760174,11641.551636
1146.895703,-8731.163727,-9037.520349,13479.691368
1146.896002,-5437.830040,-6893.023995,12177.675724
1146.896301,-1608.372265,-7812.093861,10722.481770
1146.896599,-4135.814397,-7046.202306,14705.117856
1146.896906,-2757.209598,-4212.403552,12713.799813
1146.897210,459.534933,2297.674665,9803.411904
1146.897514,5054.884263,7582.326394,7658.915550
1146.897818,4212.403552,7429.148083,8501.396260
1146.898122,4748.527641,7888.683016,9420.466126
1146.898426,5820.775818,8501.396260,8501.396260
1146.898730,2144.496354,5437.830040,10262.946837
1146.899034,-1914.728887,919.069866,11488.373325
1146.899322,-4442.171019,-689.302399,12254.264880
1146.899619,-1455.193954,-1148.837332,9573.644437
1146.899916,-2450.852976,-5054.884263,9267.287815
1146.900213,-3369.922842,-8271.628794,10875.660081
1146.900509,-2450.852976,-11564.962480,12407.443191
1146.900806,-995.659021,-10033.179370,12713.799813
1146.901103,-842.480710,-9650.233593,11641.551636
1146.901400,-3369.922842,-7199.380617,11258.605858
1146.901695,-1914.728887,-2986.977064,11488.373325
1146.901996,2144.496354,612.713244,10262.946837
1146.902297,4212.403552,5437.830040,8195.039638
1146.902598,8501.396260,6816.434839,5667.597507
1146.902899,6280.310751,7122.791461,8041.861327
1146.903199,3446.511997,5284.651729,11488.373325
1146.903500,-995.659021,4442.171019,12254.264880
1146.903801,-4595.349330,4442.171019,10722.481770
1146.904113,-6203.721595,1684.961421,10416.125148
1146.904410,-9037.520349,-4212.403552,12101.086569
1146.904708,-7965.272172,-7046.202306,12101.086569
1146.905005,-995.659021,-7352.558928,10569.303459
1146.905303,1225.426488,-7658.915550,9650.233593
1146.905600,919.069866,-9880.001059,12790.388968
1146.905897,765.891555,-7812.093861,12943.567279
1146.906195,3140.155375,-1608.372265,9114.109504
1146.906504,3293.333686,3216.744531,8348.217949
1146.906803,1072.248177,3216.744531,9803.411904
1146.907101,2680.620442,6816.434839,10109.768526
1146.907400,7888.683016,10109.768526,8041.861327
1146.907698,9650.233593,10722.481770,7275.969772
1146.907997,3293.333686,7429.148083,11335.195014
1146.908295,-1914.728887,4748.527641,12713.799813
1146.908594,-4748.527641,3523.101153,11182.016703
1146.908901,-7965.272172,-689.302399,11028.838392
1146.909201,-12407.443191,-6280.310751,13556.280523
1146.909500,-10952.249236,-9880.001059,12790.388968
1146.909800,-4288.992708,-8577.985416,11182.016703
1146.910100,306.356622,-7812.093861,10875.660081
1146.910399,2144.496354,-8731.163727,11641.551636
1146.910699,4365.581863,-3446.511997,10262.946837
1146.910998,7275.969772,-76.589155,7735.504705
1146.911295,4212.403552,306.356622,8731.163727
1146.911598,1838.139732,459.534933,10262.946837
1146.911901,4212.403552,3982.636086,8884.342038
1146.912204,7275.969772,6510.078217,7582.326394
1146.912507,2833.798753,4442.171019,10109.768526
1146.912810,-2374.263820,1378.604799,12713.799813
1146.913113,-3676.279464,153.178311,12254.264880
1146.913416,-3216.744531,153.178311,9803.411904
1146.913710,-8118.450483,-4212.403552,11488.373325
1146.914011,-8731.163727,-7812.093861,11335.195014
1146.914311,-5437.830040,-6893.023995,12407.443191
1146.914611,-2910.387909,-7046.202306,11794.729947
1146.914911,-3063.566220,-7199.380617,12713.799813
