#time,accel_x,accel_y,accel_z
1164.494806,-382.945777,-229.767466,10186.357681
1164.495101,-229.767466,-536.124088,10416.125148
1164.495397,-76.589155,-382.945777,10416.125148
1164.495692,-229.767466,-536.124088,10416.125148
1164.495992,153.178311,-689.302399,10492.714303
1164.496292,-76.589155,-689.302399,10569.303459
1164.496593,-0.000000,-536.124088,10722.481770
1164.496894,-0.000000,-536.124088,10569.303459
1164.497194,-76.589155,-382.945777,10416.125148
1164.497495,-0.000000,-536.124088,10416.125148
1164.497796,-229.767466,-842.480710,10722.481770
1164.498097,-229.767466,-689.302399,10569.303459
1164.498404,-76.589155,-842.480710,10569.303459
1164.498700,-229.767466,-995.659021,10722.481770
1164.498997,306.356622,-689.302399,10722.481770
1164.499294,2986.977064,-536.124088,10262.946837
1164.499591,5054.884263,-229.767466,10109.768526
1164.499888,9956.590215,-0.000000,9573.644437
1164.500185,13403.102212,-536.124088,9573.644437
1164.500482,18917.521408,459.534933,8807.752882
1164.500790,20219.537052,-0.000000,9114.109504
1164.501090,21291.785229,153.178311,9573.644437
1164.501390,20985.428607,1072.248177,9420.466126
1164.501690,18764.343097,1838.139732,9573.644437
1164.501990,17538.916609,1531.783110,8960.931193
1164.502289,14015.815456,919.069866,9726.822748
1164.502589,14551.939545,919.069866,10569.303459
1164.502889,16926.203365,306.356622,10262.946837
1164.503173,21674.731006,1225.426488,9650.233593
1164.503477,27342.328513,1531.783110,9420.466126
1164.503782,26270.080336,-1148.837332,8807.752882
1164.504087,20985.428607,-3599.690308,11488.373325
1164.504392,13709.458834,-5054.884263,16236.900966
1164.504696,10722.481770,-2986.977064,15088.063633
1164.505001,8501.396260,-0.000000,13862.637145
1164.505306,5667.597507,1378.604799,13709.458834
1164.505578,3752.868619,1378.604799,15088.063633
1164.505882,5361.240885,3063.566220,15700.776877
1164.506186,12024.497413,4595.349330,12101.086569
1164.506490,18917.521408,6356.899906,9726.822748
1164.506794,25580.777937,6050.543284,8271.628794
1164.507098,29410.235712,3523.101153,6663.256528
1164.507402,32550.391087,-842.480710,4671.938485
1164.507706,31631.321221,-5514.419196,5514.419196
1164.507996,29410.235712,-10339.535992,8348.217949
1164.508295,26040.312870,-13862.637145,10033.179370
1164.508594,20679.071985,-11871.319102,12101.086569
1164.508893,16619.846743,-6586.667373,12713.799813
1164.509192,11335.195014,-689.302399,12330.854035
1164.509491,4518.760174,2450.852976,13556.280523
1164.509791,-2757.209598,6050.543284,13709.458834
1164.510090,-12101.086569,6816.434839,13556.280523
1164.510375,-17155.970832,4288.992708,13249.923901
1164.510677,-15853.955188,-2067.907198,11564.962480
1164.510979,-9573.644437,-6127.132440,9803.411904
1164.511281,-0.000000,-5820.775818,8654.574571
1164.511583,11641.551636,-3293.333686,6356.899906
1164.511885,21138.606918,-689.302399,6127.132440
1164.512186,26882.793580,4135.814397,6969.613150
1164.512488,24661.708071,6969.613150,9114.109504
1164.512795,18457.986475,6203.721595,10339.535992
1164.513092,11335.195014,3523.101153,9420.466126
1164.513390,612.713244,-2986.977064,11028.838392
1164.513687,-12713.799813,-8271.628794,14475.350389
1164.513984,-23742.638205,-14015.815456,15241.241944
1164.514281,-26346.669492,-14322.172078,15011.474478
1164.514579,-20449.304518,-9650.233593,13403.102212
1164.514876,-12713.799813,-1914.728887,11641.551636
1164.515172,-2221.085509,6203.721595,11335.195014
1164.515473,10722.481770,13326.513057,10645.892614
1164.515773,25887.134559,18151.629853,7658.915550
1164.516073,33392.871798,17998.451542,6127.132440
1164.516374,34924.654908,11488.373325,4135.814397
1164.516674,29103.879090,2144.496354,5667.597507
1164.516975,15471.009411,-5208.062574,8348.217949
1164.517275,-536.124088,-13709.458834,10109.768526
1164.517570,-19683.412963,-18687.753942,15241.241944
1164.517869,-28720.933312,-18381.397320,15853.955188
1164.518169,-35843.724774,-13709.458834,16160.311810
1164.518469,-35843.724774,-8884.342038,15088.063633
1164.518768,-24125.583982,-2221.085509,13020.156435
1164.519068,-6663.256528,4825.116796,11182.016703
1164.519367,8195.039638,9650.233593,9267.287815
1164.519667,19606.823808,10875.660081,6663.256528
1164.519979,27035.971891,11641.551636,5054.884263
1164.520276,28414.576690,9803.411904,4288.992708
1164.520574,20372.715363,4135.814397,4288.992708
1164.520871,10569.303459,-536.124088,7582.326394
1164.521169,-3369.922842,-5973.954129,8960.931193
1164.521466,-13786.047990,-10952.249236,10416.125148
1164.521763,-17768.684076,-14475.350389,12943.567279
1164.522061,-17615.505765,-11871.319102,13709.458834
1164.522370,-9880.001059,-8884.342038,11794.729947
1164.522669,-3982.636086,-2680.620442,12484.032346
1164.522969,7046.202306,1072.248177,12254.264880
1164.523268,11028.838392,2604.031287,12407.443191
1164.523568,13403.102212,6050.543284,9880.001059
1164.523867,17232.559987,8654.574571,5973.954129
1164.524166,12177.675724,8501.396260,6280.310751
1164.524466,4671.938485,4135.814397,9497.055282
1164.524773,-5591.008351,2450.852976,13096.745590
1164.525071,-9190.698660,2144.496354,12560.621502
1164.525369,-13479.691368,-76.589155,12790.388968
1164.525667,-18994.110564,-3293.333686,15700.776877
1164.525965,-14781.707011,-4059.225241,15394.420255
1164.526264,-9037.520349,-1761.550576,14015.815456
1164.526562,612.713244,153.178311,11794.729947
1164.526860,9114.109504,-76.589155,9956.590215
1164.527176,13556.280523,-536.124088,10033.179370
1164.527474,17079.381676,612.713244,7965.272172
1164.527771,13862.637145,1378.604799,8271.628794
1164.528069,11182.016703,2757.209598,7888.683016
1164.528367,3752.868619,3063.566220,8731.163727
1164.528665,-3216.744531,3523.101153,9650.233593
1164.528962,-10033.179370,4595.349330,11947.908258
1164.529260,-13632.869679,3982.636086,11794.729947
1164.529575,-13632.869679,2450.852976,10569.303459
1164.529873,-11947.908258,1378.604799,11182.016703
1164.530172,-4748.527641,-382.945777,9803.411904
1164.530471,-2374.263820,-4212.403552,11182.016703
1164.530769,4518.760174,-6893.023995,10033.179370
1164.531068,13096.745590,-6586.667373,6739.845684
1164.531367,13709.458834,-7352.558928,6510.078217
1164.531665,7429.148083,-10952.249236,7735.504705
1164.531977,459.534933,-10799.070925,10952.249236
1164.532276,-2067.907198,-7812.093861,10569.303459
1164.532575,-4978.295107,-4518.760174,9267.287815
1164.532874,-10339.535992,-1761.550576,10569.303459
1164.533173,-9190.698660,765.891555,11947.908258
1164.533472,-6203.721595,5744.186662,11641.551636
1164.533771,-2757.209598,6816.434839,9343.876971
1164.534071,-1302.015643,5284.651729,10875.660081
1164.534370,3293.333686,3063.566220,10569.303459
1164.534669,5054.884263,306.356622,11028.838392
1164.534969,6280.310751,-3752.868619,10262.946837
1164.535268,7888.683016,-6739.845684,10569.303459
1164.535567,5514.419196,-9880.001059,11182.016703
1164.535866,1072.248177,-12484.032346,11258.605858
1164.536166,-1914.728887,-10645.892614,12254.264880
1164.536465,-4825.116796,-7199.380617,11488.373325
1164.536772,-4442.171019,-2680.620442,10262.946837
1164.537071,-4135.814397,2450.852976,9497.055282
1164.537370,306.356622,9803.411904,7965.272172
1164.537670,612.713244,12560.621502,8654.574571
1164.537969,-2450.852976,11182.016703,10722.481770
1164.538268,-2221.085509,7429.148083,12943.567279
1164.538567,-536.124088,5897.364973,11641.551636
1164.538867,3752.868619,4595.349330,9956.590215
1164.539187,2986.977064,-689.302399,9803.411904
1164.539484,2833.798753,-4901.705952,9420.466126
1164.539781,306.356622,-7658.915550,11182.016703
1164.540078,-4748.527641,-10952.249236,11488.373325
1164.540375,-3216.744531,-11564.962480,10875.660081
1164.540672,-5437.830040,-11564.962480,10109.768526
1164.540969,-2910.387909,-8731.163727,9803.411904
1164.541266,-229.767466,-1302.015643,9267.287815
1164.541585,5820.775818,6816.434839,7582.326394
1164.541883,7046.202306,11488.373325,8654.574571
1164.542181,2833.798753,13632.869679,10799.070925
1164.542480,3599.690308,15547.598566,10416.125148
1164.542778,-76.589155,12713.799813,9803.411904
1164.543076,-2757.209598,5437.830040,11564.962480
1164.543374,-4825.116796,-3140.155375,14015.815456
1164.543673,-5591.008351,-8731.163727,14934.885322
1164.543985,-3523.101153,-14705.117856,12943.567279
1164.544282,-3216.744531,-16543.257588,11182.016703
1164.544578,153.178311,-16696.435899,10875.660081
1164.544874,612.713244,-14168.993767,10416.125148
1164.545170,3140.155375,-7199.380617,9420.466126
1164.545466,9650.233593,2450.852976,7199.380617
1164.545762,8041.861327,7735.504705,7658.915550
1164.546058,3446.511997,9803.411904,8807.752882
1164.546357,-689.302399,13173.334746,11488.373325
1164.546658,-1148.837332,14398.761234,9650.233593
1164.546959,-3216.744531,10416.125148,9650.233593
1164.547260,-8731.163727,1838.139732,13249.923901
1164.547560,-6663.256528,-3293.333686,14858.296167
1164.547861,-2450.852976,-6433.489062,11794.729947
1164.548162,306.356622,-10645.892614,9420.466126
1164.548462,1838.139732,-14475.350389,10186.357681
1164.548770,3906.046930,-15930.544344,10416.125148
1164.549066,6739.845684,-12484.032346,7965.272172
1164.549363,5361.240885,-5820.775818,6433.489062
1164.549660,5514.419196,-229.767466,7275.969772
1164.549957,-229.767466,5897.364973,8271.628794
1164.550254,-3676.279464,10722.481770,9420.466126
1164.550551,-5437.830040,14245.582923,11335.195014
1164.550848,-8577.985416,14245.582923,12254.264880
1164.551162,-6816.434839,12254.264880,12024.497413
1164.551465,-5744.186662,6663.256528,11947.908258
1164.551767,-2067.907198,612.713244,10875.660081
1164.552070,-1914.728887,-5667.597507,10875.660081
1164.552373,-3829.457775,-14322.172078,13249.923901
1164.552675,-229.767466,-19836.591274,14245.582923
1164.552978,4518.760174,-18840.932253,10875.660081
1164.553281,11335.195014,-13862.637145,6356.899906
1164.553600,11182.016703,-7046.202306,6356.899906
1164.553896,9114.109504,-229.767466,8195.039638
1164.554192,5361.240885,7735.504705,8195.039638
1164.554488,-2374.263820,13939.226301,10109.768526
1164.554784,-6969.613150,14934.885322,11794.729947
1164.555080,-14475.350389,11794.729947,13249.923901
1164.555376,-11411.784169,9803.411904,13862.637145
1164.555672,-7122.791461,4978.295107,13709.458834
1164.555990,-2221.085509,-1302.015643,13403.102212
1164.556284,4212.403552,-7812.093861,11564.962480
1164.556578,4671.938485,-11258.605858,10722.481770
1164.556873,9650.233593,-13249.923901,9420.466126
1164.557167,8348.217949,-14705.117856,6127.132440
1164.557462,5054.884263,-13403.102212,6816.434839
1164.557756,3752.868619,-9726.822748,8807.752882
1164.558051,153.178311,-3446.511997,9956.590215
1164.558351,1225.426488,4825.116796,7735.504705
1164.558651,-1761.550576,13020.156435,9190.698660
1164.558951,-4595.349330,15547.598566,11028.838392
1164.559251,-8118.450483,15853.955188,11947.908258
1164.559551,-9343.876971,13326.513057,13556.280523
1164.559851,-5591.008351,8041.861327,13403.102212
1164.560151,-3369.922842,306.356622,13096.745590
1164.560451,-76.589155,-7965.272172,11718.140791
1164.560741,5054.884263,-12637.210657,10262.946837
1164.561044,8960.931193,-15164.652789,8731.163727
1164.561346,9267.287815,-16543.257588,7735.504705
1164.561649,2374.263820,-16236.900966,9956.590215
1164.561952,-689.302399,-9880.001059,10952.249236
1164.562254,-2067.907198,-382.945777,9420.466126
1164.562557,-3829.457775,8654.574571,8960.931193
1164.562859,-5284.651729,12713.799813,10645.892614
1164.563167,-6816.434839,15394.420255,13403.102212
1164.563467,-2604.031287,16007.133499,12330.854035
1164.563767,-76.589155,13786.047990,12177.675724
1164.564067,2144.496354,6663.256528,12407.443191
1164.564367,1072.248177,-1608.372265,11718.140791
1164.564667,-689.302399,-8884.342038,12101.086569
1164.564966,1838.139732,-14475.350389,9267.287815
1164.565266,1225.426488,-19147.288875,10722.481770
1164.565549,2680.620442,-19683.412963,8501.396260
1164.565852,4748.527641,-14168.993767,7965.272172
1164.566155,6739.845684,-4901.705952,6356.899906
1164.566458,4671.938485,1378.604799,6433.489062
1164.566761,-6203.721595,3523.101153,11641.551636
1164.567064,-6969.613150,8195.039638,14015.815456
1164.567367,-7965.272172,12560.621502,11488.373325
1164.567670,-3216.744531,14628.528700,8424.807105
1164.567917,-536.124088,11182.016703,9573.644437
1164.568224,1378.604799,6203.721595,10952.249236
1164.568532,3906.046930,-76.589155,10339.535992
1164.568840,3599.690308,-5820.775818,10722.481770
1164.569147,4901.705952,-10033.179370,10569.303459
1164.569455,2144.496354,-15777.366033,9573.644437
1164.569763,306.356622,-15930.544344,9267.287815
1164.570070,459.534933,-12637.210657,10875.660081
1164.570360,-76.589155,-7965.272172,9803.411904
1164.570656,-229.767466,919.069866,9497.055282
1164.570952,-1761.550576,9420.466126,11488.373325
1164.571247,-3216.744531,14781.707011,11335.195014
1164.571543,-6050.543284,17845.273231,10722.481770
1164.571839,-5284.651729,18917.521408,12330.854035
1164.572135,-3676.279464,13632.869679,12790.388968
1164.572431,-2910.387909,6663.256528,13709.458834
1164.572740,-536.124088,-1608.372265,12560.621502
1164.573038,3599.690308,-8271.628794,11488.373325
1164.573337,7046.202306,-14551.939545,10569.303459
1164.573635,7122.791461,-17615.505765,9497.055282
1164.573934,5514.419196,-17768.684076,10109.768526
1164.574232,6280.310751,-12024.497413,9420.466126
1164.574531,4212.403552,-4901.705952,6969.613150
1164.574829,-2450.852976,-229.767466,8348.217949
1164.575136,-7505.737239,3676.279464,11411.784169
1164.575436,-10339.535992,8807.752882,12407.443191
1164.575736,-8884.342038,12560.621502,11411.784169
1164.576035,-8424.807105,11947.908258,12024.497413
1164.576335,-3829.457775,9420.466126,12484.032346
1164.576635,1378.604799,5284.651729,11258.605858
1164.576934,5208.062574,-1455.193954,9956.590215
1164.577234,7888.683016,-10033.179370,9420.466126
1164.577531,7735.504705,-16543.257588,9803.411904
1164.577830,8807.752882,-19530.234652,7582.326394
1164.578130,8654.574571,-17462.327454,6050.543284
1164.578429,6586.667373,-12484.032346,7122.791461
1164.578729,306.356622,-6739.845684,8118.450483
1164.579029,-6663.256528,612.713244,10645.892614
1164.579328,-8577.985416,8960.931193,11947.908258
1164.579628,-9880.001059,14092.404612,11335.195014
1164.579955,-10339.535992,17385.738298,11947.908258
1164.580254,-7352.558928,16773.025054,14322.172078
1164.580553,-2067.907198,13632.869679,12024.497413
1164.580852,3446.511997,8348.217949,10109.768526
1164.581151,1838.139732,-1761.550576,11794.729947
1164.581449,3446.511997,-11105.427547,13249.923901
1164.581748,5667.597507,-15930.544344,10416.125148
1164.582047,8195.039638,-17155.970832,8041.861327
1164.582335,5514.419196,-16849.614210,8654.574571
1164.582636,1684.961421,-10799.070925,9650.233593
1164.582937,-689.302399,-2833.798753,8654.574571
1164.583238,-4135.814397,6356.899906,10416.125148
1164.583538,-5897.364973,12254.264880,12254.264880
1164.583839,-6969.613150,15547.598566,11028.838392
1164.584140,-5131.473418,17232.559987,11488.373325
1164.584441,-2757.209598,14092.404612,13249.923901
1164.584750,153.178311,8654.574571,12713.799813
1164.585046,2527.442131,1072.248177,11488.373325
1164.585342,2680.620442,-6433.489062,12713.799813
1164.585638,3140.155375,-13096.745590,11028.838392
1164.585934,4212.403552,-15777.366033,7275.969772
1164.586230,4901.705952,-16390.079277,6969.613150
1164.586527,3446.511997,-15624.187722,7275.969772
1164.586823,-76.589155,-12637.210657,8960.931193
1164.587130,-3216.744531,-5820.775818,9956.590215
1164.587429,-1761.550576,3369.922842,9573.644437
1164.587728,-842.480710,9420.466126,8960.931193
1164.588026,-3523.101153,11641.551636,10262.946837
1164.588325,-5897.364973,12101.086569,13249.923901
1164.588624,612.713244,12407.443191,12254.264880
1164.588923,4748.527641,9573.644437,9803.411904
1164.589222,1531.783110,612.713244,11488.373325
1164.589539,1072.248177,-7658.915550,12101.086569
1164.589840,1225.426488,-10339.535992,10875.660081
1164.590141,3140.155375,-12177.675724,9267.287815
1164.590442,-2757.209598,-15930.544344,9956.590215
1164.590743,-4825.116796,-14168.993767,13249.923901
1164.591044,-3369.922842,-5361.240885,10109.768526
1164.591345,-1761.550576,3829.457775,8501.396260
1164.591646,-1455.193954,8654.574571,10109.768526
1164.591960,-2374.263820,12101.086569,11105.427547
1164.592256,-229.767466,14628.528700,12560.621502
1164.592553,1684.961421,15394.420255,11641.551636
1164.592849,3140.155375,11641.551636,11182.016703
1164.593145,2680.620442,3523.101153,10339.535992
1164.593441,459.534933,-3599.690308,12254.264880
1164.593738,1838.139732,-9190.698660,12101.086569
1164.594034,-0.000000,-12024.497413,9803.411904
1164.594322,612.713244,-13709.458834,9650.233593
1164.594622,1378.604799,-13096.745590,9420.466126
1164.594922,919.069866,-10339.535992,8348.217949
1164.595222,-1302.015643,-4365.581863,7275.969772
1164.595522,-7352.558928,-1302.015643,11794.729947
1164.595822,-8577.985416,1838.139732,12790.388968
1164.596122,-3829.457775,8195.039638,9573.644437
1164.596422,-76.589155,11335.195014,9037.520349
1164.596721,3293.333686,10416.125148,9956.590215
1164.597020,3906.046930,6050.543284,9573.644437
1164.597320,5054.884263,-76.589155,9803.411904
1164.597619,2374.263820,-6739.845684,11182.016703
1164.597918,1225.426488,-12484.032346,11794.729947
1164.598217,-76.589155,-14551.939545,8501.396260
1164.598517,612.713244,-14322.172078,8577.985416
1164.598816,-995.659021,-11718.140791,10416.125148
1164.599123,-1148.837332,-6739.845684,10109.768526
1164.599423,-1148.837332,459.534933,10109.768526
1164.599723,-842.480710,7275.969772,10875.660081
1164.600023,-2221.085509,11335.195014,11488.373325
1164.600323,-3829.457775,13632.869679,11871.319102
1164.600623,-1914.728887,15088.063633,11794.729947
1164.600923,1684.961421,12560.621502,11182.016703
1164.601223,-689.302399,5284.651729,13403.102212
1164.601544,-842.480710,-1761.550576,13709.458834
1164.601844,4059.225241,-3446.511997,8960.931193
1164.602144,6280.310751,-7812.093861,7352.558928
1164.602445,2297.674665,-13403.102212,10569.303459
1164.602745,-3523.101153,-13862.637145,13020.156435
1164.603045,-1455.193954,-7352.558928,11488.373325
1164.603346,-76.589155,-689.302399,7429.148083
1164.603646,-5744.186662,3369.922842,10109.768526
1164.603884,-7658.915550,5897.364973,12560.621502
1164.604189,-4442.171019,10722.481770,10569.303459
1164.604494,-536.124088,13786.047990,10109.768526
1164.604799,-2067.907198,8195.039638,11641.551636
1164.605104,-1148.837332,3676.279464,12407.443191
1164.605409,4212.403552,1531.783110,9497.055282
1164.605714,4212.403552,-3752.868619,9114.109504
1164.606020,5054.884263,-11105.427547,8501.396260
1164.606337,1072.248177,-15011.474478,9573.644437
1164.606635,2297.674665,-15471.009411,9190.698660
1164.606934,2144.496354,-13403.102212,8654.574571
1164.607233,-0.000000,-9497.055282,9343.876971
1164.607531,-2757.209598,-5054.884263,9114.109504
1164.607830,-5437.830040,153.178311,11488.373325
1164.608128,-3523.101153,6356.899906,10875.660081
1164.608427,-3063.566220,10416.125148,9573.644437
1164.608727,-2221.085509,9956.590215,11335.195014
1164.609024,2527.442131,8501.396260,11641.551636
1164.609322,6280.310751,6663.256528,9650.233593
1164.609619,6739.845684,-229.767466,9650.233593
1164.609916,1838.139732,-6893.023995,12713.799813
1164.610214,2680.620442,-10033.179370,12790.388968
1164.610511,919.069866,-9880.001059,11564.962480
1164.610809,-2067.907198,-10645.892614,11258.605858
1164.611116,-1302.015643,-5973.954129,10875.660081
1164.611417,-1608.372265,-0.000000,9650.233593
1164.611719,-2910.387909,4442.171019,9803.411904
1164.612021,-6356.899906,6816.434839,12407.443191
1164.612323,-4135.814397,10875.660081,12177.675724
1164.612624,-2910.387909,12407.443191,10875.660081
1164.612926,-2374.263820,9803.411904,10645.892614
1164.613228,765.891555,6663.256528,12560.621502
1164.613508,919.069866,2757.209598,12407.443191
1164.613813,2374.263820,-2680.620442,10109.768526
1164.614118,4059.225241,-5361.240885,9726.822748
1164.614423,4059.225241,-9343.876971,9956.590215
1164.614729,4212.403552,-13096.745590,8884.342038
1164.615034,2527.442131,-10492.714303,8348.217949
1164.615339,3446.511997,-6127.132440,8654.574571
1164.615644,-2374.263820,-3906.046930,8654.574571
1164.615963,-6203.721595,-995.659021,10952.249236
1164.616259,-4825.116796,4595.349330,10262.946837
1164.616555,-4825.116796,6203.721595,8807.752882
1164.616851,-7965.272172,3829.457775,11641.551636
1164.617147,-6203.721595,3676.279464,13709.458834
1164.617443,1991.318043,2910.387909,12713.799813
1164.617739,6739.845684,-382.945777,8884.342038
1164.618035,5208.062574,-6893.023995,10569.303459
1164.618307,7046.202306,-10492.714303,10645.892614
1164.618607,8501.396260,-11258.605858,8807.752882
1164.618908,11182.016703,-10033.179370,5973.954129
1164.619208,4671.938485,-8424.807105,8807.752882
1164.619508,-1914.728887,-5667.597507,11182.016703
1164.619809,-3369.922842,1531.783110,9956.590215
1164.620109,-6510.078217,7888.683016,11564.962480
1164.620410,-9343.876971,9650.233593,12560.621502
1164.620710,-11411.784169,10722.481770,14015.815456
1164.621009,-6969.613150,13020.156435,13326.513057
1164.621308,-689.302399,10722.481770,11641.551636
1164.621607,1225.426488,4595.349330,13096.745590
1164.621906,2297.674665,-1761.550576,12407.443191
1164.622205,4365.581863,-7505.737239,11258.605858
1164.622505,10416.125148,-8424.807105,7888.683016
1164.622804,8348.217949,-10799.070925,7275.969772
1164.623118,5361.240885,-11718.140791,9420.466126
1164.623416,3140.155375,-7352.558928,8960.931193
1164.623715,919.069866,-229.767466,7735.504705
1164.624014,-3369.922842,4825.116796,7735.504705
1164.624312,-8884.342038,6356.899906,10262.946837
1164.624611,-10033.179370,7429.148083,12713.799813
1164.624910,-9573.644437,7888.683016,13249.923901
1164.625209,-5591.008351,6050.543284,12713.799813
1164.625516,-995.659021,2757.209598,12101.086569
1164.625813,3140.155375,-2680.620442,11182.016703
1164.626110,4365.581863,-7812.093861,10722.481770
1164.626407,5208.062574,-10952.249236,9650.233593
1164.626705,5361.240885,-13403.102212,8195.039638
1164.627002,3906.046930,-14475.350389,8195.039638
1164.627299,3293.333686,-11871.319102,7582.326394
1164.627596,3293.333686,-6586.667373,8195.039638
1164.627891,-0.000000,-1761.550576,8960.931193
1164.628192,-3829.457775,3216.744531,10875.660081
1164.628492,-3216.744531,6663.256528,11947.908258
1164.628793,-2067.907198,11947.908258,11258.605858
1164.629094,-2221.085509,12101.086569,11105.427547
1164.629394,-2374.263820,8195.039638,12790.388968
1164.629695,153.178311,4135.814397,12637.210657
1164.629995,2527.442131,-842.480710,11641.551636
1164.630323,765.891555,-6739.845684,13326.513057
1164.630619,2833.798753,-10186.357681,12407.443191
1164.630915,4365.581863,-8731.163727,9956.590215
1164.631211,4212.403552,-7658.915550,8654.574571
1164.631508,-76.589155,-5820.775818,9114.109504
1164.631804,-1455.193954,153.178311,10722.481770
1164.632100,-1148.837332,8195.039638,9114.109504
1164.632396,-4288.992708,11488.373325,9650.233593
1164.632708,-4135.814397,12713.799813,11564.962480
1164.633005,-5131.473418,12713.799813,11105.427547
1164.633303,-1914.728887,10569.303459,10569.303459
1164.633600,-1302.015643,4748.527641,12407.443191
1164.633898,-2604.031287,-2527.442131,13096.745590
1164.634195,-995.659021,-7199.380617,12101.086569
1164.634492,-229.767466,-9726.822748,10416.125148
1164.634790,4671.938485,-12177.675724,8041.861327
1164.635099,2527.442131,-15164.652789,8731.163727
1164.635397,2680.620442,-14168.993767,9267.287815
1164.635696,5208.062574,-7658.915550,7275.969772
1164.635994,4365.581863,-1608.372265,6816.434839
1164.636293,-842.480710,765.891555,8884.342038
1164.636591,-5897.364973,4825.116796,10492.714303
1164.636890,-5131.473418,9956.590215,10416.125148
1164.637188,-5131.473418,11488.373325,10722.481770
1164.637495,-6969.613150,6510.078217,12254.264880
1164.637796,-3523.101153,2757.209598,13632.869679
1164.638096,1531.783110,-1914.728887,11947.908258
1164.638397,6893.023995,-8271.628794,8960.931193
1164.638697,6127.132440,-13556.280523,10109.768526
1164.638998,5514.419196,-16543.257588,10262.946837
1164.639298,4901.705952,-17462.327454,10645.892614
1164.639599,4212.403552,-12943.567279,10262.946837
1164.639893,5054.884263,-5667.597507,8654.574571
1164.640197,919.069866,2757.209598,8424.807105
1164.640500,-2067.907198,10569.303459,10109.768526
1164.640803,-4825.116796,16466.668432,10875.660081
1164.641106,-6816.434839,19760.002119,11182.016703
1164.641409,-9190.698660,18764.343097,12560.621502
1164.641712,-10799.070925,12713.799813,13709.458834
1164.642015,-8731.163727,6203.721595,14781.707011
1164.642343,-5437.830040,-842.480710,13862.637145
1164.642635,-1761.550576,-9037.520349,12101.086569
1164.642927,7275.969772,-12943.567279,9267.287815
1164.643219,10722.481770,-15624.187722,8041.861327
1164.643511,11488.373325,-15930.544344,7505.737239
1164.643804,9650.233593,-11871.319102,8118.450483
1164.644096,8654.574571,-4059.225241,7352.558928
1164.644388,3293.333686,1838.139732,6510.078217
1164.644700,-5131.473418,6663.256528,10109.768526
1164.645000,-9497.055282,11947.908258,11182.016703
1164.645300,-9726.822748,14781.707011,9573.644437
1164.645600,-10339.535992,12560.621502,10569.303459
1164.645899,-11718.140791,7122.791461,15088.063633
1164.646199,-8884.342038,612.713244,16313.490121
1164.646499,459.534933,-3140.155375,12177.675724
1164.646799,3906.046930,-9880.001059,9803.411904
1164.647099,9420.466126,-14858.296167,9497.055282
1164.647398,9420.466126,-18381.397320,9573.644437
1164.647697,10109.768526,-18228.219009,7582.326394
1164.647997,10875.660081,-14858.296167,6816.434839
1164.648296,4212.403552,-9343.876971,9573.644437
1164.648595,-842.480710,-2680.620442,9573.644437
1164.648894,-3523.101153,6510.078217,9956.590215
1164.649193,-4595.349330,14475.350389,10262.946837
1164.649500,-8424.807105,16313.490121,12560.621502
1164.649802,-9573.644437,16466.668432,14168.993767
1164.650103,-3676.279464,15700.776877,12790.388968
1164.650405,306.356622,9650.233593,12254.264880
1164.650706,-382.945777,-689.302399,13403.102212
1164.651008,-1302.015643,-9343.876971,13862.637145
1164.651309,5361.240885,-12637.210657,11411.784169
1164.651611,8654.574571,-13862.637145,8960.931193
1164.651892,6433.489062,-16390.079277,8348.217949
1164.652191,4059.225241,-12177.675724,9267.287815
1164.652489,1838.139732,-4212.403552,8041.861327
1164.652788,-1455.193954,2604.031287,6356.899906
1164.653086,-6050.543284,8501.396260,9650.233593
1164.653385,-8577.985416,13939.226301,11028.838392
1164.653684,-6969.613150,16007.133499,9803.411904
1164.653982,-3676.279464,16160.311810,10875.660081
1164.654301,1225.426488,10875.660081,11488.373325
1164.654599,1378.604799,2450.852976,11488.373325
1164.654897,2986.977064,-5054.884263,12101.086569
1164.655196,4748.527641,-11718.140791,10262.946837
1164.655494,2374.263820,-17921.862387,10109.768526
1164.655792,3446.511997,-19683.412963,8807.752882
1164.656090,1072.248177,-18381.397320,8501.396260
1164.656389,-689.302399,-15011.474478,9420.466126
1164.656701,-2757.209598,-8424.807105,9573.644437
1164.657000,-6203.721595,-536.124088,9880.001059
1164.657298,-536.124088,9803.411904,9650.233593
1164.657597,-2067.907198,14628.528700,9956.590215
1164.657895,-2604.031287,17845.273231,10416.125148
1164.658194,-995.659021,17692.094920,12407.443191
1164.658492,306.356622,12866.978124,12560.621502
1164.658791,1378.604799,4978.295107,11335.195014
1164.659091,153.178311,-5361.240885,13862.637145
1164.659391,2297.674665,-12484.032346,12254.264880
1164.659691,3293.333686,-17462.327454,10109.768526
1164.659991,5208.062574,-19377.056341,10416.125148
1164.660291,4212.403552,-17768.684076,11028.838392
1164.660591,4059.225241,-10339.535992,8807.752882
1164.660891,1838.139732,-76.589155,6893.023995
1164.661191,-4135.814397,7582.326394,9114.109504
1164.661498,-5284.651729,13786.047990,11258.605858
1164.661795,-5284.651729,19913.180430,11794.729947
1164.662092,-3063.566220,21291.785229,11028.838392
1164.662388,-1761.550576,18457.986475,11335.195014
1164.662685,-2221.085509,12101.086569,12790.388968
1164.662982,-995.659021,3063.566220,11182.016703
1164.663279,-689.302399,-6586.667373,10875.660081
1164.663576,612.713244,-15777.366033,10722.481770
1164.663890,765.891555,-20142.947896,9803.411904
1164.664190,2144.496354,-21674.731006,8807.752882
1164.664491,4365.581863,-18840.932253,8654.574571
1164.664791,4748.527641,-11871.319102,8654.574571
1164.665091,765.891555,-4901.705952,8348.217949
1164.665392,-1914.728887,3369.922842,9650.233593
1164.665692,-1455.193954,10875.660081,9573.644437
1164.665992,-2374.263820,15853.955188,9573.644437
1164.666311,-1302.015643,16466.668432,10262.946837
1164.666607,-842.480710,15088.063633,11488.373325
1164.666903,-689.302399,7582.326394,12407.443191
1164.667199,-995.659021,-536.124088,12407.443191
1164.667495,153.178311,-8424.807105,12713.799813
1164.667791,306.356622,-13556.280523,10645.892614
1164.668087,2297.674665,-17462.327454,8807.752882
1164.668384,612.713244,-18840.932253,10262.946837
1164.668701,2374.263820,-15777.366033,10416.125148
1164.668999,1684.961421,-9650.233593,10109.768526
1164.669298,-536.124088,-1914.728887,9956.590215
1164.669597,-842.480710,4748.527641,11182.016703
1164.669895,-3063.566220,10875.660081,10952.249236
1164.670194,-1761.550576,16926.203365,10109.768526
1164.670492,-76.589155,17845.273231,9956.590215
1164.670791,-842.480710,14628.528700,10952.249236
1164.671068,-1148.837332,8195.039638,11641.551636
1164.671368,-2604.031287,-229.767466,12407.443191
1164.671668,2527.442131,-6433.489062,10799.070925
1164.671968,1991.318043,-13096.745590,10033.179370
1164.672268,3752.868619,-15930.544344,9573.644437
1164.672568,3906.046930,-15011.474478,10186.357681
1164.672868,2527.442131,-12024.497413,9803.411904
1164.673168,2144.496354,-5973.954129,7735.504705
1164.673498,-2757.209598,-382.945777,9803.411904
1164.673797,-2450.852976,6203.721595,10262.946837
1164.674096,-4135.814397,11488.373325,9267.287815
1164.674395,-4595.349330,14475.350389,10952.249236
1164.674695,-2757.209598,14398.761234,12637.210657
1164.674994,-2221.085509,11182.016703,12407.443191
1164.675293,1225.426488,6816.434839,10033.179370
1164.675592,-689.302399,-382.945777,10416.125148
1164.675866,765.891555,-9343.876971,11641.551636
1164.676167,1072.248177,-14551.939545,11947.908258
1164.676469,4671.938485,-15471.009411,10109.768526
1164.676770,5973.954129,-15164.652789,9650.233593
1164.677071,3140.155375,-10952.249236,9880.001059
1164.677373,1225.426488,-5054.884263,8501.396260
1164.677674,-1761.550576,1225.426488,9650.233593
1164.677975,-3063.566220,6816.434839,10109.768526
1164.678292,-6510.078217,8807.752882,10416.125148
1164.678593,-8118.450483,11028.838392,12560.621502
1164.678893,-3063.566220,11794.729947,12330.854035
1164.679194,1378.604799,8041.861327,11488.373325
1164.679495,2374.263820,2297.674665,11488.373325
1164.679795,2986.977064,-4059.225241,12101.086569
1164.680096,3906.046930,-9497.055282,10645.892614
1164.680397,5667.597507,-12177.675724,8654.574571
1164.680678,4671.938485,-16236.900966,8884.342038
1164.680981,1991.318043,-16390.079277,10875.660081
1164.681284,765.891555,-12484.032346,9267.287815
1164.681586,306.356622,-4365.581863,8118.450483
1164.681889,-1914.728887,2910.387909,9343.876971
1164.682192,-4825.116796,7582.326394,10569.303459
1164.682494,-5284.651729,14092.404612,11794.729947
1164.682797,-3369.922842,17692.094920,10262.946837
1164.683087,-3216.744531,15394.420255,12101.086569
1164.683383,-2604.031287,8807.752882,11641.551636
1164.683678,-1302.015643,1838.139732,11488.373325
1164.683974,5208.062574,-4365.581863,10262.946837
1164.684270,4901.705952,-11871.319102,8501.396260
1164.684566,5667.597507,-15777.366033,9037.520349
1164.684862,3599.690308,-17615.505765,9650.233593
1164.685158,-382.945777,-17309.149143,11641.551636
1164.685467,-3063.566220,-12024.497413,11028.838392
1164.685765,-5897.364973,-2986.977064,10416.125148
1164.686064,-3829.457775,5897.364973,9267.287815
1164.686362,-2374.263820,12407.443191,10109.768526
1164.686661,-2450.852976,16466.668432,12101.086569
1164.686959,1225.426488,19223.878030,11028.838392
1164.687258,2297.674665,15547.598566,11028.838392
1164.687556,1072.248177,6203.721595,11641.551636
1164.687863,-842.480710,-2067.907198,12790.388968
1164.688164,2527.442131,-8884.342038,11947.908258
1164.688464,4748.527641,-13403.102212,8348.217949
1164.688765,3599.690308,-17309.149143,8807.752882
1164.689066,765.891555,-16236.900966,10262.946837
1164.689366,-0.000000,-10799.070925,9956.590215
1164.689667,-1761.550576,-5973.954129,9190.698660
1164.689967,-4595.349330,153.178311,9190.698660
1164.690264,-4135.814397,5744.186662,10569.303459
1164.690563,-4595.349330,10262.946837,11488.373325
1164.690863,-2450.852976,12560.621502,11488.373325
1164.691162,3599.690308,13939.226301,10109.768526
1164.691462,2374.263820,10875.660081,11794.729947
1164.691762,3446.511997,5897.364973,11182.016703
1164.692061,3446.511997,1531.783110,11335.195014
1164.692361,3446.511997,-3599.690308,11182.016703
1164.692656,2374.263820,-8884.342038,7812.093861
1164.692956,-3982.636086,-14168.993767,10186.357681
1164.693256,-5284.651729,-16083.722655,11335.195014
1164.693556,-4978.295107,-11871.319102,9650.233593
1164.693856,-3829.457775,-5514.419196,9420.466126
1164.694156,-2067.907198,-1455.193954,10033.179370
1164.694456,-995.659021,5744.186662,12101.086569
1164.694756,2680.620442,13479.691368,10569.303459
1164.695068,3752.868619,16007.133499,9573.644437
1164.695366,2986.977064,13632.869679,10492.714303
1164.695663,612.713244,8348.217949,11641.551636
1164.695960,-1148.837332,2144.496354,11641.551636
1164.696258,1531.783110,-3446.511997,9803.411904
1164.696555,-689.302399,-9880.001059,10033.179370
1164.696853,-229.767466,-14168.993767,9956.590215
1164.697150,-1302.015643,-15011.474478,10569.303459
1164.697459,-229.767466,-12484.032346,10875.660081
1164.697759,919.069866,-8424.807105,8960.931193
1164.698058,-1302.015643,-3446.511997,9956.590215
1164.698357,459.534933,2297.674665,9420.466126
1164.698657,-2067.907198,3523.101153,10416.125148
1164.698956,-1302.015643,6356.899906,11335.195014
1164.699256,-76.589155,7582.326394,10799.070925
1164.699555,-0.000000,5437.830040,11794.729947
1164.699862,306.356622,2910.387909,11411.784169
1164.700160,-2221.085509,-382.945777,11641.551636
1164.700458,1378.604799,-2374.263820,10109.768526
1164.700756,765.891555,-6739.845684,9573.644437
1164.701055,919.069866,-9880.001059,8501.396260
1164.701353,1991.318043,-7965.272172,9956.590215
1164.701651,1991.318043,-6739.845684,8807.752882
1164.701949,-382.945777,-6433.489062,10033.179370
1164.702265,-3523.101153,-2374.263820,12943.567279
1164.702563,-842.480710,3982.636086,10875.660081
1164.702861,-76.589155,9267.287815,9803.411904
1164.703158,-536.124088,10875.660081,10109.768526
1164.703456,612.713244,11641.551636,10569.303459
1164.703754,-689.302399,9114.109504,11028.838392
1164.704051,-2067.907198,3676.279464,11488.373325
1164.704349,-3829.457775,-1608.372265,12177.675724
1164.704663,-1761.550576,-4901.705952,11488.373325
1164.704962,765.891555,-7658.915550,9726.822748
1164.705261,2297.674665,-8271.628794,9956.590215
1164.705560,4671.938485,-5208.062574,9650.233593
1164.705858,3446.511997,-2374.263820,9420.466126
1164.706157,-0.000000,459.534933,9956.590215
1164.706456,-842.480710,2757.209598,10645.892614
1164.706754,-2450.852976,4978.295107,11411.784169
1164.707066,-1302.015643,5897.364973,10416.125148
1164.707365,-1455.193954,4978.295107,9956.590215
1164.707664,-689.302399,2144.496354,11488.373325
1164.707963,-536.124088,-2221.085509,11335.195014
1164.708262,-2450.852976,-5208.062574,11182.016703
1164.708561,2297.674665,-5208.062574,10952.249236
1164.708861,1991.318043,-7352.558928,10109.768526
1164.709160,3752.868619,-6893.023995,7812.093861
1164.709459,1684.961421,-6127.132440,9573.644437
1164.709758,459.534933,-4825.116796,9803.411904
1164.710058,-689.302399,-2986.977064,8807.752882
1164.710357,-3523.101153,-229.767466,10416.125148
1164.710656,-3063.566220,1072.248177,10492.714303
1164.710955,-3982.636086,1991.318043,12560.621502
1164.711255,-2374.263820,5131.473418,11488.373325
1164.711554,765.891555,5437.830040,10416.125148
1164.711861,765.891555,4748.527641,11028.838392
1164.712160,919.069866,1225.426488,11335.195014
1164.712459,459.534933,-1761.550576,11335.195014
1164.712759,4901.705952,-3599.690308,9880.001059
1164.713058,2833.798753,-6739.845684,9420.466126
1164.713357,1684.961421,-8271.628794,10569.303459
1164.713656,919.069866,-4365.581863,11335.195014
1164.713956,1531.783110,-76.589155,8807.752882
1164.714259,-1302.015643,3369.922842,8807.752882
1164.714560,-4825.116796,4825.116796,11488.373325
1164.714860,-4978.295107,7275.969772,11182.016703
1164.715160,-3063.566220,7582.326394,9956.590215
1164.715461,-3063.566220,5897.364973,9956.590215
1164.715761,-0.000000,2604.031287,10799.070925
1164.716061,-842.480710,-2986.977064,12254.264880
1164.716362,-1761.550576,-8731.163727,12637.210657
1164.716663,-842.480710,-9343.876971,11641.551636
1164.716960,2680.620442,-10186.357681,10262.946837
1164.717257,5208.062574,-9497.055282,8807.752882
1164.717554,5667.597507,-6893.023995,8041.861327
1164.717850,4901.705952,-2374.263820,8118.450483
1164.718147,1531.783110,2604.031287,8731.163727
1164.718444,-3216.744531,3369.922842,9956.590215
1164.718741,-6050.543284,4288.992708,10339.535992
1164.719058,-6969.613150,5897.364973,11488.373325
1164.719357,-5897.364973,5131.473418,10645.892614
1164.719656,-3676.279464,2450.852976,11182.016703
1164.719955,612.713244,765.891555,13096.745590
1164.720253,3599.690308,-1914.728887,12101.086569
1164.720552,4518.760174,-4212.403552,11335.195014
1164.720851,8348.217949,-3906.046930,9650.233593
1164.721150,7122.791461,-6127.132440,8960.931193
1164.721450,4748.527641,-7352.558928,7658.915550
1164.721750,-1148.837332,-7199.380617,10722.481770
1164.722051,-3676.279464,-3752.868619,12407.443191
1164.722352,-3676.279464,1378.604799,8960.931193
1164.722652,-3829.457775,7429.148083,9114.109504
1164.722953,-2221.085509,11794.729947,10416.125148
1164.723254,-3523.101153,11641.551636,10569.303459
1164.723555,-2910.387909,10875.660081,11182.016703
1164.723862,-1148.837332,7582.326394,12101.086569
1164.724159,-995.659021,306.356622,13249.923901
1164.724455,153.178311,-4212.403552,12713.799813
1164.724752,3140.155375,-7199.380617,9573.644437
1164.725049,7582.326394,-10645.892614,8577.985416
1164.725346,2374.263820,-15164.652789,11488.373325
1164.725643,612.713244,-13709.458834,10875.660081
1164.725940,459.534933,-7965.272172,9650.233593
1164.726254,-1914.728887,-1455.193954,9114.109504
1164.726550,-4595.349330,1991.318043,8654.574571
1164.726847,-7352.558928,6663.256528,11488.373325
1164.727143,-2604.031287,10416.125148,10262.946837
1164.727440,-842.480710,11335.195014,10262.946837
1164.727737,-0.000000,7429.148083,11641.551636
1164.728033,2374.263820,4135.814397,11488.373325
1164.728330,4212.403552,-229.767466,11718.140791
1164.728646,3906.046930,-6433.489062,10109.768526
1164.728945,919.069866,-10492.714303,11028.838392
1164.729243,459.534933,-12637.210657,10262.946837
1164.729541,-842.480710,-13862.637145,9573.644437
1164.729840,-1302.015643,-12177.675724,9114.109504
1164.730138,-536.124088,-6433.489062,8807.752882
1164.730436,-2910.387909,-2527.442131,9803.411904
1164.730735,-3982.636086,2450.852976,9573.644437
1164.731052,-3676.279464,6969.613150,11411.784169
1164.731350,-2374.263820,10262.946837,10952.249236
1164.731648,1838.139732,11182.016703,9420.466126
1164.731946,2374.263820,8960.931193,10492.714303
1164.732243,4671.938485,6050.543284,10875.660081
1164.732541,4901.705952,306.356622,10416.125148
1164.732839,1991.318043,-3752.868619,10569.303459
1164.733137,2374.263820,-7965.272172,10569.303459
1164.733437,-689.302399,-11258.605858,11488.373325
1164.733737,-842.480710,-10645.892614,9726.822748
1164.734037,-2604.031287,-8884.342038,9803.411904
1164.734337,-3216.744531,-4671.938485,11488.373325
1164.734637,-4595.349330,1531.783110,11182.016703
1164.734937,-2604.031287,7429.148083,10645.892614
1164.735237,-76.589155,13479.691368,9803.411904
1164.735537,306.356622,13326.513057,9803.411904
1164.735793,1072.248177,12254.264880,9956.590215
1164.736099,612.713244,8195.039638,12790.388968
1164.736405,306.356622,1378.604799,13249.923901
1164.736711,919.069866,-2986.977064,10416.125148
1164.737018,-536.124088,-7658.915550,10262.946837
1164.737324,-1148.837332,-10645.892614,11641.551636
1164.737630,-2067.907198,-12943.567279,11488.373325
1164.737936,-229.767466,-10492.714303,9880.001059
1164.738243,2374.263820,-7046.202306,9803.411904
1164.738541,1991.318043,-3446.511997,9267.287815
1164.738838,-229.767466,919.069866,9267.287815
1164.739135,765.891555,6203.721595,9420.466126
1164.739432,1225.426488,8654.574571,9114.109504
1164.739730,-2221.085509,8348.217949,11028.838392
1164.740027,-3216.744531,6356.899906,11028.838392
1164.740324,-689.302399,4978.295107,11335.195014
1164.740654,-0.000000,306.356622,9726.822748
1164.740950,-3523.101153,-7812.093861,11488.373325
1164.741246,-5284.651729,-12024.497413,12866.978124
1164.741543,-76.589155,-13249.923901,10799.070925
1164.741839,2297.674665,-15011.474478,9420.466126
1164.742135,4059.225241,-13096.745590,9114.109504
1164.742432,6127.132440,-7352.558928,9650.233593
1164.742728,7046.202306,-0.000000,6893.023995
1164.743023,4901.705952,4825.116796,6663.256528
1164.743324,1072.248177,9114.109504,10952.249236
1164.743625,-2757.209598,12560.621502,11105.427547
1164.743925,-4978.295107,13173.334746,9956.590215
1164.744226,-6203.721595,11335.195014,11641.551636
1164.744527,-6969.613150,6663.256528,12943.567279
1164.744828,-6510.078217,1225.426488,13556.280523
1164.745129,-4748.527641,-4212.403552,12101.086569
1164.745441,-3216.744531,-9726.822748,13020.156435
1164.745738,306.356622,-12943.567279,12713.799813
1164.746036,7122.791461,-12943.567279,9420.466126
1164.746333,8960.931193,-10033.179370,8041.861327
1164.746631,9803.411904,-5208.062574,9420.466126
1164.746928,5973.954129,919.069866,7122.791461
1164.747225,3446.511997,7122.791461,6663.256528
1164.747523,-842.480710,10416.125148,9420.466126
1164.747837,-8424.807105,10262.946837,12254.264880
1164.748134,-8731.163727,10262.946837,11641.551636
1164.748432,-7658.915550,8654.574571,11641.551636
1164.748730,-6203.721595,3216.744531,13173.334746
1164.749028,-4288.992708,-2986.977064,12560.621502
1164.749326,-3829.457775,-7505.737239,12407.443191
1164.749624,3906.046930,-9650.233593,9803.411904
1164.749921,5208.062574,-12637.210657,9420.466126
1164.750228,7735.504705,-13249.923901,7888.683016
1164.750527,6739.845684,-11718.140791,9573.644437
1164.750826,5054.884263,-7352.558928,9880.001059
1164.751125,4671.938485,-1455.193954,7122.791461
1164.751424,-229.767466,3369.922842,7888.683016
1164.751723,-4442.171019,6816.434839,10569.303459
1164.752022,-9880.001059,8348.217949,12560.621502
1164.752321,-6969.613150,10416.125148,11335.195014
1164.752617,-3063.566220,10109.768526,11641.551636
1164.752920,-2604.031287,4288.992708,12637.210657
1164.753223,-229.767466,-995.659021,13862.637145
1164.753526,2374.263820,-2833.798753,12560.621502
1164.753829,8195.039638,-5820.775818,10339.535992
1164.754132,5973.954129,-9726.822748,9956.590215
1164.754435,5361.240885,-10186.357681,9343.876971
1164.754737,3906.046930,-7812.093861,9803.411904
1164.755032,153.178311,-3599.690308,9573.644437
1164.755332,-1914.728887,-76.589155,8960.931193
1164.755633,-5591.008351,4825.116796,9803.411904
1164.755933,-5744.186662,8960.931193,10569.303459
1164.756233,-6816.434839,10416.125148,10799.070925
1164.756533,-5437.830040,10262.946837,11028.838392
1164.756833,-3523.101153,6969.613150,12943.567279
1164.757133,-536.124088,1991.318043,11641.551636
1164.757422,-76.589155,-3293.333686,11335.195014
1164.757722,2297.674665,-7199.380617,11335.195014
1164.758023,4059.225241,-12330.854035,10416.125148
1164.758324,5514.419196,-14168.993767,9267.287815
1164.758625,5820.775818,-13556.280523,8884.342038
1164.758926,3599.690308,-9880.001059,8654.574571
1164.759226,1531.783110,-4518.760174,8118.450483
1164.759527,-1148.837332,612.713244,6816.434839
1164.759827,-6510.078217,2757.209598,9956.590215
1164.760127,-8424.807105,5284.651729,13556.280523
1164.760427,-5284.651729,9267.287815,10569.303459
1164.760727,-689.302399,11182.016703,9573.644437
1164.761027,2527.442131,8654.574571,12943.567279
1164.761327,1378.604799,3063.566220,12101.086569
1164.761627,3293.333686,-76.589155,10569.303459
1164.761927,6739.845684,-3599.690308,10492.714303
1164.762234,2374.263820,-11258.605858,10569.303459
1164.762531,1838.139732,-15317.831100,10262.946837
1164.762829,765.891555,-13403.102212,10722.481770
1164.763126,1991.318043,-9497.055282,9803.411904
1164.763424,2527.442131,-2986.977064,8807.752882
1164.763721,-2067.907198,3982.636086,9420.466126
1164.764019,-3369.922842,9573.644437,10952.249236
1164.764316,-4825.116796,13326.513057,12254.264880
1164.764632,-3829.457775,15853.955188,10262.946837
1164.764929,-3063.566220,14781.707011,10952.249236
1164.765226,-6356.899906,9267.287815,14858.296167
1164.765523,-1761.550576,4595.349330,12407.443191
1164.765820,1991.318043,-995.659021,10416.125148
1164.766117,4518.760174,-8118.450483,10875.660081
1164.766414,459.534933,-14551.939545,11335.195014
1164.766711,2374.263820,-15011.474478,9573.644437
1164.767030,4518.760174,-13249.923901,8501.396260
1164.767328,1225.426488,-11718.140791,9420.466126
1164.767627,-1608.372265,-7965.272172,8654.574571
1164.767925,-2067.907198,-0.000000,9114.109504
1164.768223,-0.000000,6050.543284,9420.466126
1164.768521,-1455.193954,7735.504705,10722.481770
1164.768819,-995.659021,9956.590215,10569.303459
1164.769118,919.069866,12101.086569,11335.195014
1164.769431,-229.767466,8041.861327,12254.264880
1164.769729,-1455.193954,1838.139732,11182.016703
1164.770028,-995.659021,-3140.155375,10722.481770
1164.770326,-1302.015643,-9190.698660,11641.551636
1164.770624,-382.945777,-13709.458834,10569.303459
1164.770923,1838.139732,-14705.117856,9650.233593
1164.771221,4365.581863,-12484.032346,10416.125148
1164.771520,2833.798753,-8271.628794,9037.520349
1164.771819,2144.496354,-3752.868619,9267.287815
1164.772118,919.069866,1684.961421,9573.644437
1164.772418,-995.659021,6663.256528,10262.946837
1164.772717,-2067.907198,9650.233593,10416.125148
1164.773016,-382.945777,11335.195014,9803.411904
1164.773315,306.356622,11488.373325,10722.481770
1164.773615,-1455.193954,7429.148083,11641.551636
1164.773914,-3369.922842,1838.139732,11488.373325
1164.774221,-3216.744531,-3140.155375,13862.637145
1164.774518,-3829.457775,-7658.915550,13326.513057
1164.774815,765.891555,-10186.357681,9573.644437
1164.775112,2986.977064,-9037.520349,9267.287815
1164.775409,3140.155375,-8577.985416,10875.660081
1164.775705,1378.604799,-4901.705952,9573.644437
1164.776002,1531.783110,-0.000000,8424.807105
1164.776299,1684.961421,5284.651729,9190.698660
1164.776613,-2910.387909,5284.651729,10262.946837
1164.776917,-3829.457775,8348.217949,10109.768526
1164.777221,-1148.837332,10569.303459,10339.535992
1164.777524,-2374.263820,7888.683016,12101.086569
1164.777828,-3063.566220,2910.387909,12254.264880
1164.778132,-4748.527641,-76.589155,12713.799813
1164.778435,459.534933,-3446.511997,11182.016703
1164.778739,306.356622,-7812.093861,11182.016703
1164.779057,4518.760174,-9726.822748,9956.590215
1164.779351,5973.954129,-10033.179370,9420.466126
1164.779645,4518.760174,-8731.163727,9956.590215
1164.779938,2833.798753,-5208.062574,8195.039638
1164.780232,1838.139732,-689.302399,6969.613150
1164.780525,-2221.085509,612.713244,9880.001059
1164.780819,-6663.256528,1991.318043,11182.016703
1164.781112,-5131.473418,6050.543284,10262.946837
1164.781430,-1761.550576,8195.039638,10492.714303
1164.781727,-1302.015643,7122.791461,12560.621502
1164.782025,-2450.852976,2604.031287,12254.264880
1164.782323,1991.318043,919.069866,11488.373325
1164.782621,4671.938485,-3446.511997,9956.590215
1164.782919,3140.155375,-9190.698660,9956.590215
1164.783217,1072.248177,-12637.210657,11028.838392
1164.783515,2374.263820,-10952.249236,10262.946837
1164.783814,2527.442131,-8424.807105,9803.411904
1164.784112,153.178311,-4518.760174,9267.287815
1164.784409,-76.589155,612.713244,9573.644437
1164.784706,-1148.837332,6050.543284,9573.644437
1164.785004,-1914.728887,10416.125148,9650.233593
1164.785301,-4978.295107,11335.195014,12254.264880
1164.785599,-4978.295107,10722.481770,13096.745590
1164.785896,-5591.008351,7888.683016,13556.280523
1164.786226,-3063.566220,2604.031287,12790.388968
1164.786523,765.891555,-689.302399,11488.373325
1164.786820,3446.511997,-4671.938485,10875.660081
1164.787117,7122.791461,-8118.450483,8195.039638
1164.787414,9267.287815,-8271.628794,7275.969772
1164.787711,7275.969772,-8424.807105,7812.093861
1164.788008,-0.000000,-7965.272172,8654.574571
1164.788305,-6356.899906,-5973.954129,9803.411904
1164.788613,-5284.651729,-536.124088,10262.946837
1164.788913,-8424.807105,1225.426488,10875.660081
1164.789212,-8271.628794,2450.852976,11488.373325
1164.789512,-3063.566220,6969.613150,11028.838392
1164.789812,1684.961421,8041.861327,11182.016703
1164.790112,3906.046930,5284.651729,10109.768526
1164.790412,2297.674665,612.713244,10569.303459
1164.790712,4671.938485,-76.589155,10722.481770
1164.790995,5054.884263,-6739.845684,8960.931193
1164.791298,2680.620442,-11258.605858,8807.752882
1164.791601,2144.496354,-12637.210657,10109.768526
1164.791903,-382.945777,-11258.605858,10875.660081
1164.792206,1225.426488,-6893.023995,8348.217949
1164.792509,-1302.015643,-1148.837332,9114.109504
1164.792812,-2221.085509,1991.318043,11182.016703
1164.793115,-6969.613150,6203.721595,12254.264880
1164.793397,-3216.744531,9267.287815,11794.729947
1164.793699,-842.480710,10722.481770,11641.551636
1164.794001,-3216.744531,6816.434839,13479.691368
1164.794302,-76.589155,3829.457775,12560.621502
1164.794604,5820.775818,4595.349330,8654.574571
1164.794906,7429.148083,-536.124088,9803.411904
1164.795208,1991.318043,-6127.132440,11335.195014
1164.795510,459.534933,-7199.380617,10416.125148
1164.795800,2527.442131,-4518.760174,9880.001059
1164.796099,-1608.372265,-5361.240885,9420.466126
1164.796398,-8884.342038,-5514.419196,11335.195014
1164.796698,-5284.651729,1531.783110,10416.125148
1164.796997,-1914.728887,4748.527641,9956.590215
1164.797296,-2221.085509,4288.992708,10875.660081
1164.797595,-2757.209598,4288.992708,12407.443191
1164.797894,919.069866,6356.899906,11335.195014
1164.798208,3293.333686,4442.171019,9114.109504
1164.798507,-76.589155,-536.124088,9956.590215
1164.798805,2144.496354,-2374.263820,9650.233593
1164.799104,1072.248177,-5667.597507,9650.233593
1164.799403,3752.868619,-9037.520349,8195.039638
1164.799701,3906.046930,-9343.876971,9573.644437
1164.800000,2144.496354,-8424.807105,9956.590215
1164.800299,-1302.015643,-6739.845684,9114.109504
1164.800606,-4442.171019,-3752.868619,9956.590215
1164.800906,-3523.101153,-229.767466,11182.016703
1164.801205,-7122.791461,153.178311,11947.908258
1164.801505,-4825.116796,2297.674665,11335.195014
1164.801805,1991.318043,4978.295107,9650.233593
1164.802105,3906.046930,3829.457775,10569.303459
1164.802404,1991.318043,-76.589155,11641.551636
1164.802704,459.534933,-76.589155,12484.032346
1164.803001,2833.798753,-995.659021,11182.016703
1164.803300,3140.155375,-2986.977064,9114.109504
1164.803600,1072.248177,-4825.116796,9343.876971
1164.803900,1991.318043,-3140.155375,10569.303459
1164.804199,1225.426488,-2221.085509,10722.481770
1164.804499,306.356622,-229.767466,10569.303459
1164.804799,-842.480710,2297.674665,11182.016703
1164.805098,-1761.550576,3829.457775,11411.784169
1164.805393,-2450.852976,4288.992708,10262.946837
1164.805694,-3063.566220,3829.457775,10569.303459
1164.805995,-3063.566220,3063.566220,12254.264880
1164.806295,-4595.349330,153.178311,12790.388968
1164.806596,-2910.387909,-2374.263820,11335.195014
1164.806897,459.534933,-2374.263820,10569.303459
1164.807198,3752.868619,-4212.403552,10416.125148
1164.807499,2986.977064,-4671.938485,9420.466126
1164.807787,4059.225241,-3906.046930,9114.109504
1164.808088,4212.403552,-1761.550576,9803.411904
1164.808388,1378.604799,-536.124088,9267.287815
1164.808689,-536.124088,1072.248177,8195.039638
1164.808990,-2221.085509,3216.744531,8195.039638
1164.809291,-5131.473418,765.891555,11947.908258
1164.809592,-6510.078217,-382.945777,12713.799813
1164.809892,-2450.852976,612.713244,11641.551636
1164.810202,765.891555,612.713244,11488.373325
1164.810501,-995.659021,-1148.837332,10645.892614
1164.810800,-229.767466,-1608.372265,10875.660081
1164.811100,4901.705952,-1455.193954,10109.768526
1164.811399,5054.884263,-2986.977064,9573.644437
1164.811698,2833.798753,-7352.558928,10416.125148
1164.811998,919.069866,-5054.884263,10186.357681
1164.812297,3446.511997,-2221.085509,9803.411904
1164.812604,-0.000000,-229.767466,9573.644437
1164.812904,-4748.527641,-229.767466,11028.838392
1164.813204,-5131.473418,4135.814397,11641.551636
1164.813503,-4288.992708,5897.364973,9956.590215
1164.813803,-2757.209598,3982.636086,10416.125148
1164.814102,-3369.922842,1072.248177,12790.388968
1164.814402,-1761.550576,-0.000000,12943.567279
1164.814702,2680.620442,-995.659021,10875.660081
1164.814998,4059.225241,-2374.263820,9573.644437
1164.815296,5820.775818,-4212.403552,10416.125148
1164.815595,4671.938485,-4901.705952,10722.481770
1164.815893,5514.419196,-2680.620442,8424.807105
1164.816191,5667.597507,-842.480710,7429.148083
1164.816489,-689.302399,-536.124088,10416.125148
1164.816787,-7122.791461,-842.480710,10875.660081
1164.817085,-9037.520349,1991.318043,11488.373325
1164.817399,-6356.899906,4825.116796,11794.729947
1164.817698,-6356.899906,2297.674665,10109.768526
1164.817997,-3829.457775,2144.496354,10875.660081
1164.818296,306.356622,1991.318043,12713.799813
1164.818594,2144.496354,-229.767466,11564.962480
1164.818893,2297.674665,-3446.511997,11335.195014
1164.819192,5054.884263,-3446.511997,8960.931193
1164.819490,8041.861327,-3293.333686,8501.396260
1164.819779,4901.705952,-7199.380617,9343.876971
1164.820078,3906.046930,-7965.272172,9803.411904
1164.820378,2144.496354,-5054.884263,9956.590215
1164.820677,306.356622,-1608.372265,9803.411904
1164.820977,-2067.907198,1838.139732,9037.520349
1164.821276,-4595.349330,5131.473418,9420.466126
1164.821576,-5744.186662,6663.256528,10722.481770
1164.821875,-6969.613150,5744.186662,10875.660081
1164.822175,-5437.830040,3216.744531,11641.551636
1164.822474,-4442.171019,-0.000000,14475.350389
1164.822773,-1914.728887,-4059.225241,13403.102212
1164.823072,3140.155375,-4518.760174,9956.590215
1164.823372,9420.466126,-6433.489062,9726.822748
1164.823671,7735.504705,-10339.535992,9956.590215
1164.823970,4748.527641,-10033.179370,10416.125148
1164.824269,5361.240885,-4825.116796,8807.752882
1164.824576,5054.884263,-842.480710,7505.737239
1164.824876,306.356622,1838.139732,9114.109504
1164.825177,-4825.116796,6510.078217,9803.411904
1164.825477,-4288.992708,12254.264880,9880.001059
1164.825777,-6050.543284,12254.264880,10875.660081
1164.826077,-8118.450483,7582.326394,12407.443191
1164.826377,-8884.342038,3982.636086,14858.296167
1164.826677,-5284.651729,1531.783110,14551.939545
1164.826997,-689.302399,-1455.193954,11411.784169
1164.827294,1991.318043,-5820.775818,10416.125148
1164.827591,7429.148083,-7658.915550,9573.644437
1164.827888,8348.217949,-8884.342038,9114.109504
1164.828185,8348.217949,-9037.520349,8654.574571
1164.828482,7046.202306,-6586.667373,8654.574571
1164.828779,3140.155375,-2986.977064,8501.396260
1164.829077,-2450.852976,-76.589155,9267.287815
1164.829395,-8118.450483,3676.279464,9880.001059
1164.829693,-8731.163727,6203.721595,11028.838392
1164.829992,-9190.698660,6663.256528,12254.264880
1164.830290,-6816.434839,6203.721595,12254.264880
1164.830588,-1148.837332,4748.527641,11488.373325
1164.830886,1378.604799,1838.139732,11105.427547
1164.831184,-536.124088,-6280.310751,11258.605858
1164.831483,-229.767466,-11411.784169,11718.140791
1164.831796,3906.046930,-11871.319102,10952.249236
1164.832092,7046.202306,-13862.637145,7582.326394
1164.832388,7888.683016,-12484.032346,6127.132440
1164.832684,8501.396260,-7199.380617,7505.737239
1164.832980,5361.240885,-1455.193954,8960.931193
1164.833276,153.178311,1991.318043,9880.001059
1164.833572,-3063.566220,7122.791461,10875.660081
1164.833868,-5437.830040,11335.195014,11411.784169
1164.834167,-9497.055282,10569.303459,11641.551636
1164.834468,-10033.179370,8654.574571,13249.923901
1164.834769,-8118.450483,5284.651729,13939.226301
1164.835070,-4748.527641,612.713244,14475.350389
1164.835370,153.178311,-1914.728887,12560.621502
1164.835671,7582.326394,-2527.442131,9267.287815
1164.835972,9803.411904,-5054.884263,8807.752882
1164.836273,8195.039638,-7352.558928,8424.807105
1164.836580,6280.310751,-5973.954129,8271.628794
1164.836880,4748.527641,-3140.155375,10262.946837
1164.837180,306.356622,-2067.907198,9037.520349
1164.837480,-1455.193954,2604.031287,8348.217949
1164.837780,-1761.550576,6203.721595,9114.109504
1164.838081,-6510.078217,6050.543284,10875.660081
1164.838381,-9497.055282,5437.830040,12637.210657
1164.838681,-8271.628794,5591.008351,13479.691368
1164.838995,-4825.116796,3676.279464,12713.799813
1164.839294,-4442.171019,-536.124088,12101.086569
1164.839594,-2757.209598,-3752.868619,11258.605858
1164.839893,5361.240885,-5973.954129,9956.590215
1164.840193,6127.132440,-10339.535992,9650.233593
1164.840492,5973.954129,-13556.280523,9956.590215
1164.840792,5208.062574,-11871.319102,9650.233593
1164.841091,7275.969772,-6893.023995,7965.272172
1164.841364,4671.938485,-2527.442131,8118.450483
1164.841667,-995.659021,-382.945777,8807.752882
1164.841971,-4595.349330,4825.116796,11182.016703
1164.842274,-5744.186662,8348.217949,10645.892614
1164.842578,-4595.349330,8654.574571,10186.357681
1164.842881,-4825.116796,7429.148083,12790.388968
1164.843184,-5284.651729,4288.992708,13556.280523
1164.843488,-2910.387909,919.069866,12254.264880
1164.843805,765.891555,-2680.620442,11028.838392
1164.844099,4671.938485,-8424.807105,11641.551636
1164.844394,3906.046930,-11564.962480,11335.195014
1164.844688,8195.039638,-10339.535992,9114.109504
1164.844983,10416.125148,-8577.985416,6433.489062
1164.845277,6893.023995,-5208.062574,7582.326394
1164.845572,-689.302399,-2221.085509,9650.233593
1164.845866,-4825.116796,4595.349330,9880.001059
1164.846166,-5744.186662,9420.466126,10109.768526
1164.846466,-9190.698660,10416.125148,10262.946837
1164.846766,-11947.908258,9573.644437,12713.799813
1164.847066,-9497.055282,9114.109504,14015.815456
1164.847366,-3829.457775,7122.791461,12713.799813
1164.847666,459.534933,459.534933,11335.195014
1164.847966,4059.225241,-3906.046930,10262.946837
1164.848266,7888.683016,-7812.093861,9956.590215
1164.848557,8807.752882,-13096.745590,8654.574571
1164.848860,7429.148083,-16390.079277,9114.109504
1164.849162,5054.884263,-14015.815456,10722.481770
1164.849465,2144.496354,-9037.520349,8654.574571
1164.849768,612.713244,-1608.372265,7735.504705
1164.850070,-3063.566220,5284.651729,9956.590215
1164.850373,-7658.915550,9803.411904,11411.784169
1164.850675,-9497.055282,13786.047990,11794.729947
1164.850983,-8271.628794,14628.528700,11488.373325
1164.851283,-6510.078217,12866.978124,14092.404612
1164.851583,-4978.295107,6510.078217,13709.458834
1164.851883,765.891555,2450.852976,10262.946837
1164.852183,6586.667373,-3293.333686,9267.287815
1164.852483,5514.419196,-13403.102212,11335.195014
1164.852782,6127.132440,-18075.040698,11028.838392
1164.853082,7735.504705,-16696.435899,9037.520349
1164.853371,8348.217949,-13403.102212,8195.039638
1164.853671,2374.263820,-9726.822748,8195.039638
1164.853972,-3369.922842,-1608.372265,9650.233593
1164.854272,-2757.209598,6203.721595,9114.109504
1164.854573,-5744.186662,10875.660081,9420.466126
1164.854874,-8118.450483,12713.799813,11794.729947
1164.855174,-6356.899906,15088.063633,12101.086569
1164.855475,-3829.457775,14092.404612,12101.086569
1164.855762,-2604.031287,6816.434839,13249.923901
1164.856066,-2221.085509,765.891555,13709.458834
1164.856370,3752.868619,-3446.511997,12101.086569
1164.856674,6280.310751,-9037.520349,8348.217949
1164.856977,7582.326394,-13096.745590,7888.683016
1164.857281,4671.938485,-14551.939545,10109.768526
1164.857585,2297.674665,-13096.745590,9803.411904
1164.857889,919.069866,-8731.163727,7429.148083
1164.858179,-2067.907198,-1302.015643,8348.217949
1164.858475,-3216.744531,3063.566220,10569.303459
1164.858770,-4825.116796,8807.752882,11182.016703
1164.859066,-3982.636086,11641.551636,11488.373325
1164.859362,-1761.550576,14092.404612,10186.357681
1164.859658,-3829.457775,10722.481770,11947.908258
1164.859954,-4748.527641,5591.008351,12637.210657
1164.860250,-3676.279464,-1148.837332,12484.032346
1164.860559,-536.124088,-6433.489062,12943.567279
1164.860857,2986.977064,-14322.172078,10722.481770
1164.861156,5820.775818,-16083.722655,8654.574571
1164.861454,8807.752882,-14551.939545,7888.683016
1164.861753,6280.310751,-10952.249236,8501.396260
1164.862051,3446.511997,-7812.093861,7275.969772
1164.862350,-0.000000,-689.302399,8884.342038
1164.862648,-3982.636086,5284.651729,11411.784169
1164.862989,-5744.186662,8960.931193,9956.590215
1164.863283,-5284.651729,10875.660081,10569.303459
1164.863577,-5284.651729,11641.551636,12407.443191
1164.863871,-7965.272172,6203.721595,14168.993767
1164.864165,-5591.008351,2757.209598,13403.102212
1164.864459,2144.496354,1378.604799,11411.784169
1164.864753,4671.938485,-4212.403552,10722.481770
1164.865048,6433.489062,-9037.520349,9114.109504
1164.865344,7888.683016,-9497.055282,8960.931193
1164.865644,8195.039638,-9343.876971,9420.466126
1164.865943,4518.760174,-8271.628794,8731.163727
1164.866243,-76.589155,-2833.798753,8960.931193
1164.866542,-382.945777,3369.922842,9573.644437
1164.866842,-5591.008351,6356.899906,10645.892614
1164.867141,-6510.078217,9956.590215,10722.481770
1164.867441,-8271.628794,13020.156435,12560.621502
1164.867768,-7199.380617,11794.729947,13249.923901
1164.868067,-4748.527641,7582.326394,12560.621502
1164.868366,-1608.372265,3063.566220,11641.551636
1164.868665,5820.775818,153.178311,9573.644437
1164.868964,6433.489062,-7352.558928,9267.287815
1164.869262,6280.310751,-13096.745590,9573.644437
1164.869561,5514.419196,-14475.350389,9497.055282
1164.869860,2986.977064,-13862.637145,10109.768526
1164.870148,-382.945777,-11258.605858,8577.985416
1164.870449,-3216.744531,-6280.310751,9114.109504
1164.870750,-3829.457775,-689.302399,10262.946837
1164.871051,-4135.814397,3369.922842,10416.125148
1164.871351,-4825.116796,6203.721595,11641.551636
1164.871652,-3369.922842,9114.109504,12637.210657
1164.871953,-2604.031287,8654.574571,13096.745590
1164.872254,-76.589155,5437.830040,10569.303459
1164.872563,-0.000000,2757.209598,10416.125148
1164.872859,2374.263820,-3752.868619,10569.303459
1164.873155,2986.977064,-9726.822748,9573.644437
1164.873451,4901.705952,-12177.675724,11335.195014
1164.873747,7122.791461,-13096.745590,9420.466126
1164.874043,4748.527641,-10799.070925,8884.342038
1164.874339,2374.263820,-8424.807105,8884.342038
1164.874635,-1608.372265,-3446.511997,9803.411904
1164.874942,-3829.457775,1531.783110,11028.838392
1164.875241,-7122.791461,4825.116796,11335.195014
1164.875540,-5744.186662,7888.683016,11182.016703
1164.875839,-2374.263820,10569.303459,11488.373325
1164.876138,-1761.550576,9114.109504,11411.784169
1164.876437,-382.945777,6663.256528,10569.303459
1164.876736,2680.620442,4288.992708,9880.001059
1164.877035,4059.225241,459.534933,11105.427547
1164.877351,4748.527641,-4518.760174,8424.807105
1164.877653,2527.442131,-9880.001059,10109.768526
1164.877954,1838.139732,-10799.070925,10645.892614
1164.878256,-0.000000,-9726.822748,10952.249236
1164.878558,-536.124088,-8424.807105,9267.287815
1164.878860,2527.442131,-1148.837332,8195.039638
1164.879161,-1148.837332,3063.566220,10492.714303
1164.879463,-4978.295107,4978.295107,11718.140791
1164.879777,-4288.992708,9420.466126,11488.373325
1164.880074,-3676.279464,11947.908258,11564.962480
1164.880370,-4135.814397,8807.752882,11335.195014
1164.880666,-4825.116796,5437.830040,11335.195014
1164.880963,1684.961421,2604.031287,10799.070925
1164.881259,2374.263820,-3752.868619,10875.660081
1164.881555,612.713244,-10645.892614,12407.443191
1164.881851,1838.139732,-11411.784169,11105.427547
1164.882140,4671.938485,-8424.807105,9573.644437
1164.882439,4059.225241,-7505.737239,8654.574571
1164.882739,-229.767466,-5820.775818,8501.396260
1164.883039,765.891555,-689.302399,9114.109504
1164.883339,-842.480710,2297.674665,9573.644437
1164.883639,-3216.744531,2604.031287,9803.411904
1164.883939,-1914.728887,5591.008351,11105.427547
1164.884239,-3523.101153,5131.473418,12713.799813
1164.884538,-2450.852976,3216.744531,11794.729947
1164.884838,-382.945777,2297.674665,10722.481770
1164.885137,2297.674665,-1302.015643,11028.838392
1164.885436,2680.620442,-6739.845684,10033.179370
1164.885735,3752.868619,-8577.985416,9573.644437
1164.886035,5973.954129,-7812.093861,9573.644437
1164.886334,2833.798753,-9497.055282,10416.125148
1164.886633,612.713244,-8118.450483,8731.163727
1164.886939,-689.302399,-995.659021,8807.752882
1164.887239,-2757.209598,2144.496354,9803.411904
1164.887539,-4978.295107,4595.349330,8960.931193
1164.887839,-5591.008351,7735.504705,12101.086569
1164.888139,-1455.193954,9956.590215,11182.016703
1164.888439,-2604.031287,8195.039638,11182.016703
1164.888739,-1761.550576,5437.830040,11641.551636
1164.889039,-0.000000,1072.248177,11488.373325
1164.889360,1072.248177,-3446.511997,12330.854035
1164.889660,2833.798753,-7199.380617,9956.590215
1164.889961,4365.581863,-9880.001059,8960.931193
1164.890261,5208.062574,-9497.055282,8654.574571
1164.890561,2374.263820,-8424.807105,8501.396260
1164.890862,-229.767466,-4671.938485,8960.931193
1164.891162,-382.945777,-229.767466,9956.590215
1164.891462,-5437.830040,2604.031287,11947.908258
1164.891781,-4748.527641,4978.295107,10416.125148
1164.892074,-5284.651729,7275.969772,11182.016703
1164.892368,-4288.992708,6816.434839,12713.799813
1164.892662,-2910.387909,4595.349330,12407.443191
1164.892955,-1761.550576,2757.209598,12101.086569
1164.893249,5054.884263,153.178311,9880.001059
1164.893542,6127.132440,-6280.310751,9190.698660
1164.893836,5054.884263,-9343.876971,9803.411904
1164.894153,6586.667373,-10952.249236,8807.752882
1164.894452,4212.403552,-8731.163727,7735.504705
1164.894750,919.069866,-6433.489062,9114.109504
1164.895049,-4825.116796,-4671.938485,10875.660081
1164.895348,-5131.473418,-1148.837332,10875.660081
1164.895646,-4825.116796,4748.527641,11564.962480
1164.895945,-4135.814397,5744.186662,12101.086569
1164.896243,-4288.992708,7429.148083,12484.032346
1164.896543,-2450.852976,8501.396260,12943.567279
1164.896840,1072.248177,8501.396260,11411.784169
1164.897138,4212.403552,5591.008351,9573.644437
1164.897435,4901.705952,2297.674665,9956.590215
1164.897733,4901.705952,-1914.728887,8807.752882
1164.898030,3752.868619,-6127.132440,8731.163727
1164.898328,3446.511997,-7505.737239,10339.535992
1164.898625,-995.659021,-9037.520349,10722.481770
1164.898932,-2067.907198,-6893.023995,9650.233593
1164.899234,-995.659021,-1302.015643,8654.574571
1164.899535,-1148.837332,-689.302399,10262.946837
1164.899837,-5284.651729,-76.589155,12713.799813
1164.900139,-5131.473418,2604.031287,12943.567279
1164.900441,-1608.372265,6203.721595,11488.373325
1164.900742,-229.767466,5131.473418,10416.125148
1164.901044,-2374.263820,3216.744531,10262.946837
1164.901289,-2067.907198,306.356622,10339.535992
1164.901593,-842.480710,-2067.907198,10416.125148
1164.901897,306.356622,-5361.240885,10262.946837
1164.902201,1378.604799,-6739.845684,10722.481770
1164.902505,5514.419196,-4059.225241,9267.287815
1164.902809,5208.062574,-3446.511997,8577.985416
1164.903113,4059.225241,-2221.085509,7275.969772
1164.903417,1838.139732,-1455.193954,9956.590215
1164.903733,-1302.015643,-842.480710,11564.962480
1164.904036,-3063.566220,-2527.442131,10262.946837
1164.904338,-5284.651729,-2833.798753,13709.458834
1164.904641,-3216.744531,-382.945777,11641.551636
1164.904943,-1761.550576,459.534933,10722.481770
1164.905246,-689.302399,1225.426488,9267.287815
1164.905548,2374.263820,1531.783110,10109.768526
1164.905851,306.356622,-1302.015643,11488.373325
1164.906168,612.713244,-1914.728887,10109.768526
1164.906462,1072.248177,-3599.690308,10262.946837
1164.906757,1378.604799,-2527.442131,9803.411904
1164.907051,1072.248177,-229.767466,10416.125148
1164.907346,-536.124088,1378.604799,9803.411904
1164.907640,2680.620442,3369.922842,8884.342038
1164.907935,-1302.015643,3063.566220,12254.264880
1164.908229,-2374.263820,3063.566220,11718.140791
1164.908529,-1148.837332,3063.566220,10875.660081
1164.908828,-1148.837332,3063.566220,11947.908258
1164.909127,-2604.031287,-0.000000,12101.086569
1164.909427,-2221.085509,-995.659021,12407.443191
1164.909726,3752.868619,1378.604799,9650.233593
1164.910025,7122.791461,-536.124088,6969.613150
1164.910324,3446.511997,-3752.868619,9803.411904
1164.910623,1684.961421,-2374.263820,11411.784169
1164.910937,-0.000000,153.178311,10109.768526
1164.911236,-382.945777,1684.961421,9497.055282
1164.911534,-4135.814397,2604.031287,9956.590215
1164.911833,-4978.295107,3369.922842,11335.195014
1164.912132,-6816.434839,3063.566220,10262.946837
1164.912431,-5897.364973,153.178311,11335.195014
1164.912729,-3216.744531,-1914.728887,12101.086569
1164.913028,-3829.457775,-4671.938485,12407.443191
1164.913335,-382.945777,-4901.705952,10569.303459
1164.913632,5820.775818,-4825.116796,8654.574571
1164.913929,6127.132440,-6280.310751,9573.644437
1164.914227,5820.775818,-7658.915550,9114.109504
1164.914524,5514.419196,-6586.667373,8041.861327
1164.914821,5820.775818,-3293.333686,8807.752882
1164.915118,919.069866,-2833.798753,10339.535992
1164.915415,-4135.814397,-1302.015643,10875.660081
1164.915712,-3982.636086,2757.209598,11335.195014
1164.916013,-3676.279464,4978.295107,10569.303459
1164.916314,-4288.992708,2757.209598,10033.179370
1164.916615,-6203.721595,1684.961421,12943.567279
1164.916916,-1455.193954,2144.496354,12254.264880
1164.917217,459.534933,765.891555,12024.497413
1164.917518,459.534933,-1761.550576,11028.838392
1164.917819,5054.884263,-2833.798753,9956.590215
1164.918114,3752.868619,-4901.705952,10722.481770
1164.918415,5208.062574,-5667.597507,10416.125148
1164.918716,4365.581863,-3906.046930,10416.125148
1164.919017,4518.760174,612.713244,9267.287815
1164.919318,919.069866,2757.209598,9267.287815
1164.919619,-3216.744531,3982.636086,9190.698660
1164.919920,-4135.814397,6050.543284,10722.481770
1164.920221,-9037.520349,4825.116796,12713.799813
1164.920509,-7812.093861,3063.566220,12254.264880
1164.920809,-5744.186662,1991.318043,12943.567279
1164.921109,-76.589155,1991.318043,12254.264880
1164.921410,919.069866,-842.480710,10339.535992
1164.921710,3599.690308,-3599.690308,9497.055282
1164.922010,8041.861327,-4518.760174,8041.861327
1164.922310,5054.884263,-8424.807105,9956.590215
1164.922611,4059.225241,-7812.093861,10109.768526
1164.922925,2986.977064,-4825.116796,8195.039638
1164.923222,1991.318043,-2067.907198,9267.287815
1164.923520,-1761.550576,-842.480710,8731.163727
1164.923818,-5284.651729,2757.209598,10416.125148
1164.924116,-3829.457775,5284.651729,10569.303459
1164.924414,-5284.651729,3676.279464,11182.016703
1164.924712,-6050.543284,1225.426488,13249.923901
1164.925009,-1914.728887,1991.318043,12254.264880
1164.925316,1531.783110,765.891555,10109.768526
1164.925616,2144.496354,-2833.798753,9956.590215
1164.925916,3906.046930,-6586.667373,11182.016703
1164.926215,5054.884263,-8271.628794,10722.481770
1164.926515,5208.062574,-7965.272172,9573.644437
1164.926815,2680.620442,-7812.093861,8960.931193
1164.927114,1072.248177,-4518.760174,10109.768526
1164.927414,-2221.085509,612.713244,10109.768526
1164.927711,-1455.193954,4825.116796,8501.396260
1164.928014,-2221.085509,8960.931193,9420.466126
1164.928316,-2450.852976,9114.109504,11182.016703
1164.928619,-2374.263820,6663.256528,10952.249236
1164.928922,-2374.263820,3523.101153,12407.443191
1164.929225,-995.659021,612.713244,12484.032346
1164.929528,-4748.527641,-5820.775818,13709.458834
1164.929831,-5591.008351,-7812.093861,13326.513057
1164.930126,3140.155375,-7505.737239,9880.001059
1164.930422,4671.938485,-7812.093861,9573.644437
1164.930719,5514.419196,-8118.450483,8807.752882
1164.931016,4059.225241,-6280.310751,9267.287815
1164.931313,4518.760174,612.713244,9497.055282
1164.931610,2144.496354,3982.636086,9190.698660
1164.931907,-5131.473418,4825.116796,10033.179370
1164.932203,-4978.295107,10722.481770,9956.590215
1164.932515,-3982.636086,10722.481770,10109.768526
1164.932815,-3982.636086,7275.969772,9114.109504
1164.933115,-2221.085509,1991.318043,12101.086569
1164.933415,-2067.907198,-3293.333686,12943.567279
1164.933715,-229.767466,-9726.822748,12330.854035
1164.934015,-229.767466,-13249.923901,11335.195014
1164.934315,5054.884263,-12177.675724,9420.466126
1164.934615,2986.977064,-12177.675724,9573.644437
1164.934914,3599.690308,-9650.233593,7352.558928
1164.935214,5667.597507,-4212.403552,7888.683016
1164.935513,3446.511997,-842.480710,7888.683016
1164.935812,-995.659021,1838.139732,10339.535992
1164.936111,-4288.992708,4595.349330,11794.729947
1164.936411,-2221.085509,8960.931193,9956.590215
1164.936710,-3829.457775,7888.683016,11182.016703
1164.937009,-7658.915550,5131.473418,11947.908258
1164.937316,-4595.349330,5284.651729,12943.567279
1164.937618,-995.659021,4825.116796,12637.210657
1164.937919,2680.620442,459.534933,10262.946837
1164.938221,4059.225241,-3446.511997,11028.838392
1164.938522,6280.310751,-6433.489062,10722.481770
1164.938824,7046.202306,-7812.093861,9650.233593
1164.939125,5361.240885,-8271.628794,9573.644437
1164.939426,5361.240885,-3446.511997,8731.163727
1164.939743,-1455.193954,-1914.728887,9650.233593
1164.940036,-6663.256528,919.069866,11411.784169
1164.940330,-6203.721595,5591.008351,12254.264880
1164.940624,-5284.651729,9267.287815,10569.303459
1164.940918,-4978.295107,9267.287815,10339.535992
1164.941211,-5591.008351,7122.791461,12560.621502
1164.941505,-1148.837332,7275.969772,12637.210657
1164.941799,612.713244,765.891555,10262.946837
1164.942117,-842.480710,-3599.690308,10875.660081
1164.942416,153.178311,-8731.163727,10875.660081
1164.942714,1072.248177,-11871.319102,10109.768526
1164.943012,3140.155375,-14322.172078,8577.985416
1164.943310,1684.961421,-14168.993767,10416.125148
1164.943608,2374.263820,-10186.357681,10416.125148
1164.943907,2144.496354,-3293.333686,8195.039638
1164.944205,1838.139732,919.069866,7888.683016
1164.944518,1991.318043,6050.543284,9114.109504
1164.944816,-1608.372265,7275.969772,8960.931193
1164.945115,-3063.566220,8041.861327,10492.714303
1164.945413,-2221.085509,5437.830040,10952.249236
1164.945712,-3982.636086,2450.852976,12943.567279
1164.946010,-2757.209598,-1914.728887,12330.854035
1164.946309,-2221.085509,-4212.403552,10799.070925
1164.946607,4212.403552,-5820.775818,10569.303459
1164.946907,2144.496354,-9650.233593,10722.481770
1164.947207,3140.155375,-10339.535992,8960.931193
1164.947507,4671.938485,-8118.450483,8960.931193
1164.947807,2527.442131,-5054.884263,9420.466126
1164.948107,2144.496354,-2527.442131,9650.233593
1164.948407,-536.124088,3369.922842,9267.287815
1164.948707,2374.263820,7735.504705,8654.574571
1164.949007,-229.767466,8654.574571,10109.768526
1164.949314,-2604.031287,9803.411904,10722.481770
1164.949611,-995.659021,9650.233593,12101.086569
1164.949908,-4748.527641,6203.721595,12101.086569
1164.950205,-6663.256528,919.069866,13709.458834
1164.950501,-8731.163727,-5208.062574,13096.745590
1164.950798,-3369.922842,-8271.628794,11794.729947
1164.951095,306.356622,-10186.357681,12101.086569
1164.951392,3446.511997,-10339.535992,10109.768526
1164.951706,8041.861327,-7352.558928,8501.396260
1164.952006,8041.861327,-1914.728887,7658.915550
1164.952307,4901.705952,2757.209598,7275.969772
1164.952607,612.713244,6050.543284,9420.466126
1164.952907,-4748.527641,7122.791461,12101.086569
1164.953208,-5284.651729,10569.303459,10952.249236
1164.953508,-4748.527641,9114.109504,10339.535992
1164.953809,-5897.364973,6356.899906,11794.729947
1164.954127,-4135.814397,-0.000000,12560.621502
1164.954423,-3676.279464,-3752.868619,12177.675724
1164.954719,2144.496354,-7352.558928,10722.481770
1164.955015,765.891555,-13403.102212,11411.784169
1164.955311,3752.868619,-13862.637145,9650.233593
1164.955607,7735.504705,-10492.714303,8577.985416
1164.955904,8041.861327,-8424.807105,7888.683016
1164.956200,6127.132440,-3293.333686,8654.574571
1164.956517,3140.155375,1684.961421,9267.287815
1164.956816,1838.139732,6356.899906,7275.969772
1164.957114,-3523.101153,8654.574571,9956.590215
1164.957413,-8577.985416,7735.504705,11718.140791
1164.957711,-10645.892614,6816.434839,12943.567279
1164.958010,-8577.985416,6510.078217,13403.102212
1164.958309,-4825.116796,3982.636086,12407.443191
1164.958607,-4135.814397,-536.124088,12943.567279
1164.958907,5361.240885,-2221.085509,10875.660081
1164.959204,7735.504705,-5667.597507,9803.411904
1164.959500,10262.946837,-9037.520349,8960.931193
1164.959797,9497.055282,-10952.249236,8960.931193
1164.960094,4901.705952,-8884.342038,9956.590215
1164.960390,6280.310751,-4212.403552,7735.504705
1164.960687,-2221.085509,-689.302399,8654.574571
1164.960984,-3982.636086,3829.457775,10262.946837
1164.961314,-9880.001059,6510.078217,11641.551636
1164.961611,-12101.086569,8195.039638,12407.443191
1164.961908,-8884.342038,8348.217949,12330.854035
1164.962205,-10645.892614,6050.543284,15011.474478
1164.962502,-4825.116796,2450.852976,13709.458834
1164.962799,1531.783110,919.069866,10339.535992
1164.963096,9267.287815,-3599.690308,8807.752882
1164.963393,9803.411904,-10033.179370,8424.807105
1164.963701,9267.287815,-12484.032346,8654.574571
1164.964001,10569.303459,-11411.784169,8041.861327
1164.964300,7275.969772,-8118.450483,8348.217949
1164.964600,919.069866,-6127.132440,8195.039638
1164.964900,-3829.457775,153.178311,8348.217949
1164.965200,-6510.078217,4595.349330,10109.768526
1164.965500,-12101.086569,4978.295107,12790.388968
1164.965799,-13020.156435,4978.295107,15241.241944
1164.966083,-8424.807105,6663.256528,12407.443191
1164.966387,-3676.279464,7582.326394,11488.373325
1164.966692,306.356622,3676.279464,11182.016703
1164.966997,6280.310751,1531.783110,9420.466126
1164.967302,11028.838392,-229.767466,9267.287815
1164.967607,11182.016703,-5820.775818,7582.326394
1164.967911,7275.969772,-10645.892614,8654.574571
1164.968216,5208.062574,-11718.140791,10186.357681
1164.968533,2297.674665,-10033.179370,9573.644437
1164.968831,-1455.193954,-5973.954129,9573.644437
1164.969128,-2450.852976,-0.000000,9420.466126
1164.969426,-7199.380617,5437.830040,12254.264880
1164.969723,-7658.915550,9114.109504,12024.497413
1164.970020,-8577.985416,10262.946837,12560.621502
1164.970318,-9037.520349,9803.411904,14628.528700
1164.970615,-5591.008351,7888.683016,13249.923901
1164.970905,-2450.852976,3523.101153,12407.443191
1164.971201,7735.504705,765.891555,9114.109504
1164.971497,7888.683016,-4825.116796,9803.411904
1164.971792,6433.489062,-9726.822748,9956.590215
1164.972088,5361.240885,-10799.070925,10492.714303
1164.972384,3446.511997,-8424.807105,10416.125148
1164.972680,153.178311,-5514.419196,8501.396260
1164.972976,-5284.651729,-3752.868619,9956.590215
1164.973285,-2221.085509,3523.101153,9114.109504
1164.973583,-3676.279464,5744.186662,10569.303459
1164.973882,-4288.992708,6203.721595,12101.086569
1164.974181,-1608.372265,7888.683016,11028.838392
1164.974479,-2221.085509,7735.504705,11641.551636
1164.974778,-842.480710,2910.387909,10492.714303
1164.975076,-3523.101153,153.178311,11335.195014
1164.975375,2680.620442,-2833.798753,9267.287815
1164.975682,2374.263820,-8577.985416,9650.233593
1164.975982,1684.961421,-13249.923901,10416.125148
1164.976283,4518.760174,-12637.210657,9420.466126
1164.976583,2374.263820,-10492.714303,9190.698660
1164.976884,3752.868619,-7658.915550,7429.148083
1164.977184,-229.767466,-1148.837332,9114.109504
1164.977485,-1608.372265,4748.527641,9573.644437
1164.977785,-3829.457775,6969.613150,10109.768526
1164.978082,-6203.721595,8041.861327,12713.799813
1164.978382,-689.302399,9114.109504,11718.140791
1164.978681,-1148.837332,7275.969772,11335.195014
1164.978981,-1761.550576,4595.349330,11488.373325
1164.979280,4212.403552,2450.852976,9420.466126
1164.979580,2833.798753,-2833.798753,9573.644437
1164.979879,1838.139732,-7046.202306,11258.605858
1164.980179,-689.302399,-10492.714303,12254.264880
1164.980474,1072.248177,-9650.233593,10875.660081
1164.980774,1531.783110,-7658.915550,9573.644437
1164.981074,153.178311,-5054.884263,9803.411904
1164.981374,2144.496354,612.713244,9267.287815
1164.981675,306.356622,3982.636086,9803.411904
1164.981975,-1302.015643,5284.651729,9956.590215
1164.982275,-4748.527641,6356.899906,11335.195014
1164.982575,-6663.256528,6050.543284,13709.458834
1164.982887,-7122.791461,3676.279464,13249.923901
1164.983184,-7352.558928,306.356622,12713.799813
1164.983482,1838.139732,-0.000000,10262.946837
1164.983779,2680.620442,-5208.062574,10262.946837
1164.984077,5208.062574,-8577.985416,9803.411904
1164.984374,8195.039638,-7812.093861,8884.342038
1164.984671,6893.023995,-6127.132440,9114.109504
1164.984969,5973.954129,-4365.581863,8195.039638
1164.985278,-1914.728887,-2833.798753,9650.233593
1164.985577,-1302.015643,1838.139732,8501.396260
1164.985877,-4442.171019,2450.852976,9803.411904
1164.986176,-7122.791461,1072.248177,12560.621502
1164.986475,-3063.566220,3216.744531,12790.388968
1164.986775,-3829.457775,3676.279464,13249.923901
1164.987074,-689.302399,4595.349330,10569.303459
1164.987374,-995.659021,1838.139732,9803.411904
1164.987681,-689.302399,-1302.015643,10722.481770
1164.987979,-536.124088,-4671.938485,10186.357681
1164.988277,2833.798753,-7812.093861,9573.644437
1164.988575,6127.132440,-8731.163727,10416.125148
1164.988873,6739.845684,-7965.272172,10875.660081
1164.989171,8807.752882,-3446.511997,8654.574571
1164.989469,7888.683016,3063.566220,5897.364973
1164.989768,2986.977064,3982.636086,7735.504705
1164.990084,-6816.434839,4288.992708,12943.567279
1164.990382,-10492.714303,4825.116796,13786.047990
1164.990681,-6969.613150,7429.148083,11182.016703
1164.990979,-8271.628794,3369.922842,14322.172078
1164.991278,-7658.915550,306.356622,14015.815456
1164.991576,1991.318043,1225.426488,10875.660081
1164.991875,6586.667373,-842.480710,9037.520349
1164.992173,7046.202306,-6586.667373,9267.287815
1164.992488,1838.139732,-9726.822748,12407.443191
1164.992786,2297.674665,-8118.450483,9650.233593
1164.993085,1531.783110,-4825.116796,8884.342038
1164.993384,-4135.814397,-3446.511997,10109.768526
1164.993682,-3982.636086,-689.302399,10262.946837
1164.993981,-4825.116796,3216.744531,10569.303459
1164.994280,-382.945777,6510.078217,8118.450483
1164.994578,-382.945777,5744.186662,9267.287815
1164.994866,-1455.193954,4135.814397,11488.373325
1164.995167,-842.480710,1225.426488,12713.799813
1164.995468,-3829.457775,-3140.155375,11488.373325
1164.995769,2527.442131,-3140.155375,9803.411904
1164.996070,2297.674665,-6893.023995,10262.946837
1164.996370,4059.225241,-9726.822748,8501.396260
1164.996671,8041.861327,-9190.698660,8041.861327
1164.996972,4365.581863,-7352.558928,9650.233593
1164.997272,4365.581863,-4825.116796,9420.466126
1164.997571,-2067.907198,-1455.193954,10569.303459
1164.997870,-689.302399,3829.457775,9114.109504
1164.998169,-6510.078217,6050.543284,10569.303459
1164.998469,-10492.714303,4978.295107,12024.497413
1164.998768,-8424.807105,4825.116796,12560.621502
1164.999067,-7122.791461,4748.527641,13403.102212
1164.999366,-689.302399,3523.101153,11335.195014
1164.999673,2144.496354,2757.209598,11564.962480
1164.999972,8501.396260,-76.589155,10569.303459
1165.000272,10262.946837,-2067.907198,8960.931193
1165.000571,7275.969772,-3752.868619,10262.946837
1165.000870,6127.132440,-5054.884263,10033.179370
1165.001169,612.713244,-5514.419196,11488.373325
1165.001469,-1914.728887,-2374.263820,9803.411904
1165.001768,-3063.566220,612.713244,8501.396260
1165.002088,-6203.721595,153.178311,10645.892614
1165.002385,-5897.364973,2450.852976,12330.854035
1165.002682,-4978.295107,2297.674665,12101.086569
1165.002980,-2067.907198,3523.101153,11182.016703
1165.003277,-3216.744531,1991.318043,14015.815456
1165.003574,-2067.907198,612.713244,12560.621502
1165.003871,2680.620442,1991.318043,9420.466126
1165.004168,2680.620442,-229.767466,9267.287815
1165.004486,1378.604799,-6127.132440,10186.357681
1165.004785,-1148.837332,-9190.698660,11028.838392
1165.005083,4059.225241,-8271.628794,8960.931193
1165.005381,3293.333686,-7505.737239,8118.450483
1165.005679,-689.302399,-7046.202306,9190.698660
1165.005977,1225.426488,-1914.728887,8501.396260
1165.006276,-382.945777,2757.209598,8807.752882
1165.006574,-1302.015643,2297.674665,9497.055282
1165.006887,-5437.830040,459.534933,11335.195014
1165.007183,-2450.852976,1225.426488,11258.605858
1165.007479,-76.589155,1531.783110,11488.373325
1165.007775,-1914.728887,-2067.907198,11105.427547
1165.008071,5361.240885,-1302.015643,9420.466126
1165.008367,5361.240885,-1761.550576,9573.644437
1165.008663,5208.062574,-3599.690308,9114.109504
1165.008959,3140.155375,-5054.884263,10109.768526
1165.009258,1531.783110,-2986.977064,10339.535992
1165.009559,-536.124088,-2527.442131,10262.946837
1165.009860,-4978.295107,-2067.907198,10952.249236
1165.010161,-3369.922842,1838.139732,10109.768526
1165.010461,-3676.279464,4288.992708,10722.481770
1165.010762,-4748.527641,4442.171019,11564.962480
1165.011063,-3523.101153,3676.279464,12560.621502
1165.011363,-1608.372265,3676.279464,14322.172078
1165.011670,459.534933,3829.457775,12024.497413
1165.011967,1378.604799,1684.961421,10722.481770
1165.012264,5973.954129,-0.000000,9190.698660
1165.012561,6127.132440,-2833.798753,8501.396260
1165.012858,2527.442131,-5820.775818,10569.303459
1165.013155,2986.977064,-5361.240885,10875.660081
1165.013452,-1302.015643,-4212.403552,11794.729947
1165.013749,-1608.372265,-1302.015643,10109.768526
1165.014057,-3676.279464,1838.139732,9573.644437
1165.014356,-3369.922842,4595.349330,9650.233593
1165.014655,-5591.008351,3523.101153,10875.660081
1165.014954,-5897.364973,2144.496354,12177.675724
1165.015253,-995.659021,1991.318043,12560.621502
1165.015552,-382.945777,-1302.015643,12560.621502
1165.015851,5208.062574,-2067.907198,8501.396260
1165.016150,5973.954129,-2680.620442,7429.148083
1165.016466,3140.155375,-6586.667373,10109.768526
1165.016765,-1302.015643,-9037.520349,11641.551636
1165.017063,919.069866,-6127.132440,9650.233593
1165.017362,4748.527641,-4825.116796,6586.667373
1165.017660,765.891555,-4212.403552,9803.411904
1165.017958,-3523.101153,-3140.155375,11028.838392
1165.018257,765.891555,3369.922842,8195.039638
1165.018555,-995.659021,5284.651729,9956.590215
1165.018873,-4442.171019,3063.566220,11794.729947
1165.019170,-7965.272172,1531.783110,14475.350389
1165.019468,-2067.907198,4825.116796,11641.551636
1165.019766,1531.783110,2604.031287,9190.698660
1165.020064,-382.945777,-2374.263820,11182.016703
1165.020361,3752.868619,-1302.015643,11488.373325
1165.020659,4748.527641,-2527.442131,10875.660081
1165.020957,7275.969772,-4365.581863,8654.574571
1165.021257,3140.155375,-5820.775818,11028.838392
1165.021557,919.069866,-3446.511997,12254.264880
1165.021856,306.356622,1378.604799,9420.466126
1165.022156,-1455.193954,4288.992708,8195.039638
1165.022455,-536.124088,5437.830040,9037.520349
1165.022755,-5284.651729,2910.387909,13096.745590
1165.023054,-4595.349330,2910.387909,11641.551636
1165.023354,-382.945777,3676.279464,9880.001059
1165.023644,-2910.387909,612.713244,12560.621502
1165.023946,-6356.899906,-4825.116796,14015.815456
1165.024247,-5591.008351,-5973.954129,13709.458834
1165.024548,306.356622,-5514.419196,8807.752882
1165.024849,1378.604799,-8271.628794,9420.466126
1165.025151,612.713244,-10033.179370,11182.016703
1165.025452,6433.489062,-5208.062574,9573.644437
1165.025753,6586.667373,-1302.015643,8195.039638
1165.026060,5208.062574,1684.961421,8654.574571
1165.026357,765.891555,5131.473418,8348.217949
1165.026655,459.534933,7735.504705,7658.915550
1165.026952,-4825.116796,5744.186662,8577.985416
1165.027249,-9037.520349,1072.248177,11488.373325
1165.027546,-6050.543284,-1302.015643,13939.226301
1165.027843,-2450.852976,-1914.728887,12713.799813
1165.028141,2144.496354,-3752.868619,10492.714303
1165.028470,2527.442131,-5667.597507,11182.016703
1165.028767,6127.132440,-5514.419196,9956.590215
1165.029063,6433.489062,-4212.403552,8654.574571
1165.029359,4365.581863,-4365.581863,8195.039638
1165.029656,1684.961421,-2986.977064,9573.644437
1165.029952,-689.302399,-1148.837332,11258.605858
1165.030248,306.356622,4135.814397,9650.233593
1165.030545,1378.604799,8654.574571,8041.861327
1165.030839,-1148.837332,8501.396260,10416.125148
1165.031140,-5284.651729,7275.969772,12790.388968
1165.031441,-6050.543284,6203.721595,12407.443191
1165.031742,-5897.364973,4748.527641,13173.334746
1165.032043,-9190.698660,-1608.372265,14628.528700
1165.032344,-6203.721595,-5514.419196,13939.226301
1165.032645,5973.954129,-3446.511997,10109.768526
1165.032945,12637.210657,-4901.705952,7582.326394
1165.033257,11641.551636,-8577.985416,8654.574571
1165.033555,8807.752882,-7199.380617,10109.768526
1165.033852,8807.752882,-1302.015643,8271.628794
1165.034149,2986.977064,2910.387909,7658.915550
1165.034447,-9573.644437,1684.961421,11028.838392
1165.034744,-10952.249236,4748.527641,11718.140791
1165.035042,-11871.319102,6816.434839,11794.729947
1165.035339,-9726.822748,4595.349330,10799.070925
1165.035648,-9497.055282,-536.124088,13862.637145
1165.035947,-6663.256528,-4212.403552,15700.776877
1165.036245,2144.496354,-4212.403552,11028.838392
1165.036544,4518.760174,-5973.954129,9190.698660
1165.036842,9650.233593,-7965.272172,7582.326394
1165.037141,10569.303459,-9343.876971,7275.969772
1165.037439,9267.287815,-9190.698660,7582.326394
1165.037738,10109.768526,-7658.915550,5667.597507
1165.038045,2527.442131,-6280.310751,9956.590215
1165.038344,-536.124088,-3293.333686,10416.125148
1165.038644,-4442.171019,1531.783110,10262.946837
1165.038944,-5591.008351,7582.326394,10109.768526
1165.039243,-9497.055282,7275.969772,9726.822748
1165.039543,-11718.140791,5437.830040,14781.707011
1165.039843,-6203.721595,6050.543284,13096.745590
1165.040142,-3216.744531,3369.922842,12943.567279
1165.040439,1838.139732,-536.124088,12943.567279
1165.040739,8195.039638,-3140.155375,9803.411904
1165.041038,14168.993767,-2833.798753,8348.217949
1165.041338,12330.854035,-4825.116796,7352.558928
1165.041637,5820.775818,-5973.954129,9573.644437
1165.041937,2297.674665,-4825.116796,11028.838392
1165.042236,-2604.031287,-1148.837332,10262.946837
1165.042536,-6969.613150,1684.961421,10722.481770
1165.042863,-9037.520349,6969.613150,12254.264880
1165.043162,-7199.380617,9267.287815,11335.195014
1165.043461,-3676.279464,10262.946837,9803.411904
1165.043760,-5897.364973,8960.931193,12330.854035
1165.044059,-4288.992708,4442.171019,14475.350389
1165.044357,-3216.744531,-689.302399,13096.745590
1165.044656,2374.263820,-689.302399,9114.109504
1165.044955,5973.954129,-4901.705952,7735.504705
1165.045243,2527.442131,-11105.427547,11564.962480
1165.045544,3599.690308,-12024.497413,11794.729947
1165.045845,8501.396260,-8884.342038,7658.915550
1165.046145,8041.861327,-4901.705952,7735.504705
1165.046446,612.713244,-4671.938485,10416.125148
1165.046747,-4135.814397,-229.767466,10416.125148
1165.047048,-2374.263820,7582.326394,8348.217949
1165.047349,-6356.899906,9956.590215,8424.807105
1165.047658,-11947.908258,3676.279464,12943.567279
1165.047956,-11105.427547,1684.961421,14168.993767
1165.048255,-2604.031287,3063.566220,11794.729947
1165.048554,1378.604799,-536.124088,10109.768526
1165.048852,2297.674665,-6893.023995,10952.249236
1165.049151,9267.287815,-7352.558928,10186.357681
1165.049450,11028.838392,-8118.450483,7735.504705
1165.049748,8041.861327,-10033.179370,8041.861327
1165.050056,4365.581863,-10952.249236,10569.303459
1165.050354,3446.511997,-6586.667373,10492.714303
1165.050652,3599.690308,765.891555,9114.109504
1165.050950,-995.659021,4595.349330,8195.039638
1165.051248,-3829.457775,8654.574571,11258.605858
1165.051546,-7505.737239,9956.590215,12790.388968
1165.051844,-9343.876971,11641.551636,12407.443191
1165.052143,-7965.272172,11182.016703,10875.660081
1165.052459,-12407.443191,5131.473418,13173.334746
1165.052757,-11947.908258,-1761.550576,14628.528700
1165.053056,-3676.279464,-5973.954129,14168.993767
1165.053354,7582.326394,-6893.023995,9343.876971
1165.053653,15317.831100,-11258.605858,7352.558928
1165.053951,16390.079277,-11871.319102,8807.752882
1165.054249,17232.559987,-8424.807105,6663.256528
1165.054548,8501.396260,-5054.884263,7735.504705
1165.054862,-382.945777,-2374.263820,8960.931193
1165.055161,-6203.721595,2144.496354,10416.125148
1165.055460,-10492.714303,6050.543284,11182.016703
1165.055758,-11105.427547,10262.946837,10952.249236
1165.056057,-13326.513057,9267.287815,12407.443191
1165.056356,-11718.140791,6050.543284,15088.063633
1165.056654,-9190.698660,3063.566220,15088.063633
1165.056953,-1914.728887,1531.783110,11335.195014
1165.057241,4518.760174,-689.302399,9573.644437
1165.057541,6127.132440,-7812.093861,10262.946837
1165.057841,9956.590215,-11105.427547,8501.396260
1165.058141,12177.675724,-10645.892614,8960.931193
1165.058441,14398.761234,-10033.179370,8118.450483
1165.058741,8195.039638,-8577.985416,8041.861327
1165.059041,6433.489062,-536.124088,5973.954129
1165.059341,3293.333686,4442.171019,5667.597507
1165.059640,-9573.644437,4978.295107,12330.854035
1165.059939,-14781.707011,5284.651729,13939.226301
1165.060239,-14475.350389,10569.303459,12790.388968
1165.060538,-10645.892614,10109.768526,13096.745590
1165.060837,-8884.342038,4595.349330,15853.955188
1165.061136,-4978.295107,1838.139732,14781.707011
1165.061436,10416.125148,3216.744531,8654.574571
1165.061735,11028.838392,-2527.442131,7735.504705
1165.062042,8348.217949,-10339.535992,10569.303459
1165.062341,5667.597507,-12484.032346,11794.729947
1165.062640,7275.969772,-7812.093861,7735.504705
1165.062940,4059.225241,-5514.419196,6586.667373
1165.063239,-2604.031287,-3906.046930,10033.179370
1165.063538,-2374.263820,2604.031287,10109.768526
1165.063837,-1608.372265,9114.109504,8654.574571
1165.064137,-4748.527641,9650.233593,9497.055282
1165.064457,-7812.093861,6663.256528,12637.210657
1165.064757,-11105.427547,4442.171019,15930.544344
1165.065058,-5437.830040,2757.209598,13096.745590
1165.065358,-3982.636086,-536.124088,11028.838392
1165.065659,1225.426488,-5820.775818,11794.729947
1165.065959,3752.868619,-10645.892614,11641.551636
1165.066259,9956.590215,-9726.822748,8884.342038
1165.066560,12330.854035,-7812.093861,5208.062574
1165.066833,5361.240885,-9343.876971,7429.148083
1165.067133,-1761.550576,-9190.698660,10262.946837
1165.067433,-3063.566220,-2986.977064,10416.125148
1165.067733,-2450.852976,3829.457775,8348.217949
1165.068033,-2604.031287,6356.899906,7275.969772
1165.068333,-6663.256528,4748.527641,12101.086569
1165.068633,-1914.728887,6203.721595,11488.373325
1165.068933,-1455.193954,7122.791461,11641.551636
1165.069250,-1761.550576,2450.852976,11564.962480
1165.069545,-76.589155,-1761.550576,11947.908258
1165.069841,919.069866,-4518.760174,12101.086569
1165.070136,2144.496354,-6433.489062,10262.946837
1165.070431,-689.302399,-9343.876971,10722.481770
1165.070726,2986.977064,-9190.698660,11641.551636
1165.071022,5514.419196,-5667.597507,9114.109504
1165.071317,6893.023995,-76.589155,5820.775818
1165.071617,5054.884263,3829.457775,8118.450483
1165.071917,-1148.837332,5437.830040,10416.125148
1165.072218,-3829.457775,7888.683016,10186.357681
1165.072519,-5897.364973,10262.946837,12560.621502
1165.072820,-6203.721595,8960.931193,13403.102212
1165.073121,-6816.434839,4978.295107,14015.815456
1165.073421,-5131.473418,2450.852976,11718.140791
1165.073722,3599.690308,306.356622,9267.287815
1165.074063,919.069866,-7046.202306,12560.621502
1165.074359,1838.139732,-12330.854035,12560.621502
1165.074655,4901.705952,-9880.001059,9573.644437
1165.074951,6586.667373,-7199.380617,8807.752882
1165.075247,3140.155375,-4901.705952,8960.931193
1165.075543,-689.302399,-2986.977064,10109.768526
1165.075840,765.891555,2757.209598,7735.504705
1165.076136,-995.659021,5744.186662,7888.683016
1165.076381,-6816.434839,3369.922842,11794.729947
1165.076686,-6510.078217,2757.209598,13939.226301
1165.076991,-4135.814397,4442.171019,12943.567279
1165.077295,-382.945777,2910.387909,9267.287815
1165.077600,-3063.566220,-1761.550576,10875.660081
1165.077905,-842.480710,-6127.132440,12790.388968
1165.078210,1684.961421,-9650.233593,9956.590215
1165.078514,4059.225241,-10186.357681,8807.752882
1165.078831,4901.705952,-11258.605858,9420.466126
1165.079130,2833.798753,-11564.962480,10492.714303
1165.079430,4671.938485,-5054.884263,8424.807105
1165.079729,4059.225241,1684.961421,6433.489062
1165.080028,765.891555,3369.922842,8501.396260
1165.080327,-4442.171019,4288.992708,12713.799813
1165.080626,-3982.636086,5591.008351,11794.729947
1165.080926,-382.945777,9114.109504,9420.466126
1165.081243,-3523.101153,6663.256528,11411.784169
1165.081541,-5284.651729,919.069866,13096.745590
1165.081839,-2067.907198,1225.426488,12560.621502
1165.082136,1991.318043,459.534933,9573.644437
1165.082434,153.178311,-3140.155375,9803.411904
1165.082732,-229.767466,-9343.876971,13096.745590
1165.083030,2144.496354,-8118.450483,11947.908258
1165.083328,4212.403552,-5208.062574,9267.287815
1165.083627,2527.442131,-2986.977064,8654.574571
1165.083927,3906.046930,459.534933,8195.039638
1165.084226,1991.318043,3523.101153,9956.590215
1165.084525,-229.767466,5284.651729,9420.466126
1165.084824,-4135.814397,6203.721595,10875.660081
1165.085123,-6203.721595,5284.651729,12101.086569
1165.085422,-6510.078217,2604.031287,12943.567279
1165.085722,-6510.078217,765.891555,12177.675724
1165.086035,-536.124088,1225.426488,10875.660081
1165.086331,-0.000000,-3906.046930,11028.838392
1165.086626,2144.496354,-7965.272172,10722.481770
1165.086922,3599.690308,-8884.342038,11488.373325
1165.087217,4901.705952,-7658.915550,10569.303459
1165.087512,4059.225241,-5667.597507,9803.411904
1165.087808,4365.581863,-2067.907198,6356.899906
1165.088103,2986.977064,-76.589155,7582.326394
1165.088410,-1455.193954,765.891555,10262.946837
1165.088711,-3982.636086,1991.318043,10799.070925
1165.089011,-2067.907198,4595.349330,10722.481770
1165.089312,-4748.527641,3829.457775,11794.729947
1165.089612,-4978.295107,1531.783110,12637.210657
1165.089913,-4442.171019,-0.000000,11794.729947
1165.090214,1531.783110,-0.000000,9267.287815
1165.090514,1531.783110,-4825.116796,10262.946837
1165.090811,765.891555,-9343.876971,12407.443191
1165.091111,5973.954129,-8271.628794,10875.660081
1165.091411,7275.969772,-4901.705952,9190.698660
1165.091712,5820.775818,-3140.155375,8118.450483
1165.092012,306.356622,-76.589155,9650.233593
1165.092312,-842.480710,4825.116796,9956.590215
1165.092613,-2221.085509,7888.683016,9114.109504
1165.092913,-5591.008351,7429.148083,10109.768526
1165.093208,-4442.171019,6510.078217,12560.621502
1165.093509,-4978.295107,4135.814397,14015.815456
1165.093810,-536.124088,1378.604799,10952.249236
1165.094111,459.534933,-76.589155,10339.535992
1165.094411,1531.783110,-5208.062574,11794.729947
1165.094712,765.891555,-7812.093861,11028.838392
1165.095013,2986.977064,-7658.915550,10262.946837
1165.095314,4901.705952,-4518.760174,8118.450483
1165.095602,1378.604799,-3906.046930,8960.931193
1165.095903,-1608.372265,-3599.690308,10109.768526
1165.096204,-2067.907198,765.891555,10722.481770
1165.096505,-2067.907198,4442.171019,8501.396260
1165.096805,-4595.349330,3982.636086,9114.109504
1165.097106,-6969.613150,1684.961421,12790.388968
1165.097407,-3216.744531,2910.387909,12943.567279
1165.097708,-2067.907198,3523.101153,11335.195014
1165.098040,-382.945777,-76.589155,10109.768526
1165.098335,4212.403552,-2067.907198,10109.768526
1165.098629,4901.705952,-4212.403552,10033.179370
1165.098924,6280.310751,-6433.489062,7582.326394
1165.099218,3906.046930,-7965.272172,9267.287815
1165.099512,765.891555,-9037.520349,11641.551636
1165.099807,-229.767466,-7352.558928,10569.303459
1165.100101,-1302.015643,-2986.977064,9573.644437
1165.100408,-1148.837332,1991.318043,9573.644437
1165.100708,-2757.209598,3523.101153,11028.838392
1165.101008,-2757.209598,5437.830040,11947.908258
1165.101307,-995.659021,8041.861327,11182.016703
1165.101607,-1761.550576,6203.721595,12560.621502
1165.101907,-1914.728887,2450.852976,12713.799813
1165.102206,1991.318043,2757.209598,9497.055282
1165.102506,4365.581863,-0.000000,8654.574571
1165.102802,-382.945777,-5820.775818,11718.140791
1165.103105,-2221.085509,-7199.380617,12943.567279
1165.103408,2374.263820,-4825.116796,10262.946837
1165.103711,1838.139732,-1455.193954,10109.768526
1165.104014,-382.945777,-2374.263820,9956.590215
1165.104317,-3216.744531,-382.945777,10875.660081
1165.104620,-382.945777,4288.992708,9573.644437
1165.104922,-689.302399,3369.922842,8807.752882
1165.105217,-3676.279464,-229.767466,12713.799813
1165.105514,-1608.372265,-229.767466,12790.388968
1165.105811,-0.000000,1684.961421,11794.729947
1165.106108,2297.674665,1225.426488,9420.466126
1165.106404,-536.124088,-842.480710,10722.481770
1165.106701,-229.767466,-2527.442131,11641.551636
1165.106998,459.534933,-3599.690308,8501.396260
1165.107295,153.178311,-4825.116796,9114.109504
1165.107607,1531.783110,-6586.667373,9803.411904
1165.107906,-842.480710,-6127.132440,11182.016703
1165.108205,153.178311,-4365.581863,9420.466126
1165.108504,1531.783110,-0.000000,8271.628794
1165.108803,765.891555,306.356622,9880.001059
1165.109102,-0.000000,765.891555,10109.768526
1165.109401,-1148.837332,-76.589155,11641.551636
1165.109700,1225.426488,1072.248177,8960.931193
1165.109988,459.534933,153.178311,10262.946837
1165.110290,-3676.279464,-4059.225241,12637.210657
1165.110591,-2374.263820,-4212.403552,11411.784169
1165.110893,-842.480710,-2374.263820,11182.016703
1165.111194,919.069866,-1914.728887,8654.574571
1165.111496,1838.139732,-2680.620442,9803.411904
1165.111797,2144.496354,-2067.907198,10952.249236
1165.112098,2297.674665,2144.496354,9803.411904
1165.112405,-0.000000,3523.101153,10262.946837
1165.112706,1225.426488,4595.349330,9573.644437
1165.113007,-382.945777,4825.116796,11258.605858
1165.113308,-3216.744531,2910.387909,10875.660081
1165.113608,-3982.636086,1225.426488,11028.838392
1165.113909,-6356.899906,-1608.372265,14705.117856
1165.114210,-4442.171019,-3140.155375,12637.210657
1165.114510,-995.659021,-2986.977064,11641.551636
1165.114827,4518.760174,-382.945777,10186.357681
1165.115124,6127.132440,-1455.193954,9114.109504
1165.115421,6739.845684,-1148.837332,9650.233593
1165.115718,6739.845684,-76.589155,9573.644437
1165.116015,2680.620442,-76.589155,10033.179370
1165.116312,-229.767466,153.178311,10109.768526
1165.116609,-2757.209598,1684.961421,8654.574571
1165.116906,-3676.279464,1072.248177,9956.590215
1165.117224,-9497.055282,-2067.907198,13249.923901
1165.117523,-9190.698660,-1914.728887,12560.621502
1165.117821,-2450.852976,-689.302399,10875.660081
1165.118119,-2374.263820,-842.480710,11488.373325
1165.118417,-1455.193954,-3293.333686,11488.373325
1165.118715,1838.139732,-2067.907198,10875.660081
1165.119013,6739.845684,-1302.015643,7505.737239
1165.119312,6127.132440,-4671.938485,7122.791461
1165.119625,3293.333686,-7965.272172,10416.125148
1165.119921,4365.581863,-6586.667373,10186.357681
1165.120217,4365.581863,-2527.442131,8348.217949
1165.120513,153.178311,765.891555,9803.411904
1165.120809,-995.659021,3216.744531,10722.481770
1165.121105,-3676.279464,5591.008351,11564.962480
1165.121401,-2757.209598,6510.078217,9650.233593
1165.121697,-4978.295107,4442.171019,10569.303459
1165.121985,-6663.256528,1072.248177,12560.621502
1165.122287,-4595.349330,-3446.511997,13326.513057
1165.122588,-2757.209598,-3599.690308,11028.838392
1165.122890,3140.155375,-2680.620442,11105.427547
1165.123192,3140.155375,-4365.581863,10569.303459
1165.123494,5973.954129,-3752.868619,8960.931193
1165.123796,7582.326394,-1608.372265,9803.411904
1165.124097,5667.597507,153.178311,8195.039638
1165.124405,612.713244,1072.248177,9956.590215
1165.124701,-995.659021,1991.318043,9803.411904
1165.124998,-1608.372265,4288.992708,9420.466126
1165.125295,-3063.566220,3982.636086,10722.481770
1165.125592,-4825.116796,1072.248177,10492.714303
1165.125889,-5591.008351,-536.124088,13862.637145
1165.126186,-4825.116796,-2527.442131,13249.923901
1165.126483,-4442.171019,-3752.868619,12713.799813
1165.126797,-3523.101153,-3599.690308,11488.373325
1165.127099,1838.139732,-3293.333686,9956.590215
1165.127402,1991.318043,-3140.155375,9726.822748
1165.127705,3906.046930,-2986.977064,8501.396260
1165.128008,4059.225241,-2221.085509,9267.287815
1165.128310,3446.511997,-2067.907198,9573.644437
1165.128613,2297.674665,765.891555,8960.931193
1165.128916,2527.442131,3829.457775,7812.093861
1165.129189,919.069866,4595.349330,9267.287815
1165.129492,-3369.922842,2144.496354,10645.892614
1165.129794,-6663.256528,-229.767466,12484.032346
1165.130097,-6816.434839,-1914.728887,12560.621502
1165.130399,-6356.899906,-2833.798753,13173.334746
1165.130702,-3676.279464,-5514.419196,12254.264880
1165.131004,-842.480710,-7046.202306,11028.838392
1165.131307,7429.148083,-5054.884263,10416.125148
1165.131624,9497.055282,-3293.333686,7275.969772
1165.131919,8041.861327,-3446.511997,10109.768526
1165.132213,6739.845684,-229.767466,9343.876971
1165.132508,4671.938485,4978.295107,8884.342038
1165.132802,765.891555,7122.791461,7812.093861
1165.133097,-2757.209598,8807.752882,9420.466126
1165.133391,-7199.380617,8654.574571,13403.102212
1165.133686,-7199.380617,6816.434839,10262.946837
1165.133986,-9497.055282,2910.387909,12943.567279
1165.134286,-8884.342038,-3599.690308,16236.900966
1165.134586,-5744.186662,-5820.775818,14475.350389
1165.134886,-842.480710,-5820.775818,11028.838392
1165.135186,5667.597507,-5973.954129,9190.698660
1165.135486,6739.845684,-8271.628794,10875.660081
1165.135786,10109.768526,-4825.116796,9573.644437
1165.136086,11028.838392,-1148.837332,5973.954129
1165.136376,8501.396260,612.713244,6280.310751
1165.136679,1225.426488,765.891555,10109.768526
1165.136981,-3982.636086,4135.814397,9573.644437
1165.137284,-2374.263820,9114.109504,9420.466126
1165.137587,-9497.055282,6203.721595,11794.729947
1165.137889,-11258.605858,3523.101153,12101.086569
1165.138192,-11105.427547,1531.783110,14628.528700
1165.138495,-6816.434839,-536.124088,11947.908258
1165.138802,-1914.728887,-4671.938485,10722.481770
1165.139102,306.356622,-8731.163727,10722.481770
1165.139402,5973.954129,-11258.605858,10033.179370
1165.139702,8654.574571,-11258.605858,9650.233593
1165.140002,10722.481770,-9190.698660,6969.613150
1165.140302,9267.287815,-6280.310751,7582.326394
1165.140601,5667.597507,-3752.868619,9114.109504
1165.140901,612.713244,2297.674665,9803.411904
1165.141185,-1302.015643,8041.861327,8884.342038
1165.141487,-2374.263820,9803.411904,9114.109504
1165.141790,-7965.272172,7275.969772,13249.923901
1165.142093,-9573.644437,5591.008351,12790.388968
1165.142396,-7965.272172,4288.992708,13862.637145
1165.142699,-7505.737239,765.891555,14168.993767
1165.143002,-4595.349330,-2833.798753,12713.799813
1165.143305,-229.767466,-4365.581863,13403.102212
1165.143586,7735.504705,-3752.868619,8654.574571
1165.143889,9803.411904,-4212.403552,8348.217949
1165.144192,9420.466126,-5208.062574,8577.985416
1165.144494,8195.039638,-4518.760174,8041.861327
1165.144797,6280.310751,-1455.193954,9114.109504
1165.145100,1225.426488,1072.248177,9803.411904
1165.145402,-842.480710,1991.318043,9956.590215
1165.145705,-2604.031287,4978.295107,10569.303459
1165.145983,-5131.473418,6969.613150,10492.714303
1165.146281,-9343.876971,2910.387909,12790.388968
1165.146578,-10645.892614,612.713244,15088.063633
1165.146876,-9037.520349,306.356622,13556.280523
1165.147173,-3523.101153,-0.000000,10569.303459
1165.147470,-0.000000,-2986.977064,10875.660081
1165.147768,2527.442131,-5054.884263,11028.838392
1165.148065,7582.326394,-5667.597507,7888.683016
1165.148379,9267.287815,-4825.116796,6586.667373
1165.148677,7429.148083,-6280.310751,9650.233593
1165.148975,3293.333686,-6127.132440,9956.590215
1165.149273,919.069866,-1761.550576,8807.752882
1165.149571,2144.496354,3676.279464,7046.202306
1165.149868,-3829.457775,3063.566220,10109.768526
1165.150166,-8577.985416,2450.852976,13020.156435
1165.150464,-6510.078217,3982.636086,12254.264880
1165.150771,-7122.791461,2297.674665,12560.621502
1165.151071,-6816.434839,-3293.333686,13173.334746
1165.151370,-4748.527641,-4518.760174,11335.195014
1165.151670,4671.938485,-4518.760174,9956.590215
1165.151970,6280.310751,-6586.667373,9956.590215
1165.152269,7275.969772,-7199.380617,9114.109504
1165.152569,10722.481770,-3906.046930,9420.466126
1165.152869,9114.109504,-1761.550576,10262.946837
1165.153165,5667.597507,1378.604799,8501.396260
1165.153465,2297.674665,6663.256528,7275.969772
1165.153764,-2757.209598,8960.931193,8807.752882
1165.154064,-9573.644437,5591.008351,12101.086569
1165.154364,-14245.582923,4135.814397,14245.582923
1165.154663,-9497.055282,4135.814397,12330.854035
1165.154963,-8731.163727,-0.000000,12330.854035
1165.155262,-4978.295107,-4671.938485,13096.745590
1165.155590,-0.000000,-5973.954129,12407.443191
1165.155885,9803.411904,-5667.597507,9803.411904
1165.156181,12790.388968,-7199.380617,7505.737239
1165.156476,10569.303459,-7505.737239,7888.683016
1165.156772,7122.791461,-6433.489062,9803.411904
1165.157067,2680.620442,-2986.977064,11182.016703
1165.157363,153.178311,3216.744531,7429.148083
1165.157658,-1761.550576,7735.504705,8041.861327
1165.157970,-7658.915550,8195.039638,10339.535992
1165.158271,-8884.342038,9267.287815,11947.908258
1165.158571,-8271.628794,7582.326394,11947.908258
1165.158872,-7658.915550,4442.171019,10875.660081
1165.159173,-7505.737239,-1761.550576,13709.458834
1165.159473,-3369.922842,-6280.310751,13096.745590
1165.159774,4901.705952,-7046.202306,10339.535992
1165.160075,8960.931193,-10339.535992,8501.396260
1165.160384,6893.023995,-14322.172078,9420.466126
1165.160680,5820.775818,-13862.637145,11028.838392
1165.160976,7046.202306,-7812.093861,10569.303459
1165.161272,4671.938485,-995.659021,8807.752882
1165.161568,-76.589155,3216.744531,7582.326394
1165.161864,-2604.031287,8195.039638,9650.233593
1165.162161,-3523.101153,12407.443191,10109.768526
1165.162457,-3063.566220,13326.513057,8960.931193
1165.162764,-5591.008351,10722.481770,11028.838392
1165.163063,-6969.613150,4595.349330,14628.528700
1165.163362,-4442.171019,-0.000000,14628.528700
1165.163660,-1455.193954,-2527.442131,11488.373325
1165.163959,5667.597507,-5208.062574,9726.822748
1165.164258,2680.620442,-10645.892614,12560.621502
1165.164557,5361.240885,-11411.784169,10339.535992
1165.164856,4748.527641,-9190.698660,8807.752882
1165.165172,3293.333686,-6433.489062,8731.163727
1165.165473,-995.659021,-5820.775818,10339.535992
1165.165774,-2757.209598,153.178311,10262.946837
1165.166075,-0.000000,7275.969772,8041.861327
1165.166376,-1302.015643,10416.125148,8807.752882
1165.166677,-3523.101153,9267.287815,10569.303459
1165.166978,-2374.263820,7888.683016,12560.621502
1165.167279,-842.480710,4825.116796,12943.567279
1165.167594,-536.124088,1991.318043,9650.233593
1165.167890,-689.302399,-1914.728887,11028.838392
1165.168186,-2221.085509,-7965.272172,13096.745590
1165.168482,-2221.085509,-11258.605858,12560.621502
1165.168779,-536.124088,-10645.892614,10109.768526
1165.169075,3599.690308,-8884.342038,8118.450483
1165.169371,1838.139732,-10799.070925,9650.233593
1165.169667,2986.977064,-5667.597507,9114.109504
1165.169956,6893.023995,2297.674665,5820.775818
1165.170256,4748.527641,4442.171019,7275.969772
1165.170555,919.069866,4748.527641,9420.466126
1165.170855,-3982.636086,3063.566220,12254.264880
1165.171155,-4288.992708,4442.171019,11028.838392
1165.171455,-7352.558928,1991.318043,13862.637145
1165.171755,-9573.644437,-2374.263820,14015.815456
1165.172055,-4135.814397,-2374.263820,12407.443191
1165.172355,1225.426488,-3293.333686,11718.140791
1165.172654,3906.046930,-4059.225241,8501.396260
1165.172953,3599.690308,-4518.760174,10722.481770
1165.173252,6586.667373,-4671.938485,10492.714303
1165.173552,6280.310751,-1302.015643,8731.163727
1165.173851,5361.240885,1378.604799,8807.752882
1165.174150,2374.263820,2757.209598,8424.807105
1165.174449,153.178311,5284.651729,9803.411904
1165.174757,-689.302399,6203.721595,8960.931193
1165.175057,-4748.527641,4595.349330,10799.070925
1165.175357,-9343.876971,1225.426488,15394.420255
1165.175657,-10339.535992,-1608.372265,15930.544344
1165.175957,-6510.078217,-1148.837332,12407.443191
1165.176257,765.891555,-689.302399,10416.125148
1165.176557,1531.783110,-4365.581863,10875.660081
1165.176857,3599.690308,-4901.705952,9956.590215
1165.177177,9267.287815,-2374.263820,7735.504705
1165.177478,7429.148083,-2833.798753,8960.931193
1165.177778,2527.442131,-4518.760174,9726.822748
1165.178078,153.178311,-1608.372265,10262.946837
1165.178379,2374.263820,4288.992708,7429.148083
1165.178679,-1148.837332,5591.008351,8654.574571
1165.178979,-5437.830040,4442.171019,11641.551636
1165.179280,-4748.527641,3216.744531,11028.838392
1165.179598,-4135.814397,1991.318043,12866.978124
1165.179892,-4288.992708,-1761.550576,12177.675724
1165.180185,-6203.721595,-5820.775818,11335.195014
1165.180479,-76.589155,-7812.093861,10416.125148
1165.180773,153.178311,-9497.055282,11028.838392
1165.181066,1225.426488,-10033.179370,10416.125148
1165.181360,5054.884263,-7199.380617,9420.466126
1165.181653,5667.597507,-4059.225241,9420.466126
1165.181970,5054.884263,-1914.728887,8041.861327
1165.182266,3906.046930,2604.031287,8118.450483
1165.182562,2144.496354,6663.256528,8807.752882
1165.182858,765.891555,6816.434839,9114.109504
1165.183154,-4595.349330,4748.527641,12560.621502
1165.183450,-4135.814397,4825.116796,13020.156435
1165.183746,-5284.651729,3369.922842,13403.102212
1165.184043,-3063.566220,1378.604799,10262.946837
1165.184342,-2067.907198,-995.659021,11182.016703
1165.184643,765.891555,-5208.062574,11182.016703
1165.184944,306.356622,-6893.023995,11488.373325
1165.185245,1684.961421,-7352.558928,10262.946837
1165.185545,1991.318043,-9343.876971,10416.125148
1165.185846,-229.767466,-6586.667373,10952.249236
1165.186147,1225.426488,-2986.977064,9573.644437
1165.186448,4671.938485,3523.101153,7275.969772
1165.186755,3140.155375,5897.364973,8195.039638
1165.187056,-382.945777,7735.504705,10186.357681
1165.187356,-1914.728887,7429.148083,10339.535992
1165.187657,-689.302399,8195.039638,10109.768526
1165.187958,-6969.613150,2450.852976,14168.993767
1165.188259,-9573.644437,-1914.728887,12254.264880
1165.188560,-2067.907198,-3599.690308,11182.016703
1165.188861,-1302.015643,-6280.310751,11794.729947
1165.189141,1072.248177,-9343.876971,10569.303459
1165.189446,1531.783110,-8884.342038,11105.427547
1165.189751,6127.132440,-6433.489062,8041.861327
1165.190057,4212.403552,-5820.775818,9573.644437
1165.190362,-2221.085509,-3140.155375,11335.195014
1165.190667,459.534933,3216.744531,7965.272172
1165.190972,2144.496354,7275.969772,6280.310751
1165.191277,153.178311,5744.186662,8041.861327
1165.191596,-2757.209598,3063.566220,11718.140791
1165.191889,-5131.473418,306.356622,14322.172078
1165.192181,-4288.992708,-229.767466,12943.567279
1165.192474,-4825.116796,-2221.085509,12101.086569
1165.192767,306.356622,-2374.263820,10569.303459
1165.193059,919.069866,-4671.938485,11641.551636
1165.193352,1991.318043,-4212.403552,10033.179370
1165.193645,5208.062574,-2221.085509,9420.466126
1165.193962,3599.690308,-1914.728887,9880.001059
1165.194260,4212.403552,-995.659021,10109.768526
1165.194558,2297.674665,2144.496354,9573.644437
1165.194855,2144.496354,6663.256528,7122.791461
1165.195153,-76.589155,7429.148083,7429.148083
1165.195451,-3982.636086,3676.279464,11258.605858
1165.195749,-4825.116796,2757.209598,13632.869679
1165.196047,-6663.256528,-382.945777,13173.334746
1165.196346,-6663.256528,-2680.620442,12637.210657
1165.196646,459.534933,-2986.977064,10875.660081
1165.196945,6280.310751,-4825.116796,10109.768526
1165.197244,6280.310751,-5667.597507,8041.861327
1165.197543,5973.954129,-4671.938485,8731.163727
1165.197842,4365.581863,-3906.046930,11335.195014
1165.198141,-76.589155,-1761.550576,11488.373325
1165.198440,-3829.457775,1072.248177,10262.946837
1165.198754,-1914.728887,6050.543284,7429.148083
1165.199053,-3982.636086,5897.364973,9573.644437
1165.199352,-5437.830040,4825.116796,10262.946837
1165.199650,-7505.737239,3676.279464,12024.497413
1165.199949,-4135.814397,1072.248177,11641.551636
1165.200248,-2374.263820,-3293.333686,11028.838392
1165.200546,-3982.636086,-8271.628794,13096.745590
1165.200845,3140.155375,-9650.233593,10722.481770
1165.201152,4365.581863,-8884.342038,9573.644437
1165.201449,5820.775818,-7352.558928,8960.931193
1165.201747,6127.132440,-5973.954129,8884.342038
1165.202044,5054.884263,-3906.046930,10109.768526
1165.202341,3906.046930,306.356622,9114.109504
1165.202638,765.891555,2757.209598,9114.109504
1165.202936,-536.124088,5744.186662,9114.109504
1165.203233,-3676.279464,5897.364973,11947.908258
1165.203529,-4748.527641,5131.473418,13479.691368
1165.203831,-3523.101153,5591.008351,11028.838392
1165.204132,-2067.907198,5284.651729,11411.784169
1165.204433,-2374.263820,-842.480710,11335.195014
1165.204734,-5897.364973,-4518.760174,13403.102212
1165.205035,1225.426488,-4901.705952,11105.427547
1165.205336,5361.240885,-3752.868619,8041.861327
1165.205637,3140.155375,-6280.310751,9267.287815
1165.205932,2680.620442,-6893.023995,11182.016703
1165.206233,153.178311,-4212.403552,11947.908258
1165.206533,306.356622,459.534933,9650.233593
1165.206834,765.891555,2757.209598,8807.752882
1165.207135,-689.302399,4442.171019,9956.590215
1165.207436,-536.124088,5284.651729,9956.590215
1165.207737,306.356622,6356.899906,10569.303459
1165.208038,1838.139732,4288.992708,9650.233593
1165.208326,-3982.636086,612.713244,13249.923901
1165.208627,-6510.078217,-1914.728887,13479.691368
1165.208928,-2604.031287,-842.480710,12101.086569
1165.209229,-995.659021,-2833.798753,9803.411904
1165.209529,-536.124088,-4825.116796,9114.109504
1165.209830,-1914.728887,-7046.202306,9803.411904
1165.210131,5208.062574,-5514.419196,8654.574571
1165.210432,3906.046930,-5208.062574,9573.644437
1165.210741,2297.674665,-4518.760174,8731.163727
1165.211040,3446.511997,-1914.728887,8731.163727
1165.211339,1991.318043,306.356622,9956.590215
1165.211639,-229.767466,153.178311,8884.342038
1165.211938,-5591.008351,-995.659021,11182.016703
1165.212238,-5437.830040,-1455.193954,12177.675724
1165.212537,-4135.814397,-2067.907198,12790.388968
1165.212836,-2450.852976,459.534933,11641.551636
1165.213143,3906.046930,2297.674665,9650.233593
1165.213443,2144.496354,612.713244,10186.357681
1165.213743,3906.046930,765.891555,9650.233593
1165.214043,1991.318043,1072.248177,10416.125148
1165.214342,2833.798753,1838.139732,10875.660081
1165.214642,-0.000000,153.178311,9956.590215
1165.214942,-382.945777,2450.852976,9267.287815
1165.215241,3140.155375,765.891555,10262.946837
1165.215538,-689.302399,-689.302399,11488.373325
1165.215835,-2757.209598,-1761.550576,11718.140791
1165.216133,-4135.814397,-2527.442131,12713.799813
1165.216430,-5591.008351,-2374.263820,13403.102212
1165.216727,-5131.473418,-1761.550576,13249.923901
1165.217025,-4442.171019,-229.767466,11947.908258
1165.217322,4518.760174,3829.457775,9114.109504
1165.217620,6893.023995,2757.209598,8960.931193
1165.217934,7429.148083,1378.604799,9114.109504
1165.218233,6280.310751,1378.604799,10109.768526
1165.218531,459.534933,153.178311,12101.086569
1165.218830,-995.659021,1991.318043,9650.233593
1165.219129,-3829.457775,3063.566220,8424.807105
1165.219428,-5591.008351,1378.604799,9497.055282
1165.219726,-10799.070925,-3293.333686,13249.923901
1165.220025,-9190.698660,-4212.403552,12790.388968
