#time,accel_x,accel_y,accel_z
1115.297626,-229.767466,-689.302399,10722.481770
1115.297937,-0.000000,-689.302399,10875.660081
1115.298235,-229.767466,-842.480710,10722.481770
1115.298532,-382.945777,-995.659021,10875.660081
1115.298829,-0.000000,-536.124088,10569.303459
1115.299127,2680.620442,-689.302399,10416.125148
1115.299424,5208.062574,-536.124088,10569.303459
1115.299722,9497.055282,-229.767466,9573.644437
1115.300019,13096.745590,-382.945777,9573.644437
1115.300328,18764.343097,306.356622,8807.752882
1115.300627,19606.823808,306.356622,9114.109504
1115.300927,20985.428607,-0.000000,9420.466126
1115.301226,20832.250296,919.069866,9114.109504
1115.301526,18994.110564,1991.318043,9650.233593
1115.301825,18764.343097,1991.318043,8960.931193
1115.302125,15317.831100,1378.604799,9420.466126
1115.302424,14168.993767,919.069866,10416.125148
1115.302731,15164.652789,-382.945777,10569.303459
1115.303029,19606.823808,-536.124088,10416.125148
1115.303328,26116.902025,153.178311,9803.411904
1115.303626,29563.414023,-536.124088,8195.039638
1115.303924,24661.708071,-2067.907198,9650.233593
1115.304222,17998.451542,-4671.938485,14322.172078
1115.304520,12330.854035,-4059.225241,15394.420255
1115.304818,9650.233593,-689.302399,13556.280523
1115.305134,6586.667373,919.069866,13403.102212
1115.305433,2144.496354,612.713244,14168.993767
1115.305731,306.356622,1838.139732,16926.203365
1115.306030,4671.938485,3369.922842,15088.063633
1115.306328,10262.946837,6203.721595,11488.373325
1115.306627,14168.993767,6510.078217,10339.535992
1115.306925,14398.761234,3216.744531,9420.466126
1115.307224,15164.652789,-76.589155,9114.109504
1115.307538,15471.009411,-2833.798753,8041.861327
1115.307837,14705.117856,-7046.202306,7275.969772
1115.308136,12637.210657,-10186.357681,8348.217949
1115.308434,11028.838392,-9343.876971,8960.931193
1115.308733,7888.683016,-6127.132440,9420.466126
1115.309032,4059.225241,-2986.977064,11335.195014
1115.309331,612.713244,153.178311,13020.156435
1115.309629,153.178311,3523.101153,13096.745590
1115.309918,-229.767466,6663.256528,10109.768526
1115.310217,-3982.636086,6969.613150,8577.985416
1115.310517,-7199.380617,919.069866,8960.931193
1115.310817,-10186.357681,-4901.705952,10262.946837
1115.311117,-10339.535992,-7046.202306,10262.946837
1115.311417,-11258.605858,-7965.272172,9956.590215
1115.311717,-10033.179370,-7199.380617,10722.481770
1115.312017,-6510.078217,-4059.225241,12560.621502
1115.312316,-229.767466,-0.000000,13939.226301
1115.312616,6739.845684,4825.116796,14322.172078
1115.312915,14705.117856,8041.861327,10109.768526
1115.313214,22134.265939,7888.683016,6127.132440
1115.313513,23053.335805,765.891555,4595.349330
1115.313813,14705.117856,-9343.876971,6356.899906
1115.314112,7582.326394,-16390.079277,7582.326394
1115.314411,2680.620442,-20296.126207,8195.039638
1115.314718,153.178311,-18228.219009,10569.303459
1115.315018,-3063.566220,-9037.520349,13249.923901
1115.315317,-6969.613150,3523.101153,15547.598566
1115.315616,-10799.070925,14245.582923,15394.420255
1115.315915,-13326.513057,20679.071985,14475.350389
1115.316214,-16619.846743,19913.180430,14475.350389
1115.316514,-19836.591274,14628.528700,14475.350389
1115.316813,-16007.133499,4442.171019,12713.799813
1115.317134,-4825.116796,-4901.705952,9650.233593
1115.317434,11182.016703,-11411.784169,6356.899906
1115.317734,24048.994827,-15317.831100,3599.690308
1115.318035,27342.328513,-15011.474478,6127.132440
1115.318335,22900.157494,-7965.272172,8195.039638
1115.318635,11335.195014,-842.480710,9267.287815
1115.318936,-3523.101153,5591.008351,9803.411904
1115.319236,-14245.582923,9114.109504,10875.660081
1115.319555,-19223.878030,9650.233593,11028.838392
1115.319848,-18840.932253,8195.039638,11641.551636
1115.320142,-11105.427547,4135.814397,13096.745590
1115.320435,3446.511997,2910.387909,12637.210657
1115.320729,15624.187722,3829.457775,10569.303459
1115.321023,22593.800872,4288.992708,6739.845684
1115.321316,16773.025054,2604.031287,8195.039638
1115.321610,7429.148083,-229.767466,10416.125148
1115.321927,-2450.852976,-3293.333686,11335.195014
1115.322226,-10339.535992,-6586.667373,11258.605858
1115.322526,-13632.869679,-10645.892614,11182.016703
1115.322825,-12407.443191,-11871.319102,11641.551636
1115.323124,-6050.543284,-8424.807105,12790.388968
1115.323424,153.178311,-689.302399,12560.621502
1115.323723,3906.046930,6203.721595,12407.443191
1115.324022,919.069866,9267.287815,13939.226301
1115.324322,919.069866,9420.466126,11641.551636
1115.324619,1684.961421,8041.861327,9573.644437
1115.324917,4518.760174,2297.674665,7658.915550
1115.325214,4901.705952,-4825.116796,7429.148083
1115.325512,4901.705952,-10952.249236,9267.287815
1115.325809,5667.597507,-12484.032346,11182.016703
1115.326107,4365.581863,-10799.070925,12560.621502
1115.326404,612.713244,-7046.202306,12560.621502
1115.326711,-4135.814397,-1608.372265,12101.086569
1115.327012,-9343.876971,1838.139732,12254.264880
1115.327313,-13479.691368,2450.852976,11641.551636
1115.327614,-12713.799813,1531.783110,9650.233593
1115.327915,-6969.613150,-229.767466,8654.574571
1115.328216,-0.000000,-1302.015643,8501.396260
1115.328517,7888.683016,-995.659021,9343.876971
1115.328818,15011.474478,1684.961421,9190.698660
1115.329098,17998.451542,5591.008351,8731.163727
1115.329403,13709.458834,7275.969772,8654.574571
1115.329708,3599.690308,6050.543284,10416.125148
1115.330013,-7658.915550,1838.139732,10569.303459
1115.330318,-16160.311810,-2374.263820,10492.714303
1115.330623,-20142.947896,-8118.450483,10875.660081
1115.330929,-18381.397320,-12484.032346,11028.838392
1115.331234,-10033.179370,-11718.140791,11641.551636
1115.331507,2680.620442,-7199.380617,11641.551636
1115.331806,13096.745590,1072.248177,10722.481770
1115.332105,18994.110564,8807.752882,9956.590215
1115.332405,17232.559987,12866.978124,9114.109504
1115.332704,10262.946837,12713.799813,9573.644437
1115.333003,1225.426488,9573.644437,8960.931193
1115.333302,-6510.078217,2910.387909,9573.644437
1115.333602,-11947.908258,-5361.240885,10875.660081
1115.333919,-11718.140791,-9880.001059,13096.745590
1115.334217,-4442.171019,-9726.822748,13020.156435
1115.334514,2986.977064,-4901.705952,12101.086569
1115.334812,5973.954129,459.534933,11641.551636
1115.335110,4365.581863,4978.295107,10416.125148
1115.335408,459.534933,6203.721595,10416.125148
1115.335706,-2067.907198,4288.992708,9803.411904
1115.336003,-4978.295107,-1608.372265,9420.466126
1115.336326,-5284.651729,-6893.023995,9497.055282
1115.336622,-1608.372265,-10033.179370,9420.466126
1115.336918,3599.690308,-9726.822748,10416.125148
1115.337214,6586.667373,-6127.132440,10645.892614
1115.337510,5361.240885,-2374.263820,10569.303459
1115.337806,-536.124088,612.713244,11028.838392
1115.338101,-5897.364973,1684.961421,11028.838392
1115.338397,-10645.892614,153.178311,10109.768526
1115.338711,-11871.319102,-2986.977064,9803.411904
1115.339010,-7352.558928,-6280.310751,9267.287815
1115.339308,-229.767466,-8577.985416,9803.411904
1115.339607,7888.683016,-6739.845684,11028.838392
1115.339906,15164.652789,-2067.907198,9956.590215
1115.340204,17998.451542,4748.527641,9114.109504
1115.340503,12790.388968,8654.574571,8960.931193
1115.340802,2986.977064,8195.039638,9956.590215
1115.341109,-7965.272172,4825.116796,11488.373325
1115.341406,-15088.063633,306.356622,11794.729947
1115.341703,-16619.846743,-4901.705952,11947.908258
1115.342001,-13479.691368,-8884.342038,12560.621502
1115.342298,-4748.527641,-7965.272172,12407.443191
1115.342595,4901.705952,-3752.868619,10645.892614
1115.342892,9497.055282,3063.566220,11488.373325
1115.343189,9267.287815,4595.349330,11641.551636
1115.343519,4365.581863,5744.186662,12101.086569
1115.343816,1072.248177,6969.613150,10722.481770
1115.344112,-2221.085509,4748.527641,7429.148083
1115.344408,-4825.116796,-536.124088,8041.861327
1115.344705,-5131.473418,-4365.581863,9803.411904
1115.345001,-2067.907198,-5361.240885,11335.195014
1115.345297,3599.690308,-2986.977064,11564.962480
1115.345594,6893.023995,612.713244,11488.373325
1115.345888,8654.574571,4748.527641,9956.590215
1115.346189,5973.954129,6356.899906,9573.644437
1115.346490,612.713244,5897.364973,9650.233593
1115.346791,-1761.550576,2604.031287,9267.287815
1115.347092,-3829.457775,-2221.085509,9420.466126
1115.347393,-4825.116796,-6280.310751,8807.752882
1115.347694,-4978.295107,-9343.876971,10033.179370
1115.347995,-842.480710,-8424.807105,11641.551636
1115.348330,2986.977064,-3906.046930,11335.195014
1115.348624,5208.062574,1378.604799,10569.303459
1115.348918,919.069866,3829.457775,9573.644437
1115.349212,-4442.171019,2757.209598,10569.303459
1115.349507,-8424.807105,306.356622,11028.838392
1115.349801,-10339.535992,-3752.868619,10875.660081
1115.350095,-8271.628794,-7352.558928,9650.233593
1115.350389,-2450.852976,-8424.807105,9573.644437
1115.350698,5820.775818,-6739.845684,9956.590215
1115.350996,13096.745590,-1914.728887,9956.590215
1115.351295,15777.366033,3216.744531,9956.590215
1115.351593,10722.481770,5744.186662,10262.946837
1115.351892,3599.690308,6050.543284,10262.946837
1115.352190,-5131.473418,4135.814397,10262.946837
1115.352489,-11871.319102,-76.589155,10875.660081
1115.352788,-16466.668432,-6586.667373,12560.621502
1115.353095,-14245.582923,-10339.535992,14781.707011
1115.353393,-4748.527641,-8424.807105,13709.458834
1115.353692,6280.310751,-3293.333686,11335.195014
1115.353991,12790.388968,2450.852976,9803.411904
1115.354290,11488.373325,6050.543284,9803.411904
1115.354589,5514.419196,7275.969772,10416.125148
1115.354888,-2221.085509,4825.116796,10416.125148
1115.355187,-8577.985416,-76.589155,10262.946837
1115.355483,-10492.714303,-5054.884263,9573.644437
1115.355786,-7658.915550,-7658.915550,10416.125148
1115.356089,-1148.837332,-6893.023995,10722.481770
1115.356392,6586.667373,-2221.085509,9650.233593
1115.356695,10875.660081,3982.636086,10416.125148
1115.356998,10722.481770,7735.504705,9420.466126
1115.357301,4748.527641,8654.574571,9956.590215
1115.357603,-2604.031287,5744.186662,10569.303459
1115.357898,-8118.450483,1838.139732,9267.287815
1115.358198,-9037.520349,-3752.868619,8807.752882
1115.358499,-7199.380617,-7965.272172,9420.466126
1115.358799,-3982.636086,-10799.070925,11488.373325
1115.359099,3140.155375,-8118.450483,11947.908258
1115.359399,8348.217949,-2374.263820,10799.070925
1115.359699,9803.411904,4288.992708,9956.590215
1115.359999,5667.597507,6356.899906,9190.698660
1115.360287,-689.302399,7582.326394,10416.125148
1115.360587,-4595.349330,5131.473418,9573.644437
1115.360887,-7812.093861,-689.302399,10262.946837
1115.361187,-7812.093861,-6280.310751,10722.481770
1115.361487,-3523.101153,-7658.915550,11641.551636
1115.361787,5208.062574,-5208.062574,10875.660081
1115.362087,12177.675724,-229.767466,9956.590215
1115.362387,13403.102212,4442.171019,9650.233593
1115.362720,7582.326394,5131.473418,9267.287815
1115.363015,-1455.193954,3829.457775,11641.551636
1115.363310,-9497.055282,-1302.015643,11794.729947
1115.363606,-15394.420255,-7658.915550,12790.388968
1115.363901,-14781.707011,-11564.962480,12101.086569
1115.364196,-6663.256528,-10033.179370,10262.946837
1115.364491,3140.155375,-6433.489062,9420.466126
1115.364787,9650.233593,-2067.907198,10262.946837
1115.365094,11641.551636,3216.744531,10109.768526
1115.365395,8960.931193,5897.364973,9497.055282
1115.365697,1684.961421,4288.992708,10492.714303
1115.365998,-5284.651729,1072.248177,9573.644437
1115.366300,-8577.985416,-2221.085509,9803.411904
1115.366601,-9190.698660,-6433.489062,9803.411904
1115.366903,-4748.527641,-9190.698660,10722.481770
1115.367204,1531.783110,-5973.954129,11794.729947
1115.367520,9267.287815,-689.302399,10109.768526
1115.367814,11488.373325,4748.527641,9497.055282
1115.368108,8501.396260,8654.574571,9650.233593
1115.368401,1225.426488,9420.466126,10186.357681
1115.368695,-6356.899906,5591.008351,11182.016703
1115.368989,-11411.784169,306.356622,11947.908258
1115.369283,-10952.249236,-4825.116796,11258.605858
1115.369576,-6050.543284,-8118.450483,10186.357681
1115.369895,-76.589155,-6739.845684,10416.125148
1115.370193,7122.791461,-4518.760174,10875.660081
1115.370492,9267.287815,153.178311,12407.443191
1115.370790,8041.861327,5591.008351,10875.660081
1115.371088,4901.705952,7888.683016,10262.946837
1115.371386,-995.659021,6050.543284,9420.466126
1115.371685,-6510.078217,2297.674665,8807.752882
1115.371983,-10186.357681,-4901.705952,10875.660081
1115.372296,-9880.001059,-9037.520349,12560.621502
1115.372594,-2757.209598,-9497.055282,12407.443191
1115.372893,7429.148083,-3599.690308,11182.016703
1115.373191,12330.854035,2910.387909,9803.411904
1115.373490,12637.210657,8041.861327,8960.931193
1115.373788,6739.845684,9114.109504,9880.001059
1115.374087,-76.589155,7582.326394,10569.303459
1115.374385,-6969.613150,2757.209598,10262.946837
1115.374685,-10799.070925,-2833.798753,10569.303459
1115.374984,-10799.070925,-9190.698660,10416.125148
1115.375283,-6050.543284,-11411.784169,10799.070925
1115.375582,459.534933,-9726.822748,11794.729947
1115.375881,5820.775818,-4901.705952,11488.373325
1115.376181,8654.574571,612.713244,9956.590215
1115.376480,6280.310751,4135.814397,8501.396260
1115.376779,2144.496354,4595.349330,8348.217949
1115.377086,-3523.101153,2144.496354,8654.574571
1115.377383,-6663.256528,-2680.620442,9114.109504
1115.377680,-6510.078217,-7505.737239,9803.411904
1115.377977,-3676.279464,-8118.450483,10875.660081
1115.378274,1991.318043,-5973.954129,10875.660081
1115.378571,7735.504705,-689.302399,10875.660081
1115.378867,9497.055282,4288.992708,9956.590215
1115.379164,4212.403552,6663.256528,10262.946837
1115.379479,-2450.852976,6203.721595,10799.070925
1115.379782,-9037.520349,2297.674665,11794.729947
1115.380086,-10952.249236,-3293.333686,11641.551636
1115.380389,-9573.644437,-7199.380617,11794.729947
1115.380693,-2604.031287,-8118.450483,11028.838392
1115.380997,4365.581863,-5667.597507,10875.660081
1115.381300,11488.373325,-995.659021,10109.768526
1115.381604,12943.567279,4442.171019,10109.768526
1115.381877,8041.861327,7582.326394,9650.233593
1115.382176,-842.480710,6203.721595,10875.660081
1115.382475,-10033.179370,1531.783110,12560.621502
1115.382775,-15241.241944,-4365.581863,13096.745590
1115.383074,-13020.156435,-8731.163727,11794.729947
1115.383373,-5437.830040,-9037.520349,10569.303459
1115.383673,3293.333686,-5820.775818,9573.644437
1115.383972,11488.373325,-76.589155,9573.644437
1115.384289,14015.815456,5744.186662,9650.233593
1115.384599,13096.745590,9573.644437,9037.520349
1115.384909,5361.240885,8041.861327,9420.466126
1115.385219,-3369.922842,4442.171019,9956.590215
1115.385530,-9343.876971,-382.945777,9726.822748
1115.385840,-10799.070925,-5667.597507,9880.001059
1115.386150,-9726.822748,-9880.001059,11182.016703
1115.386460,-4595.349330,-9497.055282,11641.551636
1115.386665,1991.318043,-5208.062574,11488.373325
1115.386965,5820.775818,919.069866,10416.125148
1115.387264,7582.326394,6356.899906,9803.411904
1115.387564,4671.938485,9114.109504,9267.287815
1115.387864,459.534933,7735.504705,10262.946837
1115.388163,-3829.457775,2757.209598,10033.179370
1115.388463,-6050.543284,-3140.155375,10416.125148
1115.388763,-3369.922842,-6586.667373,9726.822748
1115.389093,306.356622,-6739.845684,9573.644437
1115.389390,4365.581863,-4825.116796,10416.125148
1115.389687,6586.667373,-536.124088,11488.373325
1115.389984,6586.667373,4135.814397,11564.962480
1115.390281,3752.868619,6510.078217,9880.001059
1115.390578,-1455.193954,5744.186662,10109.768526
1115.390875,-7352.558928,1991.318043,11028.838392
1115.391172,-11105.427547,-4365.581863,11105.427547
1115.391480,-10186.357681,-7046.202306,11488.373325
1115.391779,-4978.295107,-8271.628794,11641.551636
1115.392079,2144.496354,-5667.597507,11182.016703
1115.392379,8195.039638,-382.945777,11641.551636
1115.392679,11028.838392,4595.349330,9726.822748
1115.392979,7046.202306,6203.721595,8807.752882
1115.393279,-76.589155,4288.992708,9650.233593
1115.393578,-7505.737239,-76.589155,10262.946837
1115.393862,-10492.714303,-5054.884263,11335.195014
1115.394164,-10492.714303,-8118.450483,10569.303459
1115.394467,-4595.349330,-9650.233593,10109.768526
1115.394770,2144.496354,-6586.667373,11028.838392
1115.395073,9956.590215,-1608.372265,10416.125148
1115.395376,12943.567279,4135.814397,9803.411904
1115.395679,10569.303459,7888.683016,9267.287815
1115.395982,3752.868619,7275.969772,9267.287815
1115.396263,-5131.473418,3216.744531,9573.644437
1115.396565,-11258.605858,-2067.907198,10569.303459
1115.396867,-14628.528700,-7965.272172,11488.373325
1115.397169,-12254.264880,-11564.962480,11794.729947
1115.397471,-6050.543284,-9650.233593,12713.799813
1115.397773,3752.868619,-4059.225241,10875.660081
1115.398075,9650.233593,3216.744531,10033.179370
1115.398377,11335.195014,7735.504705,9190.698660
1115.398655,7735.504705,9267.287815,9037.520349
1115.398956,1531.783110,6816.434839,9573.644437
1115.399257,-2757.209598,2450.852976,8960.931193
1115.399558,-6663.256528,-4365.581863,9650.233593
1115.399858,-6356.899906,-9343.876971,10569.303459
1115.400159,-2604.031287,-8884.342038,11794.729947
1115.400460,2680.620442,-5514.419196,12254.264880
1115.400761,6586.667373,459.534933,12254.264880
1115.401075,7046.202306,7122.791461,10875.660081
1115.401373,3293.333686,9956.590215,10416.125148
1115.401672,-1302.015643,9114.109504,10569.303459
1115.401971,-5897.364973,5591.008351,9803.411904
1115.402269,-8884.342038,153.178311,10875.660081
1115.402568,-9343.876971,-6586.667373,11028.838392
1115.402867,-4442.171019,-9497.055282,11947.908258
1115.403166,4212.403552,-6739.845684,10875.660081
1115.403473,9803.411904,-2986.977064,9956.590215
1115.403772,9497.055282,919.069866,9573.644437
1115.404072,5208.062574,2604.031287,9267.287815
1115.404372,-0.000000,2910.387909,9803.411904
1115.404672,-5284.651729,-76.589155,9650.233593
1115.404971,-9497.055282,-4671.938485,10416.125148
1115.405271,-9343.876971,-8884.342038,10569.303459
1115.405571,-2910.387909,-8424.807105,9573.644437
1115.405867,3293.333686,-5514.419196,9650.233593
1115.406167,8501.396260,-842.480710,10416.125148
1115.406467,9497.055282,3216.744531,11182.016703
1115.406766,6127.132440,7735.504705,9573.644437
1115.407066,919.069866,7429.148083,9114.109504
1115.407366,-7199.380617,3829.457775,9956.590215
1115.407665,-11105.427547,-2680.620442,11028.838392
1115.407965,-12866.978124,-9037.520349,12484.032346
1115.408260,-7965.272172,-10799.070925,12254.264880
1115.408561,-995.659021,-8731.163727,12101.086569
1115.408862,6127.132440,-4365.581863,11335.195014
1115.409163,9497.055282,1225.426488,11335.195014
1115.409463,9267.287815,5131.473418,11028.838392
1115.409764,4901.705952,7582.326394,9803.411904
1115.410065,306.356622,5897.364973,9497.055282
1115.410366,-3523.101153,765.891555,9114.109504
1115.410654,-5131.473418,-4671.938485,9573.644437
1115.410955,-3523.101153,-6893.023995,10875.660081
1115.411256,306.356622,-5973.954129,11335.195014
1115.411557,4059.225241,-2067.907198,12254.264880
1115.411857,4901.705952,2604.031287,12254.264880
1115.412158,2986.977064,7122.791461,11794.729947
1115.412459,-842.480710,9267.287815,10875.660081
1115.412760,-4748.527641,7275.969772,10645.892614
1115.413059,-8577.985416,2757.209598,10569.303459
1115.413359,-9880.001059,-2221.085509,10722.481770
1115.413659,-6050.543284,-7046.202306,9573.644437
1115.413959,306.356622,-8424.807105,9803.411904
1115.414259,6586.667373,-7352.558928,10875.660081
1115.414559,9956.590215,-2680.620442,10416.125148
1115.414860,10569.303459,3216.744531,9190.698660
1115.415160,7888.683016,6356.899906,7888.683016
1115.415467,2374.263820,5131.473418,8501.396260
1115.415766,-4748.527641,2297.674665,9803.411904
1115.416066,-7812.093861,-1608.372265,9956.590215
1115.416366,-7352.558928,-5054.884263,9726.822748
1115.416665,-4442.171019,-5820.775818,10569.303459
1115.416965,153.178311,-5514.419196,11335.195014
1115.417265,3293.333686,-2067.907198,13096.745590
1115.417564,5054.884263,2297.674665,11182.016703
1115.417861,2297.674665,4442.171019,10109.768526
1115.418159,-2221.085509,3676.279464,10569.303459
1115.418457,-4595.349330,1378.604799,9956.590215
1115.418755,-5284.651729,-2833.798753,9956.590215
1115.419053,-4825.116796,-7199.380617,10109.768526
1115.419351,-995.659021,-9343.876971,9650.233593
1115.419649,4518.760174,-6893.023995,10875.660081
1115.419948,9267.287815,-2986.977064,10416.125148
1115.420262,10416.125148,1072.248177,10033.179370
1115.420561,6433.489062,4288.992708,10109.768526
1115.420859,2374.263820,4978.295107,9650.233593
1115.421158,-4595.349330,1838.139732,10109.768526
1115.421457,-10799.070925,-2680.620442,12254.264880
1115.421755,-12407.443191,-6280.310751,12790.388968
1115.422054,-8884.342038,-7352.558928,12254.264880
1115.422353,-2450.852976,-5667.597507,11947.908258
1115.422641,4748.527641,-842.480710,11794.729947
1115.422942,9114.109504,4978.295107,10262.946837
1115.423243,9803.411904,8501.396260,8960.931193
1115.423543,5973.954129,7582.326394,8807.752882
1115.423844,-689.302399,3829.457775,9956.590215
1115.424145,-7505.737239,-1608.372265,10952.249236
1115.424446,-8271.628794,-7965.272172,9880.001059
1115.424747,-6356.899906,-9726.822748,10109.768526
1115.425046,-2757.209598,-9497.055282,10416.125148
1115.425345,3599.690308,-4212.403552,10569.303459
1115.425645,7582.326394,1991.318043,11335.195014
1115.425944,8654.574571,7275.969772,10109.768526
1115.426243,3599.690308,9267.287815,9267.287815
1115.426542,-3369.922842,7429.148083,10416.125148
1115.426842,-8118.450483,3369.922842,11028.838392
1115.427141,-9726.822748,-2067.907198,11182.016703
1115.427448,-8424.807105,-4901.705952,11028.838392
1115.427747,-2221.085509,-5820.775818,11335.195014
1115.428047,4671.938485,-3293.333686,12101.086569
1115.428346,11028.838392,1225.426488,10416.125148
1115.428645,12330.854035,6050.543284,8807.752882
1115.428944,7122.791461,6510.078217,9803.411904
1115.429244,-0.000000,3982.636086,11028.838392
1115.429543,-5131.473418,612.713244,11028.838392
1115.429863,-7505.737239,-3293.333686,10109.768526
1115.430160,-7965.272172,-7812.093861,11182.016703
1115.430457,-3523.101153,-8884.342038,11182.016703
1115.430754,3599.690308,-5054.884263,11028.838392
1115.431051,7046.202306,-842.480710,11488.373325
1115.431348,5820.775818,3063.566220,11335.195014
1115.431645,1991.318043,5131.473418,10262.946837
1115.431942,-995.659021,5284.651729,9880.001059
1115.432261,-6510.078217,1838.139732,10262.946837
1115.432559,-10186.357681,-3446.511997,10875.660081
1115.432858,-10339.535992,-7505.737239,10875.660081
1115.433156,-3523.101153,-8731.163727,9726.822748
1115.433454,4671.938485,-6586.667373,10186.357681
1115.433752,9803.411904,-2986.977064,10416.125148
1115.434050,10722.481770,1684.961421,9803.411904
1115.434349,8348.217949,5744.186662,8195.039638
1115.434662,3906.046930,5897.364973,7888.683016
1115.434961,-3982.636086,2297.674665,9267.287815
1115.435260,-10339.535992,-4212.403552,11335.195014
1115.435560,-12101.086569,-9190.698660,12254.264880
1115.435859,-6203.721595,-9880.001059,11105.427547
1115.436158,-842.480710,-7352.558928,10339.535992
1115.436458,4671.938485,-3293.333686,11335.195014
1115.436757,6893.023995,1684.961421,11641.551636
1115.437045,6586.667373,6050.543284,10416.125148
1115.437343,3140.155375,8041.861327,10109.768526
1115.437640,-3523.101153,5591.008351,10109.768526
1115.437938,-7658.915550,612.713244,9880.001059
1115.438235,-9343.876971,-4901.705952,10875.660081
1115.438533,-4748.527641,-7965.272172,11335.195014
1115.438830,1072.248177,-6739.845684,10875.660081
1115.439128,7582.326394,-2986.977064,11028.838392
1115.439435,10569.303459,2757.209598,11028.838392
1115.439736,10569.303459,7275.969772,9956.590215
1115.440038,5208.062574,9267.287815,9267.287815
1115.440340,-689.302399,7275.969772,9956.590215
1115.440641,-8271.628794,2297.674665,11028.838392
1115.440943,-10492.714303,-2680.620442,11335.195014
1115.441245,-7965.272172,-5514.419196,10262.946837
1115.441547,-4825.116796,-7965.272172,11182.016703
1115.441827,-76.589155,-7812.093861,12560.621502
1115.442132,2297.674665,-3599.690308,13249.923901
1115.442437,6127.132440,3369.922842,11947.908258
1115.442742,4748.527641,6816.434839,8501.396260
1115.443047,1225.426488,6663.256528,8348.217949
1115.443353,-2910.387909,3216.744531,9573.644437
1115.443658,-3216.744531,-1455.193954,9650.233593
1115.443963,-1455.193954,-4671.938485,8501.396260
1115.444281,2986.977064,-6127.132440,8348.217949
1115.444578,5208.062574,-7352.558928,10109.768526
1115.444874,7122.791461,-2986.977064,11335.195014
1115.445170,8501.396260,3523.101153,9803.411904
1115.445466,4365.581863,6203.721595,8884.342038
1115.445762,-1914.728887,4748.527641,9726.822748
1115.446058,-9497.055282,1225.426488,11335.195014
1115.446354,-14628.528700,-3446.511997,12024.497413
1115.446626,-14322.172078,-7658.915550,12407.443191
1115.446927,-8884.342038,-9726.822748,11105.427547
1115.447228,-536.124088,-7812.093861,10952.249236
1115.447529,5820.775818,-2986.977064,11182.016703
1115.447830,9497.055282,2297.674665,9650.233593
1115.448131,8654.574571,5284.651729,8960.931193
1115.448432,4671.938485,4825.116796,9956.590215
1115.448733,-995.659021,2450.852976,10569.303459
1115.449033,-3523.101153,-1148.837332,9650.233593
1115.449333,-3676.279464,-5514.419196,9267.287815
1115.449633,-1608.372265,-7965.272172,10262.946837
1115.449933,2144.496354,-6893.023995,10952.249236
1115.450233,6739.845684,-2986.977064,12254.264880
1115.450533,7735.504705,2910.387909,12101.086569
1115.450833,5208.062574,7122.791461,10875.660081
1115.451133,-229.767466,8654.574571,10799.070925
1115.451463,-6663.256528,6203.721595,11488.373325
1115.451756,-12866.978124,1378.604799,12101.086569
1115.452049,-14934.885322,-4059.225241,12101.086569
1115.452342,-10799.070925,-6739.845684,11488.373325
1115.452635,-1914.728887,-7658.915550,9956.590215
1115.452928,5514.419196,-4671.938485,10109.768526
1115.453221,11871.319102,-0.000000,9650.233593
1115.453514,12330.854035,4135.814397,9573.644437
1115.453821,8348.217949,5591.008351,8654.574571
1115.454126,2833.798753,3829.457775,8654.574571
1115.454431,-3523.101153,612.713244,8731.163727
1115.454735,-6816.434839,-4059.225241,9267.287815
1115.455040,-6356.899906,-7352.558928,9650.233593
1115.455344,-2604.031287,-7199.380617,11335.195014
1115.455649,2374.263820,-3140.155375,11182.016703
1115.455954,5208.062574,1378.604799,11335.195014
1115.456237,5208.062574,7429.148083,11488.373325
1115.456533,1378.604799,8807.752882,9956.590215
1115.456830,-3063.566220,8501.396260,10416.125148
1115.457126,-7199.380617,3982.636086,11028.838392
1115.457422,-8118.450483,-2067.907198,10262.946837
1115.457719,-6356.899906,-8118.450483,10109.768526
1115.458015,-1914.728887,-10033.179370,11105.427547
1115.458311,6893.023995,-7352.558928,10569.303459
1115.458639,10109.768526,-3752.868619,10262.946837
1115.458935,9650.233593,459.534933,10569.303459
1115.459231,4365.581863,2450.852976,10875.660081
1115.459527,-76.589155,3369.922842,10262.946837
1115.459824,-3829.457775,2757.209598,9650.233593
1115.460120,-7199.380617,-1761.550576,9956.590215
1115.460416,-8271.628794,-5820.775818,11182.016703
1115.460712,-3216.744531,-5208.062574,10645.892614
1115.461024,3293.333686,-3140.155375,10416.125148
1115.461324,5820.775818,-0.000000,10722.481770
1115.461624,5820.775818,2757.209598,11028.838392
1115.461924,1531.783110,4442.171019,11335.195014
1115.462224,-995.659021,4748.527641,10186.357681
1115.462523,-4825.116796,1838.139732,9114.109504
1115.462823,-8731.163727,-4901.705952,10952.249236
1115.463123,-8424.807105,-10339.535992,11641.551636
1115.463432,-2450.852976,-10339.535992,10262.946837
1115.463731,4518.760174,-7812.093861,9114.109504
1115.464029,8041.861327,-5208.062574,9267.287815
1115.464328,7582.326394,-382.945777,10799.070925
1115.464626,5514.419196,4135.814397,10875.660081
1115.464925,612.713244,6816.434839,10722.481770
1115.465223,-4442.171019,5591.008351,9880.001059
1115.465522,-9343.876971,3063.566220,10262.946837
1115.465863,-9726.822748,-2067.907198,10109.768526
1115.466158,-6816.434839,-4901.705952,11028.838392
1115.466454,-1455.193954,-3906.046930,12101.086569
1115.466750,7429.148083,459.534933,10416.125148
1115.467046,10416.125148,4825.116796,10186.357681
1115.467341,11028.838392,7429.148083,9956.590215
1115.467637,4901.705952,6663.256528,10262.946837
1115.467933,-842.480710,4288.992708,10875.660081
1115.468229,-4825.116796,-0.000000,10722.481770
1115.468528,-6969.613150,-4671.938485,10262.946837
1115.468827,-7352.558928,-7658.915550,9880.001059
1115.469126,-4288.992708,-8271.628794,11028.838392
1115.469425,-76.589155,-5208.062574,12560.621502
1115.469723,3752.868619,-995.659021,13403.102212
1115.470022,5973.954129,4825.116796,11488.373325
1115.470321,4518.760174,8501.396260,10262.946837
1115.470616,1072.248177,8654.574571,9267.287815
1115.470916,-3523.101153,4748.527641,9420.466126
1115.471216,-5744.186662,-1455.193954,10339.535992
1115.471516,-4135.814397,-5361.240885,10109.768526
1115.471816,919.069866,-6739.845684,9803.411904
1115.472117,6586.667373,-5514.419196,9420.466126
1115.472417,9497.055282,-3293.333686,10645.892614
1115.472717,9114.109504,765.891555,9880.001059
1115.473005,4748.527641,2910.387909,9267.287815
1115.473305,-1302.015643,2144.496354,9803.411904
1115.473605,-9190.698660,-842.480710,10262.946837
1115.473905,-12407.443191,-4825.116796,10416.125148
1115.474205,-13020.156435,-7812.093861,11028.838392
1115.474505,-7352.558928,-8577.985416,11335.195014
1115.474805,-229.767466,-6433.489062,10875.660081
1115.475105,6739.845684,-2986.977064,10186.357681
1115.475460,9267.287815,1225.426488,9956.590215
1115.475752,7046.202306,3676.279464,9267.287815
1115.476045,3599.690308,4135.814397,9420.466126
1115.476337,-382.945777,2604.031287,9267.287815
1115.476629,-4595.349330,-2527.442131,9726.822748
1115.476921,-6203.721595,-7352.558928,10569.303459
1115.477213,-2757.209598,-8424.807105,11182.016703
1115.477505,2527.442131,-5973.954129,10875.660081
1115.477812,8041.861327,-2374.263820,10569.303459
1115.478113,7888.683016,3216.744531,12101.086569
1115.478415,4671.938485,6510.078217,12330.854035
1115.478716,459.534933,8960.931193,11182.016703
1115.479018,-4442.171019,7122.791461,11182.016703
1115.479319,-10339.535992,1991.318043,11258.605858
1115.479621,-11564.962480,-2833.798753,11794.729947
1115.479922,-9343.876971,-4901.705952,11028.838392
1115.480238,-2604.031287,-6127.132440,10569.303459
1115.480532,2527.442131,-4825.116796,11794.729947
1115.480826,5667.597507,-995.659021,12254.264880
1115.481119,8195.039638,3216.744531,10569.303459
1115.481413,6893.023995,5131.473418,8041.861327
1115.481707,2374.263820,4748.527641,8654.574571
1115.482001,-1455.193954,459.534933,8960.931193
1115.482294,-4135.814397,-3752.868619,9573.644437
1115.482613,-3369.922842,-6127.132440,8960.931193
1115.482911,-0.000000,-5361.240885,9956.590215
1115.483209,4212.403552,-3446.511997,9956.590215
1115.483507,7429.148083,1378.604799,9956.590215
1115.483806,8654.574571,6356.899906,9650.233593
1115.484104,2833.798753,7735.504705,10109.768526
1115.484402,-3369.922842,4978.295107,11641.551636
1115.484700,-9037.520349,1684.961421,12790.388968
1115.485013,-10645.892614,-1914.728887,11182.016703
1115.485313,-10799.070925,-5514.419196,9650.233593
1115.485613,-7352.558928,-7965.272172,10799.070925
1115.485913,306.356622,-7352.558928,11335.195014
1115.486213,7582.326394,-2986.977064,10416.125148
1115.486513,10569.303459,1225.426488,9573.644437
1115.486813,6739.845684,1378.604799,9650.233593
1115.487113,1378.604799,765.891555,10569.303459
1115.487472,-2450.852976,612.713244,10875.660081
1115.487762,-3369.922842,-1302.015643,9573.644437
1115.488052,-3982.636086,-4825.116796,8807.752882
1115.488342,-1455.193954,-5973.954129,9956.590215
1115.488632,2297.674665,-4059.225241,11182.016703
1115.488922,6586.667373,-995.659021,11641.551636
1115.489212,7582.326394,3063.566220,11488.373325
1115.489502,4518.760174,5284.651729,10722.481770
1115.489809,-2910.387909,4978.295107,11947.908258
1115.490112,-8577.985416,1991.318043,12560.621502
1115.490414,-10645.892614,-995.659021,11182.016703
1115.490717,-11411.784169,-5820.775818,11182.016703
1115.491019,-7658.915550,-8271.628794,11028.838392
1115.491322,-1148.837332,-7658.915550,11182.016703
1115.491624,7888.683016,-4212.403552,9420.466126
1115.491927,10722.481770,-536.124088,9114.109504
1115.492201,9267.287815,2450.852976,10262.946837
1115.492505,4518.760174,3369.922842,10416.125148
1115.492809,612.713244,3216.744531,9267.287815
1115.493112,-2757.209598,1378.604799,7429.148083
1115.493416,-7505.737239,-4365.581863,9267.287815
1115.493719,-9190.698660,-8577.985416,11182.016703
1115.494023,-4288.992708,-6433.489062,11947.908258
1115.494327,4518.760174,-229.767466,10569.303459
1115.494645,7888.683016,4288.992708,10109.768526
1115.494939,7275.969772,6663.256528,11105.427547
1115.495233,2374.263820,9114.109504,11182.016703
1115.495526,-1914.728887,7429.148083,10569.303459
1115.495820,-7122.791461,3523.101153,10262.946837
1115.496113,-10033.179370,-2986.977064,11105.427547
1115.496407,-8577.985416,-7352.558928,10569.303459
1115.496700,-2374.263820,-7352.558928,10109.768526
1115.497017,5054.884263,-5820.775818,10186.357681
1115.497316,9267.287815,-3140.155375,11028.838392
1115.497615,9803.411904,1531.783110,11641.551636
1115.497913,7582.326394,5131.473418,9650.233593
1115.498212,3752.868619,5591.008351,8118.450483
1115.498511,-4135.814397,2604.031287,9956.590215
1115.498809,-9726.822748,-2680.620442,11488.373325
1115.499108,-9343.876971,-5361.240885,11028.838392
1115.499396,-4825.116796,-5208.062574,11794.729947
1115.499694,1072.248177,-3752.868619,10645.892614
1115.499992,6586.667373,765.891555,10799.070925
1115.500290,8654.574571,4825.116796,10416.125148
1115.500589,6127.132440,6510.078217,10262.946837
1115.500887,1378.604799,5744.186662,9650.233593
1115.501185,-3829.457775,2910.387909,9573.644437
1115.501483,-8118.450483,-3752.868619,9956.590215
1115.501813,-10645.892614,-9880.001059,10492.714303
1115.502110,-6816.434839,-10952.249236,10569.303459
1115.502407,-76.589155,-9343.876971,10645.892614
1115.502704,5973.954129,-5820.775818,10262.946837
1115.503001,9267.287815,-76.589155,9267.287815
1115.503298,8041.861327,3982.636086,8424.807105
1115.503595,2374.263820,5131.473418,9267.287815
1115.503892,-4135.814397,1991.318043,10186.357681
1115.504200,-7505.737239,-1761.550576,11182.016703
1115.504500,-8884.342038,-4365.581863,10569.303459
1115.504799,-4748.527641,-5514.419196,9956.590215
1115.505099,306.356622,-4671.938485,10569.303459
1115.505399,6280.310751,-1302.015643,10722.481770
1115.505699,9114.109504,3676.279464,11028.838392
1115.505999,8195.039638,6816.434839,10416.125148
1115.506298,1838.139732,6356.899906,11028.838392
1115.506615,-3982.636086,3676.279464,11258.605858
1115.506914,-7812.093861,-0.000000,11335.195014
1115.507214,-7352.558928,-4671.938485,11028.838392
1115.507513,-6203.721595,-7965.272172,10722.481770
1115.507812,-2757.209598,-8118.450483,11335.195014
1115.508111,3446.511997,-3906.046930,11641.551636
1115.508410,6893.023995,765.891555,11182.016703
1115.508710,5361.240885,3982.636086,11335.195014
1115.508947,2527.442131,7429.148083,10492.714303
1115.509255,-3369.922842,6663.256528,10569.303459
1115.509563,-7122.791461,2757.209598,10109.768526
1115.509871,-8424.807105,-2374.263820,10262.946837
1115.510179,-5437.830040,-5667.597507,10416.125148
1115.510487,-76.589155,-5973.954129,10262.946837
1115.510796,7582.326394,-2374.263820,9803.411904
1115.511104,12024.497413,1378.604799,9267.287815
1115.511382,12024.497413,5284.651729,9267.287815
1115.511683,5514.419196,5437.830040,9573.644437
1115.511983,-1302.015643,3676.279464,11028.838392
1115.512284,-6203.721595,2604.031287,10875.660081
1115.512585,-7505.737239,-995.659021,8654.574571
1115.512886,-9037.520349,-6127.132440,9267.287815
1115.513186,-7199.380617,-9497.055282,11411.784169
1115.513487,459.534933,-6739.845684,11794.729947
1115.513801,6739.845684,-1608.372265,10722.481770
1115.514099,10109.768526,2297.674665,9650.233593
1115.514398,4671.938485,3982.636086,9803.411904
1115.514697,-382.945777,3982.636086,10569.303459
1115.514996,-6050.543284,2910.387909,10569.303459
1115.515294,-9726.822748,-2374.263820,9956.590215
1115.515593,-10186.357681,-7658.915550,10875.660081
1115.515892,-5744.186662,-8884.342038,10875.660081
1115.516199,2680.620442,-5820.775818,10339.535992
1115.516496,9956.590215,-1914.728887,10339.535992
1115.516793,10416.125148,1531.783110,10875.660081
1115.517091,8348.217949,4825.116796,10416.125148
1115.517388,2374.263820,5591.008351,10569.303459
1115.517685,-3676.279464,3063.566220,10569.303459
1115.517982,-6356.899906,-1148.837332,10109.768526
1115.518280,-7352.558928,-5973.954129,10416.125148
1115.518576,-2450.852976,-7965.272172,10109.768526
1115.518876,1991.318043,-7352.558928,10569.303459
1115.519177,6280.310751,-4212.403552,10952.249236
1115.519477,7046.202306,-76.589155,11182.016703
1115.519778,3140.155375,3369.922842,11794.729947
1115.520078,-1761.550576,4748.527641,11335.195014
1115.520378,-7965.272172,2910.387909,10109.768526
1115.520679,-10799.070925,306.356622,10339.535992
1115.520973,-12101.086569,-5361.240885,10416.125148
1115.521274,-7658.915550,-8577.985416,11028.838392
1115.521575,-76.589155,-7352.558928,11105.427547
1115.521876,8807.752882,-2680.620442,9573.644437
1115.522177,12943.567279,2297.674665,9650.233593
1115.522478,12484.032346,6050.543284,9420.466126
1115.522779,6893.023995,7888.683016,9114.109504
1115.523080,-229.767466,6663.256528,10033.179370
1115.523368,-7199.380617,1225.426488,10875.660081
1115.523669,-10645.892614,-5054.884263,11641.551636
1115.523969,-8577.985416,-8118.450483,11028.838392
1115.524270,-689.302399,-7505.737239,9267.287815
1115.524571,5361.240885,-4059.225241,9956.590215
1115.524872,7582.326394,-536.124088,11641.551636
1115.525172,7046.202306,4442.171019,11488.373325
1115.525473,3446.511997,6510.078217,11028.838392
1115.525783,-1761.550576,5744.186662,10875.660081
1115.526082,-7352.558928,3063.566220,11105.427547
1115.526381,-8731.163727,-842.480710,11028.838392
1115.526681,-4825.116796,-3752.868619,9956.590215
1115.526980,-536.124088,-5208.062574,10262.946837
1115.527279,4748.527641,-3906.046930,11028.838392
1115.527579,7582.326394,-995.659021,11488.373325
1115.527878,8195.039638,3369.922842,10722.481770
1115.528185,3906.046930,4748.527641,10109.768526
1115.528485,-1455.193954,4442.171019,10416.125148
1115.528785,-6203.721595,1225.426488,10416.125148
1115.529084,-8731.163727,-3599.690308,11182.016703
1115.529384,-7122.791461,-6893.023995,10416.125148
1115.529684,-995.659021,-6433.489062,9267.287815
1115.529983,5361.240885,-4365.581863,8501.396260
1115.530283,7888.683016,-2067.907198,9650.233593
1115.530618,5667.597507,153.178311,11335.195014
1115.530914,1838.139732,3063.566220,11182.016703
1115.531209,-2450.852976,3829.457775,10416.125148
1115.531505,-7122.791461,765.891555,9956.590215
1115.531801,-8271.628794,-3446.511997,9956.590215
1115.532097,-7352.558928,-6893.023995,9497.055282
1115.532393,-2757.209598,-8271.628794,9650.233593
1115.532689,2680.620442,-7199.380617,10569.303459
1115.532984,9803.411904,-2680.620442,10109.768526
1115.533283,13096.745590,3982.636086,9420.466126
1115.533583,11028.838392,7122.791461,9650.233593
1115.533882,3140.155375,7735.504705,10109.768526
1115.534181,-3982.636086,4825.116796,10722.481770
1115.534480,-9190.698660,-229.767466,11794.729947
1115.534780,-11411.784169,-5514.419196,12024.497413
1115.535079,-9880.001059,-8118.450483,11718.140791
1115.535367,-3523.101153,-6893.023995,10722.481770
1115.535667,3599.690308,-4059.225241,10492.714303
1115.535967,6127.132440,-76.589155,11641.551636
1115.536267,5208.062574,3369.922842,12484.032346
1115.536567,1684.961421,4978.295107,10722.481770
1115.536867,-2067.907198,4748.527641,10109.768526
1115.537167,-5131.473418,1378.604799,10109.768526
1115.537467,-7658.915550,-3752.868619,10875.660081
1115.537767,-5284.651729,-7199.380617,10262.946837
1115.538067,-689.302399,-6586.667373,11182.016703
1115.538367,5667.597507,-3906.046930,10722.481770
1115.538667,8654.574571,1531.783110,10569.303459
1115.538967,9803.411904,6510.078217,9803.411904
1115.539267,6280.310751,9114.109504,9573.644437
1115.539567,-536.124088,6816.434839,10569.303459
1115.539867,-4748.527641,3982.636086,10033.179370
1115.540174,-6203.721595,-689.302399,9956.590215
1115.540473,-5897.364973,-5667.597507,9803.411904
1115.540772,-2221.085509,-7658.915550,10109.768526
1115.541072,3293.333686,-6280.310751,10569.303459
1115.541371,6739.845684,-3293.333686,10645.892614
1115.541670,6739.845684,765.891555,10339.535992
1115.541969,2527.442131,3216.744531,10109.768526
1115.542269,-2604.031287,4442.171019,9420.466126
1115.542589,-8118.450483,2297.674665,9650.233593
1115.542886,-11411.784169,-3293.333686,11488.373325
1115.543183,-12560.621502,-8118.450483,12330.854035
1115.543480,-5284.651729,-7965.272172,11028.838392
1115.543777,2833.798753,-4365.581863,9650.233593
1115.544074,10569.303459,-536.124088,8348.217949
1115.544371,13249.923901,4135.814397,9037.520349
1115.544668,9956.590215,6050.543284,9573.644437
1115.544987,4901.705952,5284.651729,9803.411904
1115.545285,-3676.279464,-229.767466,11564.962480
1115.545583,-8731.163727,-5514.419196,11641.551636
1115.545881,-8271.628794,-9650.233593,10875.660081
1115.546180,-4135.814397,-8577.985416,9956.590215
1115.546478,1531.783110,-6280.310751,9803.411904
1115.546776,3752.868619,-3446.511997,11947.908258
1115.547074,6127.132440,1684.961421,12637.210657
1115.547387,5208.062574,5744.186662,11488.373325
1115.547683,459.534933,7122.791461,10416.125148
1115.547979,-4135.814397,5131.473418,10262.946837
1115.548275,-8271.628794,1225.426488,11182.016703
1115.548571,-8577.985416,-3446.511997,10722.481770
1115.548867,-5131.473418,-5514.419196,10416.125148
1115.549163,-689.302399,-6127.132440,10492.714303
1115.549459,5973.954129,-3446.511997,9803.411904
1115.549759,8041.861327,459.534933,9956.590215
1115.550060,6586.667373,3982.636086,10875.660081
1115.550361,1838.139732,5131.473418,10262.946837
1115.550661,-2450.852976,4442.171019,10799.070925
1115.550962,-6663.256528,1531.783110,10569.303459
1115.551263,-7199.380617,-2680.620442,10569.303459
1115.551564,-6356.899906,-5667.597507,10262.946837
1115.551864,-229.767466,-5820.775818,9956.590215
1115.552171,6127.132440,-3293.333686,10262.946837
1115.552468,8807.752882,765.891555,11028.838392
1115.552765,8654.574571,5131.473418,10262.946837
1115.553062,3599.690308,6663.256528,9573.644437
1115.553359,-2374.263820,5591.008351,10875.660081
1115.553656,-7122.791461,2450.852976,10952.249236
1115.553953,-8577.985416,-1761.550576,10875.660081
1115.554250,-8577.985416,-5208.062574,11182.016703
1115.554564,-3063.566220,-5361.240885,10109.768526
1115.554866,2986.977064,-4212.403552,10262.946837
1115.555169,8195.039638,-1148.837332,10569.303459
1115.555472,8654.574571,1838.139732,10416.125148
1115.555775,6586.667373,4288.992708,9114.109504
1115.556077,1838.139732,3369.922842,10109.768526
1115.556380,-3216.744531,-229.767466,10645.892614
1115.556683,-6510.078217,-4825.116796,11028.838392
1115.557002,-7965.272172,-7505.737239,10109.768526
1115.557298,-4748.527641,-7658.915550,9956.590215
1115.557594,-995.659021,-7046.202306,11028.838392
1115.557890,3293.333686,-2833.798753,11028.838392
1115.558186,5973.954129,1991.318043,11564.962480
1115.558482,4518.760174,4442.171019,10416.125148
1115.558778,1072.248177,4978.295107,9803.411904
1115.559074,-2221.085509,3063.566220,10262.946837
1115.559391,-3829.457775,-1302.015643,9267.287815
1115.559686,-4442.171019,-5054.884263,9803.411904
1115.559980,-2910.387909,-7199.380617,10109.768526
1115.560275,1072.248177,-5820.775818,9956.590215
1115.560569,6586.667373,-2680.620442,10109.768526
1115.560864,7275.969772,459.534933,11182.016703
1115.561158,5054.884263,2910.387909,11182.016703
1115.561453,306.356622,5284.651729,10645.892614
1115.561753,-3676.279464,4135.814397,10722.481770
1115.562053,-8271.628794,153.178311,11028.838392
1115.562353,-9343.876971,-3599.690308,11411.784169
1115.562653,-5591.008351,-4825.116796,9650.233593
1115.562953,612.713244,-4518.760174,9650.233593
1115.563253,6127.132440,-3446.511997,10416.125148
1115.563553,5054.884263,-1455.193954,12713.799813
1115.563853,5208.062574,1378.604799,12713.799813
1115.564143,1684.961421,4442.171019,10416.125148
1115.564446,-1761.550576,3982.636086,9650.233593
1115.564749,-5437.830040,1531.783110,10722.481770
1115.565051,-7812.093861,-1761.550576,10569.303459
1115.565354,-5744.186662,-3752.868619,10109.768526
1115.565656,-1608.372265,-5208.062574,10416.125148
1115.565959,3599.690308,-4518.760174,11182.016703
1115.566262,8807.752882,153.178311,10875.660081
1115.566570,11335.195014,4978.295107,10109.768526
1115.566869,7122.791461,6356.899906,9420.466126
1115.567169,2833.798753,5437.830040,10645.892614
1115.567469,-2450.852976,3982.636086,10416.125148
1115.567769,-5744.186662,-0.000000,9803.411904
1115.568069,-8271.628794,-3906.046930,10186.357681
1115.568368,-5284.651729,-5054.884263,10799.070925
1115.568668,-995.659021,-4671.938485,11258.605858
1115.568985,2680.620442,-2680.620442,12254.264880
1115.569282,3752.868619,-0.000000,11641.551636
1115.569580,3752.868619,3676.279464,9880.001059
1115.569877,919.069866,3982.636086,9573.644437
1115.570174,-3063.566220,1991.318043,9650.233593
1115.570472,-6050.543284,-1914.728887,10569.303459
1115.570769,-7199.380617,-5820.775818,10569.303459
1115.571066,-3063.566220,-5667.597507,9880.001059
1115.571381,2680.620442,-3906.046930,10109.768526
1115.571675,8654.574571,-229.767466,9114.109504
1115.571969,9650.233593,2910.387909,9190.698660
1115.572263,6586.667373,4288.992708,9803.411904
1115.572557,306.356622,3676.279464,10416.125148
1115.572851,-4748.527641,-76.589155,11335.195014
1115.573145,-7122.791461,-3599.690308,11641.551636
1115.573440,-6969.613150,-7046.202306,10416.125148
1115.573751,-3829.457775,-7505.737239,9956.590215
1115.574051,306.356622,-6586.667373,9650.233593
1115.574351,6127.132440,-3140.155375,11028.838392
1115.574651,6433.489062,306.356622,12101.086569
1115.574951,3906.046930,3369.922842,11488.373325
1115.575252,-536.124088,5131.473418,11488.373325
1115.575552,-4825.116796,3523.101153,10186.357681
1115.575852,-7505.737239,-76.589155,10722.481770
1115.576137,-9190.698660,-4825.116796,11641.551636
1115.576439,-6356.899906,-6433.489062,10262.946837
1115.576741,153.178311,-6127.132440,9956.590215
1115.577043,6739.845684,-2067.907198,9420.466126
1115.577345,9803.411904,765.891555,10875.660081
1115.577647,8807.752882,4442.171019,10186.357681
1115.577948,4365.581863,5744.186662,10416.125148
1115.578250,-536.124088,4978.295107,10722.481770
1115.578557,-4825.116796,1531.783110,9803.411904
1115.578857,-7122.791461,-2374.263820,9803.411904
1115.579157,-7352.558928,-5361.240885,9650.233593
1115.579457,-4288.992708,-6739.845684,10722.481770
1115.579756,2374.263820,-4059.225241,10952.249236
1115.580056,6127.132440,-382.945777,10875.660081
1115.580356,6739.845684,3829.457775,10722.481770
1115.580656,2680.620442,5591.008351,10569.303459
1115.580952,-689.302399,5591.008351,10416.125148
1115.581251,-5131.473418,2910.387909,10722.481770
1115.581550,-7505.737239,-1302.015643,11335.195014
1115.581849,-5131.473418,-3140.155375,9267.287815
1115.582147,612.713244,-3293.333686,8195.039638
1115.582446,5361.240885,-2680.620442,8807.752882
1115.582745,8195.039638,-536.124088,10722.481770
1115.583044,5973.954129,765.891555,12637.210657
1115.583339,2527.442131,3063.566220,11794.729947
1115.583639,-1148.837332,3216.744531,10109.768526
1115.583939,-5591.008351,1225.426488,8884.342038
1115.584239,-6510.078217,-3140.155375,9803.411904
1115.584539,-6969.613150,-6280.310751,10875.660081
1115.584840,-2604.031287,-6893.023995,9956.590215
1115.585140,765.891555,-5973.954129,11641.551636
1115.585440,5208.062574,-3599.690308,11488.373325
1115.585728,6280.310751,459.534933,11411.784169
1115.586033,4901.705952,4595.349330,9956.590215
1115.586338,612.713244,4825.116796,9420.466126
1115.586644,-3982.636086,2144.496354,10262.946837
1115.586949,-6969.613150,-2067.907198,11105.427547
1115.587254,-6663.256528,-4901.705952,10109.768526
1115.587560,-2450.852976,-5054.884263,9726.822748
1115.587865,3446.511997,-4365.581863,9650.233593
1115.588186,7429.148083,-2527.442131,10186.357681
1115.588478,8195.039638,1072.248177,11794.729947
1115.588770,7429.148083,5131.473418,9726.822748
1115.589062,2680.620442,6050.543284,9420.466126
1115.589354,-4442.171019,1991.318043,10875.660081
1115.589646,-9573.644437,-2527.442131,11182.016703
1115.589938,-10645.892614,-5361.240885,11947.908258
1115.590230,-8271.628794,-8271.628794,10875.660081
1115.590537,-3063.566220,-8884.342038,9573.644437
1115.590835,3752.868619,-4901.705952,11182.016703
1115.591133,6893.023995,153.178311,10799.070925
1115.591431,7122.791461,4288.992708,11488.373325
1115.591730,4748.527641,7429.148083,10262.946837
1115.592028,1684.961421,7888.683016,8731.163727
1115.592326,-2910.387909,3369.922842,9573.644437
1115.592624,-7352.558928,-2986.977064,11641.551636
1115.592940,-5897.364973,-5361.240885,11028.838392
1115.593242,153.178311,-4212.403552,9573.644437
1115.593544,5361.240885,-2986.977064,10109.768526
1115.593846,6280.310751,-536.124088,11182.016703
1115.594147,6586.667373,4978.295107,11641.551636
1115.594449,3752.868619,7888.683016,9956.590215
1115.594751,-1148.837332,5897.364973,9956.590215
1115.595053,-7658.915550,1531.783110,11488.373325
1115.595367,-10033.179370,-2374.263820,11564.962480
1115.595663,-7122.791461,-5514.419196,10569.303459
1115.595959,-1148.837332,-6586.667373,9650.233593
1115.596256,3906.046930,-4901.705952,10799.070925
1115.596552,7735.504705,-1455.193954,10416.125148
1115.596848,7735.504705,2910.387909,9650.233593
1115.597144,3906.046930,4135.814397,10569.303459
1115.597441,-1455.193954,3523.101153,10416.125148
1115.597753,-6050.543284,459.534933,9803.411904
1115.598049,-8271.628794,-4518.760174,10262.946837
1115.598346,-6356.899906,-7965.272172,9803.411904
1115.598642,-1761.550576,-7046.202306,9037.520349
1115.598939,4059.225241,-4901.705952,9803.411904
1115.599235,8807.752882,-2221.085509,10416.125148
1115.599532,9267.287815,3676.279464,10722.481770
1115.599828,6280.310751,6816.434839,9420.466126
1115.600128,-229.767466,4978.295107,9267.287815
1115.600427,-6203.721595,919.069866,11335.195014
1115.600726,-9573.644437,-3906.046930,11641.551636
1115.601026,-10339.535992,-7658.915550,11258.605858
1115.601325,-4288.992708,-7812.093861,9803.411904
1115.601624,919.069866,-6893.023995,9803.411904
1115.601923,5667.597507,-3906.046930,10339.535992
1115.602222,5973.954129,-689.302399,11641.551636
1115.602530,2680.620442,2144.496354,12560.621502
1115.602832,-1455.193954,3829.457775,11641.551636
1115.603135,-5591.008351,1378.604799,11028.838392
1115.603437,-4825.116796,-0.000000,10722.481770
1115.603740,-4595.349330,-3599.690308,9956.590215
1115.604042,-1608.372265,-4671.938485,8960.931193
1115.604345,3752.868619,-2067.907198,8654.574571
1115.604647,8348.217949,765.891555,10109.768526
1115.604887,8501.396260,2757.209598,11028.838392
1115.605196,5667.597507,5131.473418,10722.481770
1115.605504,153.178311,6510.078217,10722.481770
1115.605813,-3676.279464,4442.171019,10416.125148
1115.606121,-7352.558928,-76.589155,11488.373325
1115.606430,-7812.093861,-4365.581863,11335.195014
1115.606739,-6050.543284,-4901.705952,9956.590215
1115.607047,-995.659021,-4671.938485,9803.411904
1115.607320,3906.046930,-2986.977064,10109.768526
1115.607621,5514.419196,919.069866,11335.195014
1115.607921,4518.760174,4135.814397,11182.016703
1115.608221,1225.426488,5284.651729,10109.768526
1115.608521,-1148.837332,4978.295107,11028.838392
1115.608821,-4442.171019,1838.139732,11335.195014
1115.609121,-6203.721595,-1761.550576,10645.892614
1115.609421,-2450.852976,-2986.977064,9267.287815
1115.609767,3140.155375,-2067.907198,8195.039638
1115.610059,7046.202306,-1455.193954,9267.287815
1115.610352,7888.683016,-229.767466,10722.481770
1115.610645,7582.326394,3369.922842,11794.729947
1115.610937,4748.527641,3676.279464,10262.946837
1115.611230,765.891555,3216.744531,9573.644437
1115.611523,-5131.473418,-536.124088,9650.233593
1115.611815,-9726.822748,-6280.310751,11564.962480
1115.612115,-11411.784169,-9650.233593,12254.264880
1115.612416,-6203.721595,-8118.450483,10262.946837
1115.612717,-76.589155,-6127.132440,10875.660081
1115.613017,4671.938485,-3140.155375,10875.660081
1115.613318,6127.132440,1531.783110,10875.660081
1115.613619,7122.791461,5131.473418,9497.055282
1115.613920,2527.442131,4135.814397,9803.411904
1115.614221,-4288.992708,-995.659021,11258.605858
1115.614493,-7965.272172,-5208.062574,11488.373325
1115.614795,-7199.380617,-8118.450483,10722.481770
1115.615096,-3063.566220,-8271.628794,9420.466126
1115.615398,2986.977064,-6280.310751,9037.520349
1115.615700,7888.683016,-2374.263820,9956.590215
1115.616002,10875.660081,2910.387909,10262.946837
1115.616304,8348.217949,5591.008351,10569.303459
1115.616606,1684.961421,5437.830040,10416.125148
1115.616919,-3523.101153,3829.457775,10186.357681
1115.617223,-8118.450483,-1302.015643,11182.016703
1115.617526,-9880.001059,-5361.240885,11105.427547
1115.617830,-8271.628794,-6586.667373,10416.125148
1115.618134,-2374.263820,-5054.884263,10416.125148
1115.618437,4365.581863,-2527.442131,10875.660081
1115.618741,6739.845684,765.891555,11028.838392
1115.619045,4901.705952,4978.295107,10645.892614
1115.619318,-0.000000,5591.008351,10262.946837
1115.619620,-2604.031287,4135.814397,9956.590215
1115.619923,-6356.899906,-0.000000,11028.838392
1115.620225,-7965.272172,-4059.225241,11105.427547
1115.620528,-4442.171019,-5054.884263,9803.411904
1115.620830,3140.155375,-3293.333686,9114.109504
1115.621133,10262.946837,-0.000000,9114.109504
1115.621435,11871.319102,3829.457775,9650.233593
1115.621752,10722.481770,7735.504705,10416.125148
1115.622047,5054.884263,7582.326394,10109.768526
1115.622341,-2450.852976,3676.279464,12101.086569
1115.622636,-9190.698660,-1302.015643,12560.621502
1115.622930,-10645.892614,-4518.760174,10569.303459
1115.623225,-9726.822748,-8118.450483,10569.303459
1115.623519,-4825.116796,-7199.380617,10416.125148
1115.623814,612.713244,-4518.760174,10569.303459
1115.624113,5667.597507,-689.302399,11488.373325
1115.624413,6280.310751,1531.783110,10722.481770
1115.624712,3752.868619,3982.636086,10722.481770
1115.625011,765.891555,3676.279464,9956.590215
1115.625310,-2910.387909,153.178311,9803.411904
1115.625609,-3982.636086,-4365.581863,9803.411904
1115.625908,-3676.279464,-6586.667373,9114.109504
1115.626208,-382.945777,-7046.202306,9420.466126
1115.626521,3752.868619,-4671.938485,10109.768526
1115.626820,7582.326394,-1455.193954,10262.946837
1115.627119,7046.202306,2757.209598,11028.838392
1115.627417,3906.046930,5591.008351,10109.768526
1115.627716,-1761.550576,6356.899906,9803.411904
1115.628015,-7122.791461,765.891555,11335.195014
1115.628314,-11564.962480,-4825.116796,12560.621502
1115.628612,-9726.822748,-7046.202306,11488.373325
1115.628919,-2604.031287,-7046.202306,9573.644437
1115.629217,2374.263820,-6586.667373,8960.931193
1115.629514,6280.310751,-3752.868619,10645.892614
1115.629811,7122.791461,-689.302399,12330.854035
1115.630108,6280.310751,2450.852976,10262.946837
1115.630406,2144.496354,3523.101153,9650.233593
1115.630703,-4825.116796,1838.139732,10416.125148
1115.631000,-8271.628794,-1302.015643,10875.660081
1115.631297,-7352.558928,-4518.760174,11182.016703
1115.631598,-5284.651729,-5514.419196,10722.481770
1115.631899,-382.945777,-4365.581863,11105.427547
1115.632200,5973.954129,306.356622,10722.481770
1115.632501,12024.497413,6356.899906,9803.411904
1115.632802,11794.729947,9420.466126,9114.109504
1115.633103,3906.046930,8195.039638,10109.768526
1115.633404,-3063.566220,4978.295107,11641.551636
1115.633699,-8577.985416,-382.945777,11641.551636
1115.634000,-10033.179370,-4825.116796,11488.373325
1115.634301,-9343.876971,-7658.915550,10722.481770
1115.634602,-4135.814397,-7352.558928,11182.016703
1115.634902,2374.263820,-4518.760174,10416.125148
1115.635203,7275.969772,153.178311,10492.714303
1115.635504,7122.791461,3676.279464,9956.590215
1115.635805,3906.046930,4825.116796,10645.892614
1115.636093,1378.604799,4595.349330,9573.644437
1115.636394,-1761.550576,1838.139732,9267.287815
1115.636695,-4135.814397,-2986.977064,9956.590215
1115.636996,-5284.651729,-7046.202306,10569.303459
1115.637296,-842.480710,-5667.597507,9726.822748
1115.637597,4518.760174,-2833.798753,9267.287815
1115.637898,6127.132440,-0.000000,10262.946837
1115.638199,5054.884263,3063.566220,11028.838392
1115.638513,1991.318043,5437.830040,10416.125148
1115.638811,-1302.015643,5437.830040,9956.590215
1115.639110,-5744.186662,1531.783110,10416.125148
1115.639409,-9880.001059,-4365.581863,11641.551636
1115.639707,-9343.876971,-7505.737239,11641.551636
1115.640006,-3063.566220,-7965.272172,9650.233593
1115.640305,3140.155375,-6280.310751,9573.644437
1115.640604,6893.023995,-3752.868619,9956.590215
1115.640911,6586.667373,765.891555,9956.590215
1115.641210,5667.597507,3523.101153,9420.466126
1115.641510,919.069866,3523.101153,9956.590215
1115.641810,-6663.256528,-689.302399,11641.551636
1115.642109,-10492.714303,-4901.705952,12790.388968
1115.642409,-9343.876971,-6586.667373,11182.016703
1115.642709,-2221.085509,-6280.310751,9420.466126
1115.643008,4059.225241,-4518.760174,9650.233593
1115.643305,9420.466126,-689.302399,9420.466126
1115.643602,11794.729947,3676.279464,10416.125148
1115.643900,8960.931193,6510.078217,11182.016703
1115.644197,1225.426488,5897.364973,10875.660081
1115.644494,-5284.651729,2910.387909,11794.729947
1115.644792,-9573.644437,-842.480710,11182.016703
1115.645089,-10186.357681,-4671.938485,10875.660081
1115.645387,-7199.380617,-6739.845684,10262.946837
1115.645701,-1914.728887,-5667.597507,9956.590215
1115.646000,3906.046930,-2986.977064,10875.660081
1115.646298,5820.775818,765.891555,11947.908258
1115.646597,5208.062574,5591.008351,11182.016703
1115.646896,2297.674665,7122.791461,9956.590215
1115.647195,-995.659021,5437.830040,9803.411904
1115.647493,-5437.830040,1072.248177,11182.016703
1115.647792,-7122.791461,-4059.225241,10875.660081
1115.648104,-4135.814397,-6280.310751,10109.768526
1115.648404,2297.674665,-4825.116796,9420.466126
1115.648704,7735.504705,-2067.907198,9114.109504
1115.649004,9114.109504,1225.426488,10262.946837
1115.649304,7046.202306,5131.473418,11028.838392
1115.649604,2527.442131,7275.969772,11105.427547
1115.649904,-2374.263820,6663.256528,11411.784169
1115.650204,-6203.721595,3063.566220,10569.303459
1115.650503,-7965.272172,-995.659021,10416.125148
1115.650802,-6969.613150,-4671.938485,10416.125148
1115.651101,-4288.992708,-7352.558928,10722.481770
1115.651401,-0.000000,-6739.845684,11794.729947
1115.651700,4901.705952,-3140.155375,11794.729947
1115.651999,6893.023995,1225.426488,10109.768526
1115.652298,5054.884263,3676.279464,9420.466126
1115.652598,765.891555,3369.922842,9803.411904
1115.652905,-3676.279464,-0.000000,9956.590215
1115.653201,-5897.364973,-4365.581863,10186.357681
1115.653498,-7122.791461,-7658.915550,9880.001059
1115.653795,-2757.209598,-7046.202306,9573.644437
1115.654091,3140.155375,-4365.581863,9497.055282
1115.654388,7429.148083,-1608.372265,9803.411904
1115.654684,6739.845684,2144.496354,11028.838392
1115.654981,4059.225241,4288.992708,11182.016703
1115.655302,-76.589155,5591.008351,10109.768526
1115.655599,-3829.457775,1378.604799,10262.946837
1115.655896,-9343.876971,-4059.225241,11335.195014
1115.656193,-9573.644437,-8118.450483,11488.373325
1115.656490,-4748.527641,-8884.342038,9650.233593
1115.656787,2297.674665,-7199.380617,9803.411904
1115.657084,7122.791461,-3752.868619,10569.303459
1115.657381,6893.023995,765.891555,11794.729947
1115.657700,5514.419196,4825.116796,11028.838392
1115.657998,2833.798753,7275.969772,9267.287815
1115.658296,-3216.744531,4442.171019,9956.590215
1115.658594,-9497.055282,-995.659021,12024.497413
1115.658892,-9573.644437,-5054.884263,12560.621502
1115.659191,-3369.922842,-5973.954129,9956.590215
1115.659489,4748.527641,-4212.403552,8884.342038
1115.659787,8348.217949,-1455.193954,9956.590215
1115.660100,9267.287815,2757.209598,11182.016703
1115.660399,7888.683016,6510.078217,10722.481770
1115.660697,1531.783110,7735.504705,10416.125148
1115.660996,-4978.295107,4748.527641,11182.016703
1115.661294,-12713.799813,-536.124088,12943.567279
1115.661592,-11718.140791,-5054.884263,12254.264880
1115.661891,-6663.256528,-7352.558928,9803.411904
1115.662189,612.713244,-6127.132440,9420.466126
1115.662489,6739.845684,-3906.046930,10109.768526
1115.662790,10109.768526,306.356622,9650.233593
1115.663091,10416.125148,4825.116796,9343.876971
1115.663391,3906.046930,5284.651729,9956.590215
1115.663692,-2604.031287,3829.457775,10569.303459
1115.663993,-6663.256528,765.891555,11488.373325
1115.664294,-6816.434839,-2527.442131,9956.590215
1115.664594,-4595.349330,-5820.775818,9267.287815
1115.664901,153.178311,-5820.775818,10109.768526
1115.665198,6893.023995,-2833.798753,9420.466126
1115.665495,8501.396260,-0.000000,10109.768526
1115.665792,4365.581863,2604.031287,12560.621502
1115.666089,765.891555,5131.473418,11182.016703
1115.666386,-2450.852976,6510.078217,10416.125148
1115.666683,-6969.613150,2604.031287,9956.590215
1115.666980,-10799.070925,-3446.511997,11564.962480
1115.667294,-9880.001059,-6586.667373,11947.908258
1115.667596,-3063.566220,-6433.489062,9956.590215
1115.667899,5208.062574,-4901.705952,9267.287815
1115.668202,8041.861327,-3140.155375,10109.768526
1115.668505,7429.148083,-0.000000,11028.838392
1115.668808,5514.419196,3063.566220,9956.590215
1115.669110,1531.783110,3523.101153,9726.822748
1115.669413,-3216.744531,-229.767466,10416.125148
1115.669686,-6510.078217,-3140.155375,11028.838392
1115.669989,-4825.116796,-5054.884263,9956.590215
1115.670291,-1914.728887,-6893.023995,9267.287815
1115.670594,1072.248177,-6586.667373,11411.784169
1115.670896,4671.938485,-1761.550576,12101.086569
1115.671199,5208.062574,3216.744531,11641.551636
1115.671502,4212.403552,6356.899906,10569.303459
1115.671804,-382.945777,7888.683016,10875.660081
1115.672041,-3523.101153,5131.473418,10875.660081
1115.672348,-7812.093861,-382.945777,10569.303459
1115.672655,-8118.450483,-4518.760174,11028.838392
1115.672961,-4442.171019,-7658.915550,9650.233593
1115.673268,2297.674665,-6433.489062,8884.342038
1115.673575,7275.969772,-3599.690308,9956.590215
1115.673882,7888.683016,-1608.372265,11488.373325
1115.674188,5361.240885,2604.031287,11182.016703
1115.674488,1531.783110,5744.186662,9803.411904
1115.674786,-2450.852976,3982.636086,9803.411904
1115.675083,-8118.450483,-1455.193954,12101.086569
1115.675380,-9190.698660,-4825.116796,11488.373325
1115.675678,-4135.814397,-5208.062574,9114.109504
1115.675975,1991.318043,-4212.403552,9343.876971
1115.676273,6280.310751,-2680.620442,9956.590215
1115.676570,8807.752882,765.891555,11335.195014
1115.676900,7888.683016,5437.830040,10875.660081
1115.677197,5054.884263,7429.148083,9573.644437
1115.677494,-1761.550576,5591.008351,9956.590215
1115.677791,-6816.434839,2757.209598,10722.481770
1115.678088,-9037.520349,-1608.372265,11641.551636
1115.678385,-7965.272172,-5820.775818,10569.303459
1115.678682,-2374.263820,-6433.489062,10186.357681
1115.678979,3599.690308,-4518.760174,9956.590215
1115.679287,7275.969772,-1608.372265,10109.768526
1115.679587,8041.861327,1072.248177,9650.233593
1115.679887,3599.690308,3063.566220,9956.590215
1115.680186,-1148.837332,3216.744531,10262.946837
1115.680486,-7199.380617,-1148.837332,11488.373325
1115.680786,-9037.520349,-4365.581863,12407.443191
1115.681086,-7199.380617,-5973.954129,10109.768526
1115.681386,-2067.907198,-5667.597507,9114.109504
1115.681669,4518.760174,-3446.511997,9650.233593
1115.681974,8960.931193,-382.945777,9573.644437
1115.682278,8807.752882,3523.101153,9956.590215
1115.682583,4671.938485,5131.473418,10799.070925
1115.682888,-1608.372265,4288.992708,10339.535992
1115.683193,-5744.186662,1531.783110,11488.373325
1115.683497,-8118.450483,-3140.155375,11182.016703
1115.683802,-5744.186662,-6433.489062,9880.001059
1115.684039,-1761.550576,-7352.558928,9420.466126
1115.684348,3752.868619,-5973.954129,9420.466126
1115.684657,5820.775818,-3752.868619,11182.016703
1115.684966,4365.581863,-1148.837332,13096.745590
1115.685275,2680.620442,2450.852976,11564.962480
1115.685584,-1608.372265,5591.008351,10339.535992
1115.685893,-5284.651729,3216.744531,10952.249236
1115.686201,-9037.520349,-689.302399,11641.551636
1115.686491,-8424.807105,-3906.046930,11488.373325
1115.686790,-2374.263820,-5054.884263,9650.233593
1115.687088,4518.760174,-3293.333686,9267.287815
1115.687387,10875.660081,-76.589155,9114.109504
1115.687686,11488.373325,2757.209598,9726.822748
1115.687984,8041.861327,4748.527641,10875.660081
1115.688283,1838.139732,4442.171019,11258.605858
1115.688582,-2910.387909,2910.387909,10875.660081
1115.688868,-6356.899906,-1148.837332,10262.946837
1115.689169,-9343.876971,-4518.760174,10645.892614
1115.689471,-8731.163727,-7046.202306,9956.590215
1115.689773,-4135.814397,-6433.489062,11028.838392
1115.690075,612.713244,-3293.333686,12101.086569
1115.690377,5361.240885,765.891555,11488.373325
1115.690678,5667.597507,5744.186662,10722.481770
1115.690980,3906.046930,7888.683016,9650.233593
1115.691287,1072.248177,6969.613150,9803.411904
1115.691583,-2450.852976,3982.636086,10339.535992
1115.691878,-5744.186662,-1761.550576,10416.125148
1115.692174,-4825.116796,-5054.884263,10186.357681
1115.692469,-76.589155,-5208.062574,9037.520349
1115.692765,5514.419196,-4365.581863,9420.466126
1115.693061,7582.326394,-2833.798753,10416.125148
1115.693356,5667.597507,765.891555,11182.016703
1115.693686,4212.403552,3523.101153,9420.466126
1115.693985,-229.767466,3063.566220,9267.287815
1115.694284,-5897.364973,-842.480710,10416.125148
1115.694583,-9726.822748,-4901.705952,11794.729947
1115.694881,-8884.342038,-5973.954129,11488.373325
1115.695180,-2067.907198,-5820.775818,9343.876971
1115.695479,3293.333686,-4365.581863,9573.644437
1115.695778,5820.775818,-2833.798753,11182.016703
1115.696073,5208.062574,306.356622,11182.016703
1115.696374,3293.333686,3829.457775,10952.249236
1115.696675,-995.659021,3369.922842,10109.768526
1115.696976,-6203.721595,-0.000000,10569.303459
1115.697276,-10033.179370,-3140.155375,12254.264880
1115.697577,-6969.613150,-5361.240885,11411.784169
1115.697878,-1302.015643,-5820.775818,9573.644437
1115.698179,6280.310751,-4365.581863,8960.931193
1115.698491,11028.838392,-229.767466,9650.233593
1115.698788,11871.319102,2757.209598,9956.590215
1115.699086,8960.931193,4825.116796,9726.822748
1115.699383,2680.620442,4978.295107,10109.768526
1115.699681,-5131.473418,1531.783110,10645.892614
1115.699978,-11947.908258,-4212.403552,13096.745590
1115.700275,-12866.978124,-6127.132440,12560.621502
1115.700573,-7199.380617,-6586.667373,10186.357681
1115.700905,-995.659021,-4059.225241,9114.109504
1115.701197,4059.225241,-1302.015643,10186.357681
1115.701489,5054.884263,2450.852976,11794.729947
1115.701781,5361.240885,6203.721595,11488.373325
1115.702073,306.356622,6663.256528,9956.590215
1115.702365,-3829.457775,3369.922842,11028.838392
1115.702657,-6510.078217,-0.000000,11641.551636
1115.702949,-3369.922842,-2527.442131,9343.876971
1115.703256,306.356622,-4365.581863,8654.574571
1115.703555,4365.581863,-5208.062574,9420.466126
1115.703854,7275.969772,-3599.690308,9650.233593
1115.704153,9497.055282,765.891555,9956.590215
1115.704452,6893.023995,3982.636086,11182.016703
1115.704751,1684.961421,5437.830040,10722.481770
1115.705050,-3063.566220,4288.992708,10262.946837
1115.705349,-7505.737239,2604.031287,11335.195014
1115.705665,-8424.807105,-1761.550576,11028.838392
1115.705963,-6203.721595,-4059.225241,10722.481770
1115.706261,-229.767466,-4059.225241,10262.946837
1115.706559,5361.240885,-3293.333686,9420.466126
1115.706856,6893.023995,-1302.015643,10569.303459
1115.707154,4671.938485,306.356622,10722.481770
1115.707452,612.713244,2144.496354,10875.660081
1115.707749,-4825.116796,1684.961421,11335.195014
1115.708064,-8577.985416,-842.480710,10569.303459
1115.708362,-9726.822748,-4518.760174,11182.016703
1115.708661,-7658.915550,-6280.310751,11028.838392
1115.708960,765.891555,-4825.116796,8807.752882
1115.709258,6893.023995,-3293.333686,9114.109504
1115.709557,12330.854035,-76.589155,9573.644437
1115.709856,10722.481770,3216.744531,9956.590215
1115.710155,7735.504705,4978.295107,9803.411904
1115.710490,1991.318043,4135.814397,9650.233593
1115.710785,-5437.830040,-229.767466,10416.125148
1115.711081,-11411.784169,-4518.760174,12407.443191
1115.711377,-11718.140791,-7965.272172,11411.784169
1115.711673,-6663.256528,-7965.272172,10262.946837
1115.711968,765.891555,-6433.489062,10416.125148
1115.712264,4212.403552,-3293.333686,10416.125148
1115.712560,5667.597507,919.069866,11028.838392
1115.712859,4518.760174,3369.922842,10722.481770
1115.713159,459.534933,4595.349330,10722.481770
1115.713458,-2910.387909,2757.209598,10722.481770
1115.713757,-6356.899906,-1148.837332,11182.016703
1115.714056,-5284.651729,-3599.690308,9956.590215
1115.714356,-1148.837332,-4671.938485,9114.109504
1115.714655,4059.225241,-3906.046930,8960.931193
1115.714954,7582.326394,-2374.263820,9650.233593
1115.715261,7582.326394,612.713244,11335.195014
1115.715561,4748.527641,4288.992708,12024.497413
1115.715860,1225.426488,5591.008351,10722.481770
1115.716159,-2604.031287,4748.527641,10262.946837
1115.716458,-7505.737239,612.713244,11641.551636
1115.716758,-8731.163727,-2221.085509,11028.838392
1115.717057,-6510.078217,-4825.116796,10416.125148
1115.717356,-76.589155,-4901.705952,10109.768526
1115.717677,5667.597507,-2986.977064,10262.946837
1115.717974,7046.202306,306.356622,10416.125148
1115.718271,6739.845684,3676.279464,9956.590215
1115.718568,2986.977064,4748.527641,10416.125148
1115.718865,-3829.457775,2604.031287,11794.729947
1115.719162,-9726.822748,-536.124088,12713.799813
1115.719459,-9497.055282,-2527.442131,12254.264880
1115.719756,-4442.171019,-4059.225241,8960.931193
1115.720074,1684.961421,-4212.403552,8807.752882
1115.720373,7582.326394,-1914.728887,9420.466126
1115.720671,10722.481770,1684.961421,9573.644437
1115.720969,9803.411904,4288.992708,10722.481770
1115.721267,5208.062574,4595.349330,9420.466126
1115.721566,-1455.193954,3829.457775,10722.481770
1115.721864,-6969.613150,-1148.837332,11028.838392
1115.722162,-9880.001059,-5361.240885,10722.481770
1115.722440,-9880.001059,-8424.807105,10722.481770
1115.722741,-4135.814397,-7658.915550,9803.411904
1115.723042,2144.496354,-5973.954129,9803.411904
1115.723343,6280.310751,-2680.620442,10262.946837
1115.723643,5208.062574,-76.589155,12254.264880
1115.723944,3293.333686,3676.279464,11794.729947
1115.724245,1378.604799,5897.364973,9573.644437
1115.724546,-2910.387909,2297.674665,9956.590215
1115.724846,-8577.985416,-2374.263820,11641.551636
1115.725146,-7352.558928,-5208.062574,11105.427547
1115.725447,-2067.907198,-5514.419196,9650.233593
1115.725748,4212.403552,-4825.116796,9650.233593
1115.726049,8960.931193,-1455.193954,10569.303459
1115.726349,9267.287815,2910.387909,10722.481770
1115.726650,6739.845684,6510.078217,10722.481770
1115.726951,1225.426488,6050.543284,10262.946837
1115.727292,-5437.830040,3523.101153,10875.660081
1115.727584,-10645.892614,-1761.550576,12407.443191
1115.727876,-10952.249236,-5054.884263,11488.373325
1115.728168,-4978.295107,-6127.132440,9803.411904
1115.728460,3140.155375,-5820.775818,8807.752882
1115.728752,6893.023995,-4365.581863,9650.233593
1115.729044,7735.504705,153.178311,11488.373325
1115.729336,5054.884263,3982.636086,11794.729947
1115.729678,153.178311,4748.527641,11335.195014
1115.729972,-4288.992708,3676.279464,10569.303459
1115.730265,-8271.628794,1378.604799,10262.946837
1115.730558,-7965.272172,-1148.837332,10262.946837
1115.730851,-4748.527641,-4518.760174,10262.946837
1115.731144,2374.263820,-3752.868619,9956.590215
1115.731438,8195.039638,-995.659021,9497.055282
1115.731731,10416.125148,2450.852976,9956.590215
1115.732047,8960.931193,4825.116796,9650.233593
1115.732347,4212.403552,5284.651729,10416.125148
1115.732646,-2757.209598,3369.922842,10416.125148
1115.732945,-7965.272172,-229.767466,11028.838392
1115.733244,-9880.001059,-4365.581863,11947.908258
1115.733543,-7122.791461,-7199.380617,9803.411904
1115.733843,-1302.015643,-6893.023995,9650.233593
1115.734142,3446.511997,-5054.884263,10416.125148
1115.734459,5208.062574,-2680.620442,10722.481770
1115.734757,5667.597507,1378.604799,11028.838392
1115.735055,2527.442131,4978.295107,11641.551636
1115.735352,-2067.907198,4442.171019,10416.125148
1115.735650,-6050.543284,765.891555,10416.125148
1115.735948,-7965.272172,-2067.907198,10262.946837
1115.736246,-4442.171019,-4901.705952,9114.109504
1115.736544,153.178311,-6433.489062,9650.233593
1115.736844,6739.845684,-4671.938485,9497.055282
1115.737144,11794.729947,-689.302399,9956.590215
1115.737444,12177.675724,3369.922842,9956.590215
1115.737744,7122.791461,4978.295107,9420.466126
1115.738044,-536.124088,4978.295107,10109.768526
1115.738344,-8884.342038,153.178311,12254.264880
1115.738644,-14934.885322,-6433.489062,13403.102212
1115.738944,-13786.047990,-9190.698660,13249.923901
1115.739234,-6356.899906,-9726.822748,9880.001059
1115.739533,2527.442131,-6893.023995,9573.644437
1115.739832,7888.683016,-2680.620442,9956.590215
1115.740131,9420.466126,1991.318043,10569.303459
1115.740429,5514.419196,4748.527641,10569.303459
1115.740728,-229.767466,5897.364973,10416.125148
1115.741027,-5437.830040,3369.922842,9956.590215
1115.741326,-10033.179370,-995.659021,11488.373325
1115.741632,-6816.434839,-4059.225241,10722.481770
1115.741937,306.356622,-6127.132440,9573.644437
1115.742242,8348.217949,-3752.868619,8654.574571
1115.742546,12943.567279,-536.124088,8501.396260
1115.742851,11641.551636,3523.101153,9803.411904
1115.743156,6280.310751,6203.721595,10875.660081
1115.743460,-2067.907198,6203.721595,11182.016703
1115.743765,-8884.342038,3982.636086,11488.373325
1115.744048,-13939.226301,-995.659021,12560.621502
1115.744345,-13939.226301,-5820.775818,12101.086569
1115.744641,-9497.055282,-8118.450483,11641.551636
1115.744937,-76.589155,-6893.023995,10262.946837
1115.745234,7735.504705,-2527.442131,9956.590215
1115.745530,10569.303459,765.891555,9956.590215
1115.745826,7735.504705,4442.171019,9956.590215
1115.746123,3906.046930,6510.078217,10262.946837
1115.746450,-1302.015643,5284.651729,10262.946837
1115.746746,-4748.527641,919.069866,10722.481770
1115.747042,-5437.830040,-2986.977064,11335.195014
1115.747339,-689.302399,-5054.884263,9343.876971
1115.747635,4365.581863,-5208.062574,8348.217949
1115.747931,6586.667373,-3446.511997,9803.411904
1115.748227,7046.202306,-382.945777,10645.892614
1115.748523,5054.884263,4442.171019,11105.427547
1115.748835,306.356622,5897.364973,11641.551636
1115.749133,-4748.527641,5437.830040,10569.303459
1115.749430,-8271.628794,1072.248177,11028.838392
1115.749727,-11105.427547,-4365.581863,12101.086569
1115.750025,-9343.876971,-7352.558928,11335.195014
1115.750322,-3063.566220,-6586.667373,9956.590215
1115.750620,3752.868619,-4901.705952,8195.039638
1115.750917,6280.310751,-3293.333686,9267.287815
1115.751231,4671.938485,-76.589155,11105.427547
1115.751529,2680.620442,2757.209598,11028.838392
1115.751826,-995.659021,2604.031287,10109.768526
1115.752124,-3829.457775,-689.302399,10569.303459
1115.752422,-5591.008351,-3906.046930,10875.660081
1115.752720,-2067.907198,-5820.775818,9573.644437
1115.753018,2144.496354,-6127.132440,7735.504705
1115.753316,6127.132440,-5054.884263,9420.466126
1115.753623,8195.039638,-2680.620442,11335.195014
1115.753922,6893.023995,1225.426488,11335.195014
1115.754222,4365.581863,4978.295107,10722.481770
1115.754522,-1455.193954,5437.830040,10569.303459
1115.754821,-7812.093861,2757.209598,11641.551636
1115.755121,-12101.086569,-1761.550576,12560.621502
1115.755421,-10339.535992,-3446.511997,11488.373325
1115.755720,-6203.721595,-5054.884263,9956.590215
1115.756017,153.178311,-4518.760174,9420.466126
1115.756320,5667.597507,-2067.907198,11028.838392
1115.756623,8041.861327,1838.139732,10875.660081
1115.756925,7122.791461,4595.349330,10722.481770
1115.757228,3906.046930,4825.116796,9956.590215
1115.757531,459.534933,2604.031287,9650.233593
1115.757834,-1761.550576,-689.302399,10262.946837
1115.758137,-3982.636086,-3906.046930,9956.590215
1115.758432,-2604.031287,-6127.132440,9956.590215
1115.758732,765.891555,-4059.225241,9267.287815
1115.759032,4059.225241,-995.659021,9726.822748
1115.759332,3140.155375,919.069866,11794.729947
1115.759632,1225.426488,4595.349330,12790.388968
1115.759933,612.713244,8501.396260,10569.303459
1115.760233,-1914.728887,7122.791461,9650.233593
1115.760533,-6510.078217,2604.031287,12101.086569
1115.760821,-6969.613150,-1302.015643,11641.551636
1115.761121,-3369.922842,-2527.442131,9803.411904
1115.761421,153.178311,-4901.705952,9267.287815
1115.761721,2680.620442,-5973.954129,9956.590215
1115.762021,4059.225241,-4825.116796,11641.551636
1115.762321,5054.884263,-689.302399,9956.590215
1115.762621,3293.333686,-0.000000,9650.233593
1115.762921,-76.589155,-76.589155,10416.125148
1115.763221,-2604.031287,-689.302399,10645.892614
1115.763521,-3369.922842,-2067.907198,9650.233593
1115.763821,-2067.907198,-2680.620442,9267.287815
1115.764121,153.178311,-3906.046930,9956.590215
1115.764421,3752.868619,-2221.085509,10416.125148
1115.764721,7735.504705,1225.426488,9956.590215
1115.765021,5208.062574,2910.387909,10952.249236
1115.765321,765.891555,3982.636086,11794.729947
1115.765628,-4595.349330,4288.992708,11335.195014
1115.765929,-7965.272172,1684.961421,11947.908258
1115.766231,-10186.357681,-1914.728887,12254.264880
1115.766532,-9037.520349,-4901.705952,10875.660081
1115.766834,-4135.814397,-7199.380617,9267.287815
1115.767135,2986.977064,-6893.023995,9343.876971
1115.767437,8501.396260,-5361.240885,9956.590215
1115.767738,8654.574571,-2680.620442,11258.605858
1115.768054,7122.791461,919.069866,10722.481770
1115.768348,2527.442131,3523.101153,10109.768526
1115.768642,-2374.263820,2757.209598,10033.179370
1115.768935,-8424.807105,-689.302399,11488.373325
1115.769229,-9880.001059,-3906.046930,11641.551636
1115.769523,-5744.186662,-4212.403552,10109.768526
1115.769816,1991.318043,-2986.977064,9650.233593
1115.770110,8348.217949,-0.000000,9956.590215
1115.770429,9956.590215,3523.101153,10416.125148
1115.770727,7888.683016,7122.791461,10645.892614
1115.771025,2374.263820,7735.504705,10262.946837
1115.771324,-2910.387909,5897.364973,11028.838392
1115.771622,-8577.985416,919.069866,11182.016703
1115.771920,-10033.179370,-3140.155375,10875.660081
1115.772218,-7965.272172,-5667.597507,10722.481770
1115.772516,-1914.728887,-6739.845684,9880.001059
1115.772829,3446.511997,-5514.419196,10799.070925
1115.773128,5820.775818,-1914.728887,11335.195014
1115.773426,5667.597507,2450.852976,11335.195014
1115.773725,4365.581863,5591.008351,9956.590215
1115.774023,-229.767466,5284.651729,9650.233593
1115.774322,-5284.651729,1991.318043,10416.125148
1115.774620,-7965.272172,-1608.372265,10952.249236
1115.774919,-5131.473418,-3752.868619,11028.838392
1115.775218,2144.496354,-4518.760174,9267.287815
1115.775518,7582.326394,-2221.085509,9114.109504
1115.775817,10875.660081,612.713244,9420.466126
1115.776116,9650.233593,4135.814397,9803.411904
1115.776415,5361.240885,4825.116796,10416.125148
1115.776715,-2604.031287,3523.101153,10569.303459
1115.777014,-9343.876971,-842.480710,11335.195014
1115.777313,-12101.086569,-3752.868619,12330.854035
1115.777620,-10799.070925,-7046.202306,11105.427547
1115.777917,-4978.295107,-7812.093861,9267.287815
1115.778214,765.891555,-6433.489062,9650.233593
1115.778511,4901.705952,-4825.116796,10875.660081
1115.778808,5514.419196,-1914.728887,11488.373325
1115.779104,3752.868619,1378.604799,11028.838392
1115.779401,765.891555,2910.387909,9650.233593
1115.779698,-1914.728887,612.713244,9420.466126
1115.780012,-3982.636086,-1608.372265,9803.411904
1115.780316,-4748.527641,-5054.884263,9956.590215
1115.780619,-1914.728887,-5973.954129,9956.590215
1115.780923,3752.868619,-5514.419196,9420.466126
1115.781227,9420.466126,-1761.550576,9803.411904
1115.781530,7582.326394,1378.604799,10875.660081
1115.781834,3752.868619,4748.527641,11641.551636
1115.782138,-76.589155,6203.721595,11182.016703
1115.782376,-4442.171019,4595.349330,11258.605858
1115.782680,-9037.520349,-76.589155,12101.086569
1115.782984,-10033.179370,-3906.046930,11488.373325
1115.783288,-6050.543284,-5667.597507,10875.660081
1115.783593,-76.589155,-6739.845684,10262.946837
1115.783897,4212.403552,-3752.868619,10569.303459
1115.784201,6280.310751,919.069866,10952.249236
1115.784505,5208.062574,4825.116796,11028.838392
1115.784823,765.891555,6203.721595,10262.946837
1115.785121,-4748.527641,4442.171019,11335.195014
1115.785420,-8118.450483,1684.961421,11641.551636
1115.785719,-7352.558928,-2374.263820,10875.660081
1115.786017,-2221.085509,-4825.116796,9420.466126
1115.786316,4671.938485,-3752.868619,8654.574571
1115.786614,9497.055282,-1455.193954,8960.931193
1115.786913,10875.660081,1225.426488,10109.768526
1115.787213,10109.768526,4595.349330,10339.535992
1115.787513,5208.062574,6356.899906,10416.125148
1115.787813,-2374.263820,4595.349330,10262.946837
1115.788113,-8577.985416,1225.426488,11488.373325
1115.788414,-11105.427547,-2374.263820,12560.621502
1115.788714,-10645.892614,-4212.403552,10875.660081
1115.789014,-7122.791461,-5208.062574,10645.892614
1115.789314,-1302.015643,-4671.938485,11488.373325
1115.789621,5514.419196,-2221.085509,10569.303459
1115.789918,7735.504705,1378.604799,10569.303459
1115.790215,5667.597507,3369.922842,9650.233593
1115.790512,2833.798753,2910.387909,8884.342038
1115.790809,-0.000000,-382.945777,9803.411904
1115.791106,-3216.744531,-4059.225241,9803.411904
1115.791403,-3216.744531,-6127.132440,8577.985416
1115.791700,-536.124088,-7352.558928,8960.931193
1115.792008,3140.155375,-6280.310751,9420.466126
1115.792308,4748.527641,-4212.403552,11335.195014
1115.792608,3599.690308,-0.000000,12713.799813
1115.792907,1225.426488,3523.101153,11794.729947
1115.793207,-2910.387909,4288.992708,11182.016703
1115.793507,-7199.380617,1684.961421,11794.729947
1115.793807,-11258.605858,-1761.550576,12560.621502
1115.794107,-8118.450483,-2833.798753,11335.195014
1115.794423,-1914.728887,-3752.868619,9956.590215
1115.794723,5361.240885,-3752.868619,8195.039638
1115.795022,9420.466126,-1761.550576,9650.233593
1115.795321,9497.055282,919.069866,11335.195014
1115.795620,6433.489062,2604.031287,10722.481770
1115.795919,919.069866,3369.922842,10109.768526
1115.796219,-5131.473418,1531.783110,10569.303459
1115.796518,-9497.055282,-3140.155375,11641.551636
1115.796755,-10186.357681,-6280.310751,11335.195014
1115.797063,-4595.349330,-6893.023995,10109.768526
1115.797371,3293.333686,-5514.419196,9037.520349
1115.797679,10262.946837,-842.480710,8960.931193
1115.797988,12330.854035,3982.636086,9267.287815
1115.798296,7582.326394,6050.543284,10109.768526
1115.798604,-382.945777,5591.008351,12484.032346
1115.798912,-6663.256528,4135.814397,12101.086569
1115.799202,-11258.605858,-536.124088,11794.729947
1115.799501,-10952.249236,-2680.620442,11028.838392
1115.799800,-6816.434839,-5820.775818,9803.411904
1115.800099,612.713244,-5667.597507,10109.768526
1115.800398,6127.132440,-4518.760174,10262.946837
1115.800698,10109.768526,-1302.015643,9114.109504
1115.800997,7888.683016,1838.139732,10416.125148
1115.801296,3752.868619,3523.101153,11488.373325
1115.801610,-1302.015643,4135.814397,10109.768526
1115.801908,-5284.651729,1991.318043,9956.590215
1115.802207,-6050.543284,-2221.085509,9956.590215
1115.802506,-5744.186662,-4518.760174,10339.535992
1115.802804,-229.767466,-4059.225241,11028.838392
1115.803103,5820.775818,-1302.015643,9726.822748
1115.803402,7735.504705,306.356622,10722.481770
1115.803701,5054.884263,3369.922842,11641.551636
1115.804008,2144.496354,5897.364973,11028.838392
1115.804307,-2374.263820,5897.364973,10262.946837
1115.804607,-7352.558928,919.069866,11028.838392
1115.804907,-10186.357681,-3599.690308,12560.621502
1115.805207,-7352.558928,-6433.489062,11182.016703
1115.805506,765.891555,-5973.954129,8195.039638
1115.805806,5973.954129,-5667.597507,8501.396260
1115.806106,7582.326394,-2986.977064,10109.768526
1115.806408,6127.132440,1072.248177,10416.125148
1115.806707,4059.225241,3829.457775,9956.590215
1115.807005,-2221.085509,2910.387909,10262.946837
1115.807304,-7965.272172,-689.302399,12407.443191
1115.807603,-10033.179370,-3906.046930,12713.799813
1115.807902,-6356.899906,-5514.419196,10109.768526
1115.808201,-229.767466,-5514.419196,8348.217949
1115.808500,4901.705952,-4059.225241,9420.466126
1115.808795,8960.931193,306.356622,9803.411904
1115.809096,8654.574571,2910.387909,10722.481770
1115.809397,4518.760174,4748.527641,12101.086569
1115.809698,-1914.728887,5284.651729,11794.729947
1115.809998,-5284.651729,2910.387909,11028.838392
1115.810299,-8424.807105,-1914.728887,11335.195014
1115.810600,-7965.272172,-4901.705952,11182.016703
1115.810901,-3982.636086,-6893.023995,10109.768526
1115.811189,3752.868619,-4901.705952,8501.396260
1115.811490,9267.287815,-2680.620442,9114.109504
1115.811791,7046.202306,-842.480710,10722.481770
1115.812092,4212.403552,2144.496354,11488.373325
1115.812392,-76.589155,3676.279464,11335.195014
1115.812693,-3829.457775,2297.674665,10109.768526
1115.812994,-8884.342038,-3140.155375,11335.195014
1115.813295,-10339.535992,-5514.419196,11794.729947
1115.813604,-3829.457775,-5208.062574,9880.001059
1115.813900,2986.977064,-3599.690308,8195.039638
1115.814196,6739.845684,-1302.015643,8654.574571
1115.814492,8501.396260,1991.318043,10722.481770
1115.814788,7582.326394,6050.543284,11641.551636
1115.815084,4671.938485,7735.504705,10109.768526
1115.815380,-536.124088,6050.543284,10262.946837
1115.815677,-6816.434839,1684.961421,11641.551636
1115.815984,-6969.613150,-2067.907198,10875.660081
1115.816282,-3982.636086,-3906.046930,9650.233593
1115.816581,1378.604799,-3752.868619,9114.109504
1115.816880,5054.884263,-2986.977064,9650.233593
1115.817179,7429.148083,-1148.837332,9956.590215
1115.817478,5667.597507,1225.426488,10262.946837
1115.817777,1378.604799,2604.031287,11182.016703
1115.818076,-5591.008351,459.534933,11947.908258
1115.818392,-10186.357681,-3599.690308,12407.443191
1115.818690,-10492.714303,-4212.403552,11641.551636
1115.818988,-5897.364973,-4059.225241,9650.233593
1115.819285,-382.945777,-3140.155375,8501.396260
1115.819583,4518.760174,-1914.728887,9114.109504
1115.819881,9420.466126,2604.031287,9803.411904
1115.820178,9267.287815,3982.636086,10645.892614
1115.820476,5208.062574,4288.992708,11182.016703
1115.820791,-842.480710,2910.387909,11028.838392
1115.821089,-5284.651729,-536.124088,10416.125148
1115.821388,-7812.093861,-4365.581863,11028.838392
1115.821687,-6969.613150,-7965.272172,11488.373325
1115.821985,-2374.263820,-7812.093861,10569.303459
1115.822284,4518.760174,-4671.938485,8807.752882
1115.822583,7582.326394,-1914.728887,9420.466126
1115.822881,6127.132440,-0.000000,12254.264880
1115.823169,2527.442131,3063.566220,11794.729947
1115.823472,-382.945777,4978.295107,10109.768526
1115.823774,-5897.364973,2910.387909,11182.016703
1115.824077,-10186.357681,-2221.085509,11488.373325
1115.824379,-9880.001059,-4212.403552,12101.086569
1115.824682,-3063.566220,-5208.062574,9956.590215
1115.824984,5361.240885,-3446.511997,7888.683016
1115.825287,9267.287815,-1914.728887,9420.466126
1115.825586,9650.233593,1531.783110,10262.946837
1115.825885,6893.023995,4595.349330,9956.590215
1115.826185,2144.496354,5437.830040,10416.125148
1115.826484,-4135.814397,3369.922842,10569.303459
1115.826783,-9497.055282,-229.767466,12101.086569
1115.827082,-9726.822748,-2680.620442,12101.086569
1115.827382,-6510.078217,-5054.884263,10109.768526
1115.827681,-1148.837332,-5514.419196,10722.481770
1115.827988,4365.581863,-2527.442131,10416.125148
1115.828287,9650.233593,2450.852976,9420.466126
1115.828587,9420.466126,5897.364973,9497.055282
1115.828886,2833.798753,6050.543284,11335.195014
1115.829185,-1761.550576,5284.651729,11105.427547
1115.829484,-5897.364973,1991.318043,10875.660081
1115.829784,-8577.985416,-2067.907198,11488.373325
1115.830083,-6663.256528,-6280.310751,10875.660081
1115.830403,-229.767466,-5514.419196,9956.590215
1115.830700,7429.148083,-1761.550576,8195.039638
1115.830997,9956.590215,919.069866,8195.039638
1115.831294,6739.845684,2450.852976,10875.660081
1115.831591,4059.225241,4748.527641,10492.714303
1115.831888,-1148.837332,3523.101153,9956.590215
1115.832185,-7122.791461,-1761.550576,11488.373325
1115.832483,-10799.070925,-5973.954129,12560.621502
1115.832830,-7505.737239,-8118.450483,11105.427547
1115.833120,-229.767466,-6586.667373,8195.039638
1115.833410,4365.581863,-5973.954129,9114.109504
1115.833701,6739.845684,-3446.511997,10875.660081
1115.833991,5820.775818,919.069866,10416.125148
1115.834281,2986.977064,4825.116796,10569.303459
1115.834571,-3216.744531,4442.171019,10722.481770
1115.834862,-8884.342038,153.178311,12713.799813
1115.835179,-10492.714303,-2833.798753,12407.443191
1115.835478,-6050.543284,-3446.511997,10262.946837
1115.835777,-382.945777,-4671.938485,8960.931193
1115.836077,5973.954129,-4365.581863,8654.574571
1115.836376,11182.016703,-842.480710,9573.644437
1115.836676,10722.481770,1991.318043,10033.179370
1115.836975,7735.504705,3829.457775,10262.946837
1115.837274,-536.124088,2604.031287,11411.784169
1115.837574,-5744.186662,306.356622,11641.551636
1115.837875,-9880.001059,-3293.333686,12713.799813
1115.838175,-8118.450483,-5361.240885,10569.303459
1115.838476,-3676.279464,-6893.023995,9803.411904
1115.838777,1072.248177,-5361.240885,9803.411904
1115.839078,5514.419196,-2067.907198,9573.644437
1115.839378,5514.419196,1838.139732,10722.481770
1115.839679,2680.620442,4442.171019,11335.195014
1115.839986,-1302.015643,5131.473418,12024.497413
1115.840283,-4748.527641,4135.814397,11182.016703
1115.840580,-7199.380617,1225.426488,11182.016703
1115.840877,-7352.558928,-3293.333686,11641.551636
1115.841174,-4595.349330,-5514.419196,10722.481770
1115.841470,3599.690308,-3599.690308,8501.396260
1115.841767,9420.466126,-1608.372265,7275.969772
1115.842064,10109.768526,1072.248177,9803.411904
1115.842378,7275.969772,3369.922842,10722.481770
1115.842681,4059.225241,6356.899906,11028.838392
1115.842984,-2067.907198,4595.349330,10722.481770
1115.843287,-6663.256528,1684.961421,12254.264880
1115.843589,-8118.450483,-995.659021,12407.443191
1115.843892,-4135.814397,-1608.372265,9880.001059
1115.844195,1225.426488,-1302.015643,9114.109504
1115.844498,4212.403552,-1302.015643,9114.109504
1115.844816,5820.775818,-229.767466,10952.249236
1115.845108,4748.527641,1378.604799,11641.551636
1115.845400,3446.511997,3676.279464,11028.838392
1115.845692,-2450.852976,1684.961421,10722.481770
1115.845984,-7122.791461,-2374.263820,11182.016703
1115.846276,-8118.450483,-4518.760174,11335.195014
1115.846568,-6203.721595,-4825.116796,10109.768526
1115.846859,-2450.852976,-6127.132440,8960.931193
1115.847177,2527.442131,-5208.062574,10109.768526
1115.847474,7582.326394,-1761.550576,10416.125148
1115.847772,8654.574571,2604.031287,10186.357681
1115.848070,5973.954129,4288.992708,10262.946837
1115.848368,-0.000000,2910.387909,10416.125148
1115.848666,-3829.457775,153.178311,10722.481770
1115.848963,-8118.450483,-3293.333686,11028.838392
1115.849261,-8577.985416,-6280.310751,10875.660081
1115.849561,-5131.473418,-7046.202306,10262.946837
1115.849861,1991.318043,-6433.489062,8807.752882
1115.850161,5820.775818,-4518.760174,9267.287815
1115.850461,5208.062574,-2221.085509,11794.729947
1115.850761,4212.403552,612.713244,11335.195014
1115.851061,1225.426488,3676.279464,10109.768526
1115.851361,-2757.209598,1531.783110,11105.427547
1115.851661,-7505.737239,-2221.085509,11794.729947
1115.851952,-7658.915550,-2986.977064,11488.373325
1115.852253,-2604.031287,-4365.581863,9114.109504
1115.852554,2297.674665,-5054.884263,9267.287815
1115.852856,5667.597507,-3446.511997,10569.303459
1115.853157,8807.752882,306.356622,9573.644437
1115.853458,6893.023995,3676.279464,10262.946837
1115.853759,1378.604799,4748.527641,10416.125148
1115.854061,-4442.171019,3676.279464,11641.551636
1115.854368,-9343.876971,919.069866,12637.210657
1115.854665,-8118.450483,-1455.193954,10722.481770
1115.854962,-4288.992708,-3752.868619,10262.946837
1115.855259,2144.496354,-3446.511997,9956.590215
1115.855557,8807.752882,-1148.837332,8807.752882
1115.855854,10416.125148,1991.318043,9037.520349
1115.856151,5973.954129,3216.744531,10875.660081
1115.856448,-689.302399,4135.814397,12560.621502
1115.856778,-6663.256528,3982.636086,11028.838392
1115.857074,-11105.427547,1225.426488,11794.729947
1115.857371,-11947.908258,-3140.155375,11947.908258
1115.857667,-6203.721595,-2833.798753,10569.303459
1115.857963,2680.620442,-2374.263820,9267.287815
1115.858260,10262.946837,-1608.372265,7582.326394
1115.858556,13403.102212,1378.604799,8960.931193
1115.858852,13403.102212,4825.116796,9573.644437
1115.859185,8195.039638,5897.364973,9420.466126
1115.859479,-229.767466,4748.527641,9420.466126
1115.859773,-8577.985416,-229.767466,10722.481770
1115.860067,-14781.707011,-6586.667373,13096.745590
1115.860361,-15088.063633,-10033.179370,13096.745590
1115.860655,-8731.163727,-10033.179370,10875.660081
1115.860949,1225.426488,-7352.558928,9267.287815
1115.861244,7429.148083,-3599.690308,9114.109504
1115.861555,8195.039638,-0.000000,11028.838392
1115.861855,5361.240885,3982.636086,10875.660081
1115.862154,1838.139732,4978.295107,10109.768526
1115.862453,-3369.922842,2757.209598,10722.481770
1115.862752,-8271.628794,-2527.442131,11488.373325
1115.863051,-6510.078217,-4518.760174,11182.016703
1115.863350,459.534933,-6127.132440,8501.396260
1115.863649,6893.023995,-6127.132440,8501.396260
1115.863959,9420.466126,-3293.333686,9573.644437
1115.864257,7046.202306,1072.248177,11028.838392
1115.864556,4212.403552,3982.636086,10875.660081
1115.864854,-1914.728887,5744.186662,10952.249236
1115.865153,-6969.613150,4978.295107,11335.195014
1115.865451,-10186.357681,765.891555,11335.195014
1115.865750,-9343.876971,-2986.977064,11641.551636
1115.866048,-5131.473418,-7199.380617,10875.660081
1115.866355,2527.442131,-8118.450483,9420.466126
1115.866654,8348.217949,-4901.705952,8807.752882
1115.866953,10416.125148,-536.124088,8960.931193
1115.867252,5361.240885,612.713244,10645.892614
1115.867551,-2450.852976,1991.318043,12790.388968
1115.867850,-6510.078217,3523.101153,12024.497413
1115.868149,-9343.876971,765.891555,12101.086569
1115.868447,-9343.876971,-995.659021,11947.908258
1115.868744,-1914.728887,-1302.015643,9497.055282
1115.869044,6739.845684,459.534933,8195.039638
1115.869343,11641.551636,1684.961421,7888.683016
1115.869643,11488.373325,3829.457775,10109.768526
1115.869942,7429.148083,5284.651729,10875.660081
1115.870242,1991.318043,5897.364973,10722.481770
1115.870542,-5131.473418,3982.636086,12254.264880
1115.870841,-10952.249236,-0.000000,12943.567279
1115.871169,-10952.249236,-2680.620442,11335.195014
1115.871467,-6816.434839,-3752.868619,9803.411904
1115.871766,-382.945777,-4825.116796,9497.055282
1115.872065,3906.046930,-5361.240885,10109.768526
1115.872364,7046.202306,-2680.620442,11182.016703
1115.872663,5973.954129,153.178311,11028.838392
1115.872961,4059.225241,3523.101153,9956.590215
1115.873260,-2221.085509,2604.031287,10416.125148
1115.873548,-6969.613150,-229.767466,10875.660081
1115.873849,-7505.737239,-3293.333686,11028.838392
1115.874150,-5744.186662,-5054.884263,10262.946837
1115.874451,1531.783110,-5667.597507,8654.574571
1115.874752,8348.217949,-3906.046930,7582.326394
1115.875052,11641.551636,-1148.837332,8807.752882
1115.875353,8041.861327,1225.426488,10262.946837
1115.875654,1684.961421,2604.031287,11794.729947
1115.875963,-3982.636086,3523.101153,10875.660081
1115.876262,-9190.698660,153.178311,10875.660081
1115.876560,-12866.978124,-4212.403552,12254.264880
1115.876859,-10033.179370,-7199.380617,11794.729947
1115.877158,-2374.263820,-7199.380617,9420.466126
1115.877456,5973.954129,-7658.915550,8654.574571
1115.877755,10416.125148,-4901.705952,9420.466126
1115.878054,10262.946837,-995.659021,10262.946837
1115.878361,4901.705952,1378.604799,10722.481770
1115.878659,-1302.015643,3676.279464,10262.946837
1115.878957,-7505.737239,3523.101153,11028.838392
1115.879255,-13020.156435,-1148.837332,12560.621502
1115.879553,-13479.691368,-4671.938485,13249.923901
1115.879851,-5437.830040,-5514.419196,10875.660081
1115.880149,5667.597507,-4365.581863,8424.807105
1115.880448,13096.745590,-2067.907198,8041.861327
1115.880764,14551.939545,2757.209598,8424.807105
1115.881062,10109.768526,4748.527641,10109.768526
1115.881361,3140.155375,5897.364973,11182.016703
1115.881659,-4978.295107,3369.922842,12101.086569
1115.881958,-11258.605858,919.069866,12713.799813
1115.882256,-10799.070925,-1608.372265,10722.481770
1115.882555,-5591.008351,-2527.442131,10262.946837
1115.882853,1378.604799,-2833.798753,10033.179370
1115.883167,5208.062574,-1608.372265,10262.946837
1115.883466,6586.667373,1684.961421,11335.195014
1115.883765,3140.155375,4135.814397,11258.605858
1115.884063,-1302.015643,5284.651729,12407.443191
1115.884362,-6203.721595,5131.473418,12101.086569
1115.884661,-7658.915550,2910.387909,11028.838392
1115.884960,-6816.434839,-842.480710,10875.660081
1115.885258,-2067.907198,-4212.403552,10109.768526
1115.885546,5820.775818,-4365.581863,9114.109504
1115.885846,12484.032346,-995.659021,8195.039638
1115.886146,13862.637145,919.069866,8501.396260
1115.886446,9267.287815,2604.031287,10109.768526
1115.886746,1531.783110,3676.279464,11488.373325
1115.887046,-5591.008351,4135.814397,10799.070925
1115.887346,-10799.070925,-229.767466,11641.551636
1115.887646,-12254.264880,-5054.884263,11564.962480
1115.887946,-6510.078217,-6127.132440,10416.125148
1115.888244,153.178311,-6433.489062,8195.039638
1115.888543,4212.403552,-6433.489062,8654.574571
1115.888842,5820.775818,-4518.760174,11488.373325
1115.889141,5054.884263,-1761.550576,11641.551636
1115.889439,1684.961421,1684.961421,10262.946837
1115.889738,-2910.387909,1991.318043,9650.233593
1115.890037,-8731.163727,-1302.015643,11488.373325
1115.890344,-9497.055282,-3446.511997,12101.086569
1115.890646,-5437.830040,-5054.884263,10033.179370
1115.890949,459.534933,-6127.132440,9114.109504
1115.891251,6893.023995,-5973.954129,9420.466126
1115.891554,11182.016703,-1302.015643,9573.644437
1115.891857,10875.660081,2450.852976,9420.466126
1115.892159,6280.310751,4595.349330,10262.946837
1115.892462,-1148.837332,4595.349330,11564.962480
1115.892736,-5897.364973,3216.744531,11182.016703
1115.893040,-9037.520349,-842.480710,11488.373325
1115.893343,-9190.698660,-4212.403552,11411.784169
1115.893647,-4595.349330,-6127.132440,10492.714303
1115.893951,1531.783110,-5973.954129,9573.644437
1115.894254,5361.240885,-3140.155375,9880.001059
1115.894558,5054.884263,-842.480710,10722.481770
1115.894861,765.891555,919.069866,12101.086569
1115.895135,-2757.209598,3676.279464,11794.729947
1115.895435,-5284.651729,2604.031287,11028.838392
1115.895735,-8271.628794,-689.302399,11641.551636
1115.896035,-7199.380617,-2833.798753,12101.086569
1115.896335,-0.000000,-2680.620442,9267.287815
1115.896635,7735.504705,-382.945777,7812.093861
1115.896935,12790.388968,612.713244,8041.861327
1115.897235,12177.675724,3216.744531,9573.644437
1115.897552,8807.752882,4978.295107,10569.303459
1115.897851,2680.620442,6050.543284,9956.590215
1115.898150,-4825.116796,4442.171019,10569.303459
1115.898448,-10952.249236,153.178311,12101.086569
1115.898747,-14245.582923,-4671.938485,14015.815456
1115.899045,-11258.605858,-6127.132440,12713.799813
1115.899344,-4442.171019,-4825.116796,10339.535992
1115.899642,4212.403552,-2680.620442,8654.574571
1115.899942,9267.287815,765.891555,8041.861327
1115.900239,9267.287815,2757.209598,9956.590215
1115.900536,4059.225241,3369.922842,10569.303459
1115.900832,-1761.550576,1684.961421,11641.551636
1115.901129,-6510.078217,-2374.263820,11794.729947
1115.901426,-7658.915550,-4212.403552,10569.303459
1115.901723,-5131.473418,-6433.489062,9650.233593
1115.902019,1838.139732,-5054.884263,8424.807105
1115.902326,7429.148083,-4518.760174,8960.931193
1115.902627,11641.551636,-536.124088,9343.876971
1115.902928,9803.411904,2757.209598,10339.535992
1115.903230,3752.868619,3829.457775,11182.016703
1115.903531,-2910.387909,3676.279464,12101.086569
1115.903832,-9497.055282,1991.318043,11794.729947
1115.904133,-13173.334746,-1148.837332,12407.443191
1115.904434,-12407.443191,-2986.977064,11641.551636
1115.904742,-6663.256528,-3752.868619,10569.303459
1115.905038,459.534933,-4212.403552,9956.590215
1115.905335,6127.132440,-2833.798753,10416.125148
1115.905631,8195.039638,-842.480710,10416.125148
1115.905928,5973.954129,306.356622,10109.768526
1115.906224,1838.139732,1225.426488,10416.125148
1115.906521,-3216.744531,-689.302399,11335.195014
1115.906817,-5437.830040,-3446.511997,11718.140791
1115.907134,-3216.744531,-4518.760174,9956.590215
1115.907434,1531.783110,-4212.403552,7275.969772
1115.907735,6586.667373,-4212.403552,8195.039638
1115.908036,8960.931193,-2221.085509,9573.644437
1115.908336,9420.466126,1991.318043,9803.411904
1115.908637,4748.527641,4442.171019,11335.195014
1115.908938,-2757.209598,4978.295107,11641.551636
1115.909238,-10186.357681,4135.814397,12560.621502
1115.909553,-15700.776877,1684.961421,13709.458834
1115.909851,-15088.063633,-1302.015643,12713.799813
1115.910148,-8731.163727,-2680.620442,10569.303459
1115.910446,1378.604799,-2527.442131,10262.946837
1115.910743,9650.233593,-2374.263820,8348.217949
1115.911041,13249.923901,-76.589155,9037.520349
1115.911339,11028.838392,765.891555,10569.303459
1115.911636,5820.775818,765.891555,10416.125148
1115.911878,-229.767466,919.069866,11028.838392
1115.912185,-4442.171019,-689.302399,10569.303459
1115.912493,-6969.613150,-3140.155375,10875.660081
1115.912800,-4288.992708,-3752.868619,10416.125148
1115.913108,1531.783110,-2833.798753,9573.644437
1115.913415,7122.791461,-689.302399,9420.466126
1115.913723,9114.109504,1838.139732,9956.590215
1115.914030,5820.775818,3369.922842,11028.838392
1115.914316,-1148.837332,4748.527641,12407.443191
1115.914618,-7352.558928,5284.651729,11641.551636
1115.914919,-11718.140791,1378.604799,11182.016703
1115.915221,-13939.226301,-2527.442131,12407.443191
1115.915523,-9343.876971,-5514.419196,11794.729947
1115.915825,-689.302399,-6433.489062,7965.272172
1115.916127,7582.326394,-6280.310751,7735.504705
1115.916428,10875.660081,-5973.954129,9497.055282
1115.916736,9956.590215,-3140.155375,10262.946837
1115.917033,6893.023995,-0.000000,9650.233593
1115.917330,459.534933,612.713244,9267.287815
1115.917627,-6663.256528,-689.302399,11794.729947
1115.917924,-9573.644437,-1914.728887,11641.551636
1115.918222,-5591.008351,-1302.015643,8960.931193
1115.918519,-1302.015643,-1302.015643,9650.233593
1115.918816,2986.977064,-2680.620442,9650.233593
1115.919113,6893.023995,-842.480710,11182.016703
1115.919414,8041.861327,4135.814397,10645.892614
1115.919715,4059.225241,5437.830040,10109.768526
1115.920016,-4442.171019,4288.992708,12407.443191
1115.920317,-8424.807105,2604.031287,11794.729947
1115.920618,-8884.342038,459.534933,11182.016703
1115.920919,-6356.899906,-2833.798753,10262.946837
1115.921220,-2221.085509,-6739.845684,9956.590215
1115.921548,4518.760174,-8271.628794,9573.644437
1115.921844,11182.016703,-5361.240885,8654.574571
1115.922140,9956.590215,-3752.868619,9267.287815
1115.922436,4901.705952,-1455.193954,11182.016703
1115.922732,-1608.372265,1378.604799,12254.264880
1115.923029,-5591.008351,2604.031287,11564.962480
1115.923325,-10033.179370,2910.387909,11641.551636
1115.923621,-11258.605858,-229.767466,12790.388968
1115.923909,-5897.364973,153.178311,10492.714303
1115.924210,4518.760174,1378.604799,8501.396260
1115.924511,9497.055282,2144.496354,8118.450483
1115.924812,9803.411904,2910.387909,10033.179370
1115.925112,6739.845684,3523.101153,10569.303459
1115.925413,1072.248177,4442.171019,11794.729947
1115.925714,-4825.116796,3523.101153,11794.729947
1115.926015,-9726.822748,-382.945777,12254.264880
1115.926347,-9497.055282,-2374.263820,11641.551636
1115.926643,-2757.209598,-3446.511997,9037.520349
1115.926938,3140.155375,-4901.705952,8577.985416
1115.927233,8348.217949,-4825.116796,9343.876971
1115.927529,10109.768526,-2986.977064,9803.411904
1115.927824,7888.683016,-382.945777,9726.822748
1115.928119,-229.767466,1072.248177,11335.195014
1115.928415,-8577.985416,1225.426488,12254.264880
1115.928722,-12101.086569,306.356622,12407.443191
1115.929021,-11411.784169,-382.945777,11182.016703
1115.929321,-5591.008351,-689.302399,9573.644437
1115.929621,1225.426488,-1608.372265,9650.233593
1115.929920,7735.504705,-1455.193954,9114.109504
1115.930220,13403.102212,765.891555,8195.039638
1115.930520,9497.055282,612.713244,10186.357681
1115.930819,3752.868619,612.713244,11335.195014
1115.931116,-3369.922842,459.534933,12177.675724
1115.931413,-7199.380617,-1455.193954,11335.195014
1115.931711,-8577.985416,-3752.868619,11794.729947
1115.932008,-5284.651729,-4901.705952,10416.125148
1115.932305,1225.426488,-4212.403552,8271.628794
1115.932603,7735.504705,-3599.690308,8501.396260
1115.932900,8807.752882,-2221.085509,9114.109504
1115.933198,4901.705952,-229.767466,12177.675724
1115.933554,-995.659021,1531.783110,12101.086569
1115.933847,-7352.558928,2604.031287,11794.729947
1115.934140,-11871.319102,153.178311,12407.443191
1115.934432,-14475.350389,-2374.263820,13096.745590
1115.934725,-9037.520349,-3599.690308,11794.729947
1115.935018,919.069866,-2374.263820,7888.683016
1115.935310,10262.946837,-1608.372265,6433.489062
1115.935603,14551.939545,-1148.837332,8960.931193
1115.935914,14015.815456,1531.783110,9267.287815
1115.936214,9803.411904,3676.279464,9803.411904
1115.936513,153.178311,2757.209598,11182.016703
1115.936812,-8884.342038,-229.767466,12560.621502
1115.937111,-13173.334746,-1608.372265,13709.458834
1115.937410,-9880.001059,-2527.442131,10339.535992
1115.937709,-4595.349330,-3599.690308,8807.752882
1115.938008,2374.263820,-2067.907198,9420.466126
1115.938307,6893.023995,-382.945777,10109.768526
1115.938607,8195.039638,1991.318043,10492.714303
1115.938906,4212.403552,3829.457775,11794.729947
1115.939205,-2067.907198,4748.527641,11794.729947
1115.939504,-6663.256528,4288.992708,11335.195014
1115.939804,-8424.807105,1838.139732,10875.660081
1115.940103,-6969.613150,-2221.085509,10262.946837
1115.940402,-1302.015643,-3599.690308,10416.125148
1115.940709,6893.023995,-4671.938485,8654.574571
1115.941008,12790.388968,-4059.225241,7888.683016
1115.941308,13403.102212,-1455.193954,9803.411904
1115.941607,8501.396260,765.891555,10109.768526
1115.941906,1684.961421,2910.387909,10722.481770
1115.942206,-5284.651729,3216.744531,10875.660081
1115.942505,-11258.605858,-0.000000,11335.195014
1115.942804,-13632.869679,-2527.442131,12943.567279
1115.943125,-9190.698660,-4059.225241,11028.838392
1115.943422,-1302.015643,-3293.333686,9114.109504
1115.943719,4748.527641,-4365.581863,9037.520349
1115.944016,6280.310751,-2067.907198,10722.481770
1115.944313,6586.667373,459.534933,11028.838392
1115.944610,306.356622,1684.961421,11794.729947
1115.944907,-4442.171019,1531.783110,10875.660081
1115.945204,-9726.822748,-1455.193954,11028.838392
1115.945551,-9497.055282,-4212.403552,12254.264880
1115.945846,-4442.171019,-6127.132440,9803.411904
1115.946141,2833.798753,-6433.489062,8960.931193
1115.946436,11794.729947,-5667.597507,8041.861327
1115.946731,15930.544344,-1914.728887,7582.326394
1115.947026,13249.923901,459.534933,9573.644437
1115.947320,4671.938485,1838.139732,11182.016703
1115.947615,-3063.566220,2757.209598,11641.551636
1115.947928,-9037.520349,2144.496354,11794.729947
1115.948224,-14781.707011,-1148.837332,12713.799813
1115.948520,-13939.226301,-2986.977064,11488.373325
1115.948816,-6510.078217,-4059.225241,10569.303459
1115.949112,2833.798753,-3446.511997,9573.644437
1115.949408,7888.683016,-1608.372265,9803.411904
1115.949704,8195.039638,1072.248177,11028.838392
1115.950000,5208.062574,2604.031287,10722.481770
1115.950300,-689.302399,3063.566220,11182.016703
1115.950601,-6969.613150,919.069866,11947.908258
1115.950902,-9037.520349,-689.302399,11641.551636
1115.951202,-4825.116796,-3293.333686,10262.946837
1115.951503,612.713244,-4365.581863,9650.233593
1115.951804,8654.574571,-3752.868619,8501.396260
1115.952105,12637.210657,-229.767466,8807.752882
1115.952405,13709.458834,3523.101153,8960.931193
1115.952712,5514.419196,3982.636086,11028.838392
1115.953009,-4442.171019,6050.543284,13709.458834
1115.953306,-10186.357681,6510.078217,12407.443191
1115.953603,-13020.156435,4135.814397,11947.908258
1115.953900,-11411.784169,-229.767466,11641.551636
1115.954197,-6816.434839,-3140.155375,10952.249236
1115.954494,2833.798753,-2986.977064,9114.109504
1115.954790,9267.287815,-3293.333686,8348.217949
1115.955104,11488.373325,-3140.155375,9650.233593
1115.955407,8654.574571,-2221.085509,9956.590215
1115.955710,3293.333686,-536.124088,9803.411904
1115.956013,-4135.814397,-1914.728887,10569.303459
1115.956315,-8731.163727,-3446.511997,11335.195014
1115.956618,-9497.055282,-4365.581863,11488.373325
1115.956921,-4442.171019,-3599.690308,9573.644437
1115.957224,2374.263820,-3446.511997,8195.039638
1115.957490,7046.202306,-2221.085509,9114.109504
1115.957790,10109.768526,306.356622,9267.287815
1115.958090,7735.504705,3063.566220,9956.590215
1115.958390,1991.318043,4748.527641,10722.481770
1115.958690,-5591.008351,3216.744531,12254.264880
1115.958990,-11871.319102,-382.945777,13173.334746
1115.959290,-13479.691368,-3293.333686,12943.567279
1115.959590,-9343.876971,-5054.884263,10416.125148
1115.959908,-2757.209598,-5361.240885,9114.109504
1115.960205,4748.527641,-5973.954129,8807.752882
1115.960503,9956.590215,-4671.938485,9420.466126
1115.960801,9650.233593,-2527.442131,10722.481770
1115.961099,4901.705952,-1608.372265,9956.590215
1115.961397,-1608.372265,-842.480710,11335.195014
1115.961694,-5437.830040,-689.302399,12254.264880
1115.961992,-7122.791461,-2067.907198,12484.032346
1115.962292,-3523.101153,-1608.372265,10569.303459
1115.962592,3752.868619,-842.480710,8348.217949
1115.962892,10109.768526,-0.000000,6969.613150
1115.963192,11641.551636,2144.496354,8501.396260
1115.963492,7735.504705,3829.457775,11335.195014
1115.963792,-0.000000,3523.101153,12713.799813
1115.964092,-6816.434839,4288.992708,12790.388968
1115.964392,-11718.140791,2757.209598,12790.388968
1115.964722,-14628.528700,919.069866,12943.567279
1115.965019,-10952.249236,-1302.015643,11794.729947
1115.965316,-4825.116796,-1914.728887,9956.590215
1115.965613,4059.225241,-2221.085509,9190.698660
1115.965910,10569.303459,-1455.193954,9114.109504
1115.966207,12330.854035,919.069866,9114.109504
1115.966504,8348.217949,1531.783110,9803.411904
1115.966801,2374.263820,2450.852976,11335.195014
1115.967109,-3216.744531,2297.674665,10262.946837
1115.967409,-7658.915550,-76.589155,10569.303459
1115.967709,-9343.876971,-2833.798753,11641.551636
1115.968008,-5437.830040,-2680.620442,10722.481770
1115.968308,2986.977064,-1608.372265,8960.931193
1115.968608,9956.590215,-0.000000,7735.504705
1115.968908,12484.032346,2604.031287,8041.861327
1115.969208,7582.326394,1838.139732,10262.946837
1115.969490,306.356622,612.713244,12101.086569
1115.969792,-6969.613150,-76.589155,11794.729947
1115.970094,-10799.070925,-3599.690308,12177.675724
1115.970396,-13632.869679,-5820.775818,12790.388968
1115.970698,-8424.807105,-6127.132440,11028.838392
1115.971000,612.713244,-4365.581863,8041.861327
1115.971302,7275.969772,-2374.263820,8424.807105
1115.971603,9650.233593,-995.659021,9650.233593
1115.971885,9114.109504,1838.139732,10569.303459
1115.972184,4212.403552,2910.387909,10492.714303
1115.972483,-3369.922842,1072.248177,11028.838392
1115.972782,-10799.070925,-2067.907198,12943.567279
1115.973080,-12407.443191,-4059.225241,13249.923901
1115.973379,-6356.899906,-3140.155375,10875.660081
1115.973678,612.713244,-3140.155375,8195.039638
1115.973977,7122.791461,-2680.620442,7888.683016
1115.974289,10569.303459,-1761.550576,8960.931193
1115.974589,10262.946837,306.356622,10033.179370
1115.974889,5514.419196,2604.031287,10262.946837
1115.975189,-1302.015643,1072.248177,10799.070925
1115.975489,-9190.698660,-2374.263820,12407.443191
1115.975789,-10799.070925,-5054.884263,12101.086569
1115.976089,-8118.450483,-4365.581863,10875.660081
1115.976389,-1914.728887,-3906.046930,8654.574571
1115.976702,3906.046930,-2833.798753,8960.931193
1115.977000,8348.217949,-536.124088,10109.768526
1115.977298,9114.109504,2450.852976,9190.698660
1115.977596,5514.419196,4595.349330,9956.590215
1115.977894,-536.124088,5131.473418,11411.784169
1115.978192,-7965.272172,3063.566220,12407.443191
1115.978490,-10952.249236,765.891555,12943.567279
1115.978787,-10186.357681,-1455.193954,12254.264880
1115.979094,-4595.349330,-2374.263820,10722.481770
1115.979394,3140.155375,-2221.085509,9267.287815
1115.979694,9497.055282,306.356622,8501.396260
1115.979994,12177.675724,2910.387909,9114.109504
1115.980294,8195.039638,3523.101153,10262.946837
1115.980593,2297.674665,3523.101153,11641.551636
1115.980893,-3369.922842,2604.031287,11488.373325
1115.981193,-7122.791461,-76.589155,12254.264880
1115.981490,-8118.450483,-2986.977064,10645.892614
1115.981788,-4135.814397,-3906.046930,9956.590215
1115.982087,1531.783110,-4059.225241,9267.287815
1115.982386,6739.845684,-3293.333686,8654.574571
1115.982685,7582.326394,-2374.263820,9956.590215
1115.982984,4671.938485,-76.589155,11028.838392
1115.983282,-842.480710,1225.426488,11182.016703
1115.983581,-7199.380617,919.069866,12101.086569
1115.983876,-10645.892614,-995.659021,12943.567279
1115.984176,-9726.822748,-689.302399,11564.962480
1115.984476,-3982.636086,-1148.837332,8807.752882
1115.984777,1684.961421,-1914.728887,8348.217949
1115.985077,7275.969772,-2221.085509,9267.287815
1115.985377,10722.481770,-382.945777,9650.233593
1115.985677,9803.411904,1991.318043,9650.233593
1115.985977,4212.403552,2297.674665,10262.946837
1115.986265,-2450.852976,1991.318043,12101.086569
1115.986566,-6356.899906,1378.604799,10109.768526
1115.986867,-9726.822748,-1148.837332,10339.535992
1115.987168,-9497.055282,-4671.938485,10722.481770
1115.987468,-4748.527641,-7046.202306,10722.481770
1115.987769,3293.333686,-6280.310751,9956.590215
1115.988070,9956.590215,-3446.511997,8654.574571
1115.988371,10262.946837,-536.124088,9650.233593
1115.988680,4059.225241,919.069866,11182.016703
1115.988979,-3063.566220,1684.961421,11641.551636
1115.989277,-10492.714303,153.178311,12790.388968
1115.989576,-13632.869679,-2374.263820,14168.993767
1115.989875,-9880.001059,-2527.442131,11488.373325
1115.990174,-2450.852976,-2680.620442,9420.466126
1115.990473,8041.861327,-1761.550576,8195.039638
1115.990772,15011.474478,1225.426488,7888.683016
1115.991113,16236.900966,4288.992708,8348.217949
1115.991406,10875.660081,4978.295107,10722.481770
1115.991699,612.713244,4442.171019,11641.551636
1115.991993,-8731.163727,2757.209598,12407.443191
1115.992286,-14245.582923,459.534933,13096.745590
1115.992579,-15547.598566,-3752.868619,12560.621502
1115.992873,-9726.822748,-3752.868619,11794.729947
1115.993166,612.713244,-2374.263820,9114.109504
1115.993482,8195.039638,-689.302399,7888.683016
1115.993781,11871.319102,459.534933,8807.752882
1115.994079,8501.396260,1225.426488,9803.411904
1115.994378,153.178311,612.713244,11488.373325
1115.994676,-6663.256528,-382.945777,11794.729947
1115.994975,-9343.876971,-2527.442131,11335.195014
1115.995273,-7812.093861,-4059.225241,11488.373325
1115.995571,-2374.263820,-4212.403552,9650.233593
1115.995886,5514.419196,-3906.046930,8348.217949
1115.996184,11641.551636,-2067.907198,8654.574571
1115.996483,14858.296167,306.356622,9267.287815
1115.996782,10109.768526,2450.852976,10262.946837
1115.997081,4365.581863,4135.814397,9650.233593
1115.997379,-4288.992708,4135.814397,10416.125148
1115.997678,-11105.427547,306.356622,12101.086569
1115.997977,-14781.707011,-2221.085509,13556.280523
1115.998265,-11564.962480,-4671.938485,12713.799813
1115.998565,-3369.922842,-3140.155375,9803.411904
1115.998865,4671.938485,-2833.798753,8960.931193
1115.999165,7888.683016,-995.659021,9420.466126
1115.999465,6280.310751,459.534933,10645.892614
1115.999765,1531.783110,1991.318043,10569.303459
1116.000064,-5131.473418,459.534933,11641.551636
1116.000364,-11105.427547,-2374.263820,12943.567279
1116.000664,-11564.962480,-6433.489062,12254.264880
1116.000963,-4825.116796,-6280.310751,10262.946837
1116.001262,4518.760174,-5973.954129,7735.504705
1116.001562,12024.497413,-4671.938485,6816.434839
1116.001861,15777.366033,-1608.372265,8348.217949
1116.002160,13862.637145,2604.031287,8654.574571
1116.002459,6127.132440,3216.744531,10262.946837
1116.002759,-4748.527641,3676.279464,12713.799813
1116.003066,-11871.319102,1684.961421,12713.799813
1116.003368,-16007.133499,-689.302399,13020.156435
1116.003671,-12254.264880,-2680.620442,11488.373325
1116.003973,-5131.473418,-3599.690308,10109.768526
1116.004276,5054.884263,-3293.333686,8807.752882
1116.004578,11488.373325,-536.124088,8654.574571
1116.004881,10875.660081,1838.139732,9650.233593
1116.005183,4059.225241,2910.387909,11335.195014
1116.005458,-4748.527641,3216.744531,12560.621502
1116.005761,-9880.001059,2604.031287,12713.799813
1116.006065,-14245.582923,-76.589155,13326.513057
1116.006369,-10033.179370,-1761.550576,12254.264880
1116.006672,-689.302399,-1914.728887,9650.233593
1116.006976,10109.768526,-1914.728887,7429.148083
1116.007280,15777.366033,-76.589155,8041.861327
1116.007583,15624.187722,2450.852976,8654.574571
1116.007856,10416.125148,4442.171019,9650.233593
1116.008156,-382.945777,4825.116796,11641.551636
1116.008456,-8577.985416,4442.171019,11335.195014
1116.008756,-14628.528700,765.891555,12560.621502
1116.009056,-13632.869679,-2067.907198,12101.086569
1116.009357,-7352.558928,-4365.581863,11718.140791
1116.009657,1991.318043,-5208.062574,10109.768526
1116.009957,9803.411904,-4671.938485,8654.574571
1116.010274,13096.745590,-1148.837332,8807.752882
1116.010573,8807.752882,-382.945777,9956.590215
1116.010871,-76.589155,1225.426488,11641.551636
1116.011170,-8577.985416,2450.852976,11488.373325
1116.011468,-12407.443191,1378.604799,11794.729947
1116.011767,-12254.264880,-842.480710,12101.086569
1116.012066,-6663.256528,-3293.333686,10416.125148
1116.012364,2374.263820,-2986.977064,9267.287815
1116.012664,12024.497413,-2067.907198,6893.023995
1116.012961,16236.900966,459.534933,7275.969772
1116.013259,11871.319102,1225.426488,9573.644437
1116.013556,3140.155375,459.534933,10569.303459
1116.013854,-5744.186662,-0.000000,11488.373325
1116.014151,-10799.070925,-1302.015643,11488.373325
1116.014448,-14092.404612,-5973.954129,12254.264880
1116.014746,-10645.892614,-8118.450483,11641.551636
1116.015053,-1761.550576,-7046.202306,9650.233593
1116.015355,7122.791461,-5973.954129,7888.683016
1116.015656,10722.481770,-3906.046930,9114.109504
1116.015958,9650.233593,-842.480710,10262.946837
1116.016260,4365.581863,1838.139732,10722.481770
1116.016561,-4135.814397,2144.496354,11488.373325
1116.016863,-10799.070925,459.534933,13096.745590
1116.017165,-11718.140791,-382.945777,13556.280523
1116.017445,-7199.380617,-536.124088,12407.443191
1116.017750,1991.318043,-382.945777,8960.931193
1116.018055,10262.946837,612.713244,7582.326394
1116.018361,14168.993767,2297.674665,7735.504705
1116.018666,12024.497413,3829.457775,9343.876971
1116.018971,3906.046930,3982.636086,11641.551636
1116.019276,-4748.527641,4135.814397,12407.443191
1116.019581,-12713.799813,459.534933,13096.745590
1116.019854,-15547.598566,-2374.263820,14322.172078
1116.020157,-9573.644437,-3906.046930,11641.551636
1116.020459,306.356622,-2067.907198,8807.752882
1116.020762,9420.466126,-2221.085509,6127.132440
1116.021064,10416.125148,-2067.907198,8348.217949
1116.021367,7888.683016,-229.767466,10799.070925
1116.021669,1531.783110,459.534933,11794.729947
1116.021972,-5591.008351,2144.496354,12101.086569
1116.022244,-10339.535992,1378.604799,12560.621502
