#time,accel_x,accel_y,accel_z
1091.488316,3752.868619,4288.992708,14781.707011
1091.488608,-76.589155,-229.767466,13862.637145
1091.488900,306.356622,-382.945777,12790.388968
1091.489176,5973.954129,153.178311,12407.443191
1091.489476,12790.388968,153.178311,11182.016703
1091.489776,24048.994827,919.069866,10875.660081
1091.490077,34158.763353,2450.852976,10109.768526
1091.490377,38754.112683,2757.209598,8731.163727
1091.490677,40362.484948,2297.674665,6969.613150
1091.490977,37605.275350,1072.248177,6050.543284
1091.491277,28261.398379,-1761.550576,7122.791461
1091.491607,16390.079277,-6739.845684,9114.109504
1091.491903,6893.023995,-8884.342038,10416.125148
1091.492198,1378.604799,-9650.233593,11641.551636
1091.492494,306.356622,-8884.342038,11028.838392
1091.492790,1531.783110,-7352.558928,12177.675724
1091.493085,6127.132440,-6127.132440,14475.350389
1091.493381,13709.458834,-4825.116796,15394.420255
1091.493676,22746.979183,306.356622,13403.102212
1091.493983,29410.235712,4748.527641,11411.784169
1091.494285,30788.840511,8807.752882,8807.752882
1091.494586,23742.638205,9420.466126,7429.148083
1091.494887,9267.287815,8654.574571,8884.342038
1091.495189,-7352.558928,4135.814397,10722.481770
1091.495490,-21751.320162,1378.604799,13173.334746
1091.495792,-24891.475537,306.356622,13403.102212
1091.496093,-17002.792521,306.356622,12637.210657
1091.496376,-1302.015643,3982.636086,11794.729947
1091.496679,18457.986475,9114.109504,10262.946837
1091.496982,34771.476597,12254.264880,8654.574571
1091.497285,39366.825927,13326.513057,8195.039638
1091.497588,32703.569398,9956.590215,8960.931193
1091.497891,14705.117856,3063.566220,11488.373325
1091.498194,-6203.721595,-3293.333686,13556.280523
1091.498497,-28031.630913,-7965.272172,14628.528700
1091.498778,-43885.586101,-10492.714303,14781.707011
1091.499077,-49400.005297,-12024.497413,15547.598566
1091.499376,-40439.074104,-9880.001059,12560.621502
1091.499675,-21598.141851,-3446.511997,9650.233593
1091.499974,1838.139732,5131.473418,6969.613150
1091.500272,26270.080336,11641.551636,5973.954129
1091.500571,46336.439077,13632.869679,5667.597507
1091.500870,60122.487067,13479.691368,3523.101153
1091.501182,59816.130445,8960.931193,4288.992708
1091.501482,44421.710190,-1455.193954,5054.884263
1091.501781,17538.916609,-13403.102212,8195.039638
1091.502081,-14475.350389,-25274.421315,13020.156435
1091.502381,-43885.586101,-34005.585042,16543.257588
1091.502681,-61960.626799,-35996.903085,19223.878030
1091.502981,-65407.138797,-30099.538111,18687.753942
1091.503281,-49936.129386,-18381.397320,15547.598566
1091.503590,-20755.661140,-229.767466,10875.660081
1091.503888,10416.125148,15547.598566,6969.613150
1091.504187,37988.221128,25197.832159,6127.132440
1091.504485,54914.424493,31095.197133,5973.954129
1091.504784,58207.758180,32320.623621,3599.690308
1091.505082,45723.725833,24738.297226,2527.442131
1091.505381,16926.203365,8807.752882,6893.023995
1091.505680,-13939.226301,-11718.140791,12560.621502
1091.505987,-34541.709130,-30252.716422,16083.722655
1091.506286,-46106.671611,-39290.236771,17155.970832
1091.506586,-41358.143970,-36915.972951,12790.388968
1091.506886,-26499.847803,-26346.669492,10339.535992
1091.507185,-8424.807105,-9343.876971,10492.714303
1091.507485,15777.366033,10722.481770,10416.125148
1091.507785,32244.034465,28874.111623,10416.125148
1091.508085,38907.290994,41511.322281,7275.969772
1091.508381,37988.221128,44957.834278,4595.349330
1091.508680,23895.816516,39366.825927,4135.814397
1091.508979,4671.938485,22057.676784,8195.039638
1091.509278,-16160.311810,-1761.550576,13862.637145
1091.509576,-30405.894733,-19530.234652,17155.970832
1091.509875,-30405.894733,-27112.561047,14858.296167
1091.510174,-29180.468245,-27112.561047,13249.923901
1091.510473,-18381.397320,-22134.265939,13862.637145
1091.510768,-3216.744531,-13556.280523,13709.458834
1091.511068,12024.497413,-1914.728887,13709.458834
1091.511368,24814.886382,10109.768526,9420.466126
1091.511668,27801.863446,16466.668432,6127.132440
1091.511968,22746.979183,15547.598566,5667.597507
1091.512269,11641.551636,7429.148083,8041.861327
1091.512569,-2067.907198,-1608.372265,10875.660081
1091.512869,-10339.535992,-6433.489062,11028.838392
1091.513180,-16696.435899,-6893.023995,12101.086569
1091.513478,-16619.846743,-4059.225241,10875.660081
1091.513775,-12254.264880,153.178311,12024.497413
1091.514073,-3829.457775,1072.248177,13862.637145
1091.514370,2297.674665,1225.426488,13862.637145
1091.514668,7122.791461,612.713244,11794.729947
1091.514965,8195.039638,-3906.046930,9343.876971
1091.515263,5054.884263,-12637.210657,9420.466126
1091.515562,2986.977064,-20296.126207,7888.683016
1091.515862,3446.511997,-22900.157494,5820.775818
1091.516162,2144.496354,-22593.800872,4748.527641
1091.516462,306.356622,-16236.900966,6663.256528
1091.516762,306.356622,-3446.511997,8807.752882
1091.517062,153.178311,8960.931193,9420.466126
1091.517362,-536.124088,16466.668432,11182.016703
1091.517662,-3523.101153,20679.071985,12713.799813
1091.517970,-7965.272172,20219.537052,13249.923901
1091.518268,-13173.334746,12407.443191,13862.637145
1091.518566,-15241.241944,765.891555,13709.458834
1091.518864,-10492.714303,-13096.745590,13173.334746
1091.519162,-1148.837332,-22134.265939,9650.233593
1091.519460,9956.590215,-21521.552695,5667.597507
1091.519758,18151.629853,-16696.435899,4442.171019
1091.520056,21827.909317,-6739.845684,4901.705952
1091.520373,18611.164786,5437.830040,9803.411904
1091.520674,11335.195014,15547.598566,12254.264880
1091.520975,-229.767466,23589.459894,12943.567279
1091.521276,-12101.086569,25044.653848,15088.063633
1091.521577,-20908.839451,20372.715363,15394.420255
1091.521878,-26653.026114,10109.768526,16849.614210
1091.522179,-22670.390028,-995.659021,16236.900966
1091.522480,-8884.342038,-6893.023995,12177.675724
1091.522794,8041.861327,-7965.272172,6969.613150
1091.523091,17998.451542,-8731.163727,5820.775818
1091.523387,24968.064693,-5973.954129,5820.775818
1091.523683,24048.994827,-382.945777,8960.931193
1091.523979,18994.110564,2604.031287,8960.931193
1091.524276,5667.597507,3676.279464,10875.660081
1091.524572,-7122.791461,3369.922842,11411.784169
1091.524868,-19836.591274,-229.767466,13020.156435
1091.525237,-28491.165846,-7046.202306,14705.117856
1091.525527,-26653.026114,-10799.070925,15088.063633
1091.525818,-16313.490121,-9497.055282,11718.140791
1091.526108,153.178311,-3599.690308,7122.791461
1091.526399,14245.582923,2910.387909,4442.171019
1091.526689,26116.902025,6510.078217,5973.954129
1091.526980,29410.235712,7735.504705,8348.217949
1091.527270,26882.793580,7275.969772,7735.504705
1091.527570,14551.939545,2910.387909,8195.039638
1091.527869,-1608.372265,-6127.132440,9190.698660
1091.528168,-17462.327454,-15930.544344,12407.443191
1091.528467,-28720.933312,-22593.800872,15088.063633
1091.528767,-31248.375444,-23819.227360,14322.172078
1091.529066,-23283.103272,-17462.327454,12101.086569
1091.529365,-10799.070925,-6739.845684,9650.233593
1091.529664,2297.674665,3676.279464,9114.109504
1091.529971,15164.652789,11947.908258,10722.481770
1091.530271,24508.529760,17998.451542,10875.660081
1091.530570,26040.312870,19453.645497,9420.466126
1091.530869,20066.358741,15394.420255,8654.574571
1091.531168,8654.574571,6203.721595,10109.768526
1091.531468,-7505.737239,-7352.558928,12101.086569
1091.531767,-17921.862387,-18075.040698,13556.280523
1091.532066,-22823.568339,-21827.909317,13403.102212
1091.532387,-19530.234652,-18534.575631,11794.729947
1091.532684,-11564.962480,-8884.342038,11028.838392
1091.532981,153.178311,3369.922842,11258.605858
1091.533278,12330.854035,13786.047990,12407.443191
1091.533575,19760.002119,20525.893674,12254.264880
1091.533872,22134.265939,24585.118915,8960.931193
1091.534169,16236.900966,20832.250296,8118.450483
1091.534466,5054.884263,10569.303459,8654.574571
1091.534814,-7199.380617,-2527.442131,11028.838392
1091.535108,-15853.955188,-14705.117856,11947.908258
1091.535402,-18840.932253,-20296.126207,10569.303459
1091.535696,-16696.435899,-19683.412963,9803.411904
1091.535990,-8884.342038,-13403.102212,9114.109504
1091.536284,-842.480710,-3906.046930,10416.125148
1091.536578,6893.023995,4135.814397,11794.729947
1091.536872,13249.923901,10416.125148,10416.125148
1091.537185,13709.458834,13786.047990,8960.931193
1091.537480,9114.109504,9956.590215,9114.109504
1091.537776,-382.945777,2910.387909,9956.590215
1091.538071,-6356.899906,-5973.954129,10109.768526
1091.538366,-8731.163727,-11564.962480,9956.590215
1091.538661,-8577.985416,-14475.350389,9114.109504
1091.538957,-4595.349330,-10952.249236,9114.109504
1091.539252,1225.426488,-4518.760174,9650.233593
1091.539552,9420.466126,3216.744531,10262.946837
1091.539852,11335.195014,8195.039638,11794.729947
1091.540153,10109.768526,10416.125148,12177.675724
1091.540454,4671.938485,8501.396260,11718.140791
1091.540755,-2604.031287,2910.387909,11794.729947
1091.541056,-11258.605858,-6280.310751,12713.799813
1091.541356,-14245.582923,-13403.102212,13249.923901
1091.541657,-9343.876971,-12790.388968,11182.016703
1091.541964,-1148.837332,-7658.915550,7275.969772
1091.542261,3293.333686,-1608.372265,7275.969772
1091.542558,6433.489062,3829.457775,9573.644437
1091.542855,10109.768526,9420.466126,12254.264880
1091.543152,10262.946837,12101.086569,11641.551636
1091.543449,5667.597507,11028.838392,10262.946837
1091.543746,-2604.031287,5744.186662,10875.660081
1091.544043,-11718.140791,-3599.690308,12790.388968
1091.544351,-15547.598566,-11564.962480,13556.280523
1091.544650,-14475.350389,-17309.149143,11105.427547
1091.544949,-8118.450483,-16390.079277,9114.109504
1091.545248,-0.000000,-10645.892614,7275.969772
1091.545546,8348.217949,-2374.263820,6663.256528
1091.545845,15624.187722,6203.721595,7582.326394
1091.546144,18917.521408,11488.373325,9343.876971
1091.546443,15317.831100,13939.226301,10109.768526
1091.546760,8348.217949,13479.691368,9956.590215
1091.547059,-2221.085509,8195.039638,10416.125148
1091.547358,-14245.582923,-2067.907198,12943.567279
1091.547657,-22210.855095,-13709.458834,15853.955188
1091.547957,-22210.855095,-19147.288875,15241.241944
1091.548256,-12866.978124,-16696.435899,10109.768526
1091.548555,-229.767466,-9497.055282,6510.078217
1091.548854,10262.946837,-1761.550576,6663.256528
1091.549171,17845.273231,4978.295107,8960.931193
1091.549469,20372.715363,10569.303459,10875.660081
1091.549767,16083.722655,12254.264880,10569.303459
1091.550065,6586.667373,9420.466126,10875.660081
1091.550363,-5131.473418,2910.387909,12101.086569
1091.550660,-17002.792521,-6739.845684,14551.939545
1091.550958,-21598.141851,-12943.567279,15853.955188
1091.551256,-17615.505765,-12943.567279,12407.443191
1091.551556,-9343.876971,-8424.807105,8807.752882
1091.551853,306.356622,-1455.193954,6663.256528
1091.552149,10262.946837,5897.364973,7888.683016
1091.552446,16236.900966,10109.768526,9420.466126
1091.552743,18994.110564,12101.086569,10875.660081
1091.553040,14168.993767,11641.551636,9956.590215
1091.553336,5973.954129,7429.148083,9650.233593
1091.553633,-4825.116796,-1148.837332,10875.660081
1091.553947,-15853.955188,-10799.070925,12790.388968
1091.554246,-18994.110564,-16083.722655,12790.388968
1091.554544,-16160.311810,-14322.172078,9956.590215
1091.554843,-6969.613150,-8271.628794,7275.969772
1091.555142,1072.248177,-995.659021,6510.078217
1091.555440,9803.411904,5744.186662,8041.861327
1091.555739,15164.652789,9114.109504,10109.768526
1091.556038,15011.474478,10416.125148,10722.481770
1091.556345,11335.195014,8807.752882,10109.768526
1091.556648,3140.155375,4442.171019,10262.946837
1091.556951,-6356.899906,-3446.511997,10799.070925
1091.557254,-14322.172078,-12177.675724,12713.799813
1091.557557,-18687.753942,-15930.544344,13556.280523
1091.557860,-12713.799813,-12484.032346,10416.125148
1091.558163,-5131.473418,-4901.705952,6816.434839
1091.558466,2986.977064,1684.961421,7429.148083
1091.558750,9420.466126,6510.078217,10722.481770
1091.559049,13709.458834,11335.195014,12713.799813
1091.559348,14705.117856,13786.047990,12101.086569
1091.559647,10262.946837,10875.660081,10416.125148
1091.559946,919.069866,3063.566220,11182.016703
1091.560244,-9497.055282,-7046.202306,13096.745590
1091.560543,-13939.226301,-13709.458834,12560.621502
1091.560842,-12866.978124,-16083.722655,10875.660081
1091.561137,-9880.001059,-14015.815456,8577.985416
1091.561438,-4442.171019,-8424.807105,7582.326394
1091.561739,2833.798753,-842.480710,9343.876971
1091.562040,8654.574571,5437.830040,11182.016703
1091.562341,11335.195014,9573.644437,12407.443191
1091.562642,11488.373325,12407.443191,10645.892614
1091.562942,6280.310751,10262.946837,9956.590215
1091.563243,-2757.209598,2297.674665,10569.303459
1091.563531,-11947.908258,-7658.915550,12407.443191
1091.563832,-14628.528700,-15777.366033,12101.086569
1091.564133,-11564.962480,-16543.257588,9803.411904
1091.564434,-4825.116796,-11258.605858,7275.969772
1091.564735,2527.442131,-3906.046930,6356.899906
1091.565035,9497.055282,2757.209598,8348.217949
1091.565336,12943.567279,8195.039638,11794.729947
1091.565637,12024.497413,11794.729947,12713.799813
1091.565951,8041.861327,13173.334746,10569.303459
1091.566249,306.356622,9420.466126,9956.590215
1091.566548,-10033.179370,-76.589155,11794.729947
1091.566847,-16849.614210,-10033.179370,13556.280523
1091.567146,-16007.133499,-14015.815456,12177.675724
1091.567444,-9573.644437,-12790.388968,8960.931193
1091.567743,-1608.372265,-7352.558928,7582.326394
1091.568042,6127.132440,-76.589155,7888.683016
1091.568349,12484.032346,7122.791461,10033.179370
1091.568648,15164.652789,10875.660081,11564.962480
1091.568948,12484.032346,13173.334746,11182.016703
1091.569248,5361.240885,11488.373325,11028.838392
1091.569547,-4748.527641,2757.209598,12254.264880
1091.569847,-15394.420255,-8118.450483,14781.707011
1091.570147,-18994.110564,-15777.366033,15394.420255
1091.570447,-14092.404612,-15777.366033,11182.016703
1091.570776,-5131.473418,-10339.535992,6663.256528
1091.571070,3446.511997,-1761.550576,5667.597507
1091.571364,11028.838392,5284.651729,6816.434839
1091.571659,14015.815456,10722.481770,11335.195014
1091.571953,15317.831100,12866.978124,11335.195014
1091.572247,11871.319102,12866.978124,10339.535992
1091.572541,3293.333686,7582.326394,10109.768526
1091.572835,-5591.008351,-536.124088,10875.660081
1091.573163,-13939.226301,-10033.179370,12943.567279
1091.573457,-15700.776877,-15011.474478,12560.621502
1091.573752,-11258.605858,-14015.815456,9420.466126
1091.574046,-6816.434839,-9650.233593,6969.613150
1091.574341,306.356622,-2833.798753,6050.543284
1091.574635,7275.969772,3063.566220,8884.342038
1091.574930,11028.838392,7582.326394,10722.481770
1091.575225,11871.319102,10262.946837,12407.443191
1091.575536,8960.931193,10416.125148,11182.016703
1091.575836,3599.690308,7122.791461,9650.233593
1091.576136,-5591.008351,-1608.372265,10875.660081
1091.576436,-14322.172078,-10952.249236,13403.102212
1091.576736,-16619.846743,-16083.722655,12407.443191
1091.577036,-10952.249236,-14475.350389,9650.233593
1091.577336,-2910.387909,-9037.520349,6969.613150
1091.577636,4748.527641,-1914.728887,7429.148083
1091.577936,10722.481770,3829.457775,10416.125148
1091.578235,14705.117856,9650.233593,12407.443191
1091.578534,13556.280523,12713.799813,12101.086569
1091.578833,8348.217949,11641.551636,11794.729947
1091.579133,-689.302399,6356.899906,11564.962480
1091.579432,-9343.876971,-2374.263820,12790.388968
1091.579731,-14628.528700,-11105.427547,13249.923901
1091.580030,-15700.776877,-14858.296167,12101.086569
1091.580337,-10952.249236,-13403.102212,9956.590215
1091.580634,-3369.922842,-6893.023995,8195.039638
1091.580931,5820.775818,612.713244,8654.574571
1091.581227,12024.497413,7275.969772,11182.016703
1091.581524,12790.388968,11182.016703,11564.962480
1091.581821,11335.195014,12560.621502,10799.070925
1091.582117,4365.581863,8807.752882,9880.001059
1091.582414,-5897.364973,-229.767466,11641.551636
1091.582735,-14628.528700,-10492.714303,12943.567279
1091.583032,-15088.063633,-16083.722655,12101.086569
1091.583329,-10033.179370,-14858.296167,8960.931193
1091.583626,-2757.209598,-9726.822748,6356.899906
1091.583923,4518.760174,-1302.015643,6510.078217
1091.584220,11641.551636,6816.434839,8041.861327
1091.584517,15011.474478,11794.729947,9803.411904
1091.584814,13249.923901,14245.582923,11028.838392
1091.585133,8654.574571,13632.869679,9803.411904
1091.585431,-842.480710,6969.613150,10875.660081
1091.585729,-11258.605858,-4825.116796,13403.102212
1091.586027,-18994.110564,-13709.458834,15088.063633
1091.586325,-17921.862387,-16696.435899,13173.334746
1091.586623,-10645.892614,-13862.637145,8807.752882
1091.586922,-1914.728887,-7046.202306,6663.256528
1091.587220,6586.667373,1225.426488,6816.434839
1091.587533,11488.373325,8501.396260,9267.287815
1091.587831,13709.458834,13020.156435,11794.729947
1091.588130,13249.923901,14245.582923,10722.481770
1091.588428,8195.039638,12560.621502,10569.303459
1091.588727,-1148.837332,4748.527641,12101.086569
1091.589025,-11718.140791,-6739.845684,14781.707011
1091.589324,-14245.582923,-13096.745590,14322.172078
1091.589622,-10799.070925,-14551.939545,10416.125148
1091.589922,-6203.721595,-11564.962480,8041.861327
1091.590222,-1148.837332,-6280.310751,7429.148083
1091.590523,7275.969772,2450.852976,8195.039638
1091.590824,12790.388968,9114.109504,10109.768526
1091.591125,14015.815456,12254.264880,10952.249236
1091.591426,10875.660081,13020.156435,10875.660081
1091.591726,3293.333686,9573.644437,10722.481770
1091.592027,-5591.008351,1838.139732,11028.838392
1091.592334,-16696.435899,-9190.698660,14168.993767
1091.592631,-21368.374384,-17462.327454,15088.063633
1091.592928,-17155.970832,-18075.040698,11641.551636
1091.593225,-5131.473418,-10339.535992,5744.186662
1091.593522,5054.884263,-2986.977064,3676.279464
1091.593819,12790.388968,1838.139732,6280.310751
1091.594115,15777.366033,5591.008351,10262.946837
1091.594412,16390.079277,9267.287815,11488.373325
1091.594726,11488.373325,8807.752882,9573.644437
1091.595029,2297.674665,3369.922842,10262.946837
1091.595332,-9573.644437,-5667.597507,12790.388968
1091.595635,-17615.505765,-12943.567279,14322.172078
1091.595937,-16619.846743,-14475.350389,12713.799813
1091.596240,-10492.714303,-10339.535992,9114.109504
1091.596543,-3829.457775,-4825.116796,8195.039638
1091.596846,2986.977064,2910.387909,8884.342038
1091.597119,10262.946837,9803.411904,10109.768526
1091.597417,13249.923901,14628.528700,11794.729947
1091.597716,11335.195014,14092.404612,12407.443191
1091.598014,5973.954129,10722.481770,12713.799813
1091.598312,-1302.015643,4135.814397,12713.799813
1091.598611,-7965.272172,-5208.062574,12790.388968
1091.598909,-12101.086569,-14015.815456,12943.567279
1091.599208,-11258.605858,-15777.366033,11182.016703
1091.599525,-5591.008351,-11718.140791,6816.434839
1091.599824,306.356622,-4671.938485,5514.419196
1091.600122,5514.419196,2144.496354,8654.574571
1091.600421,9497.055282,8195.039638,11028.838392
1091.600719,10875.660081,12407.443191,11488.373325
1091.601018,9956.590215,14245.582923,10875.660081
1091.601317,3140.155375,10262.946837,10262.946837
1091.601615,-6356.899906,1378.604799,12713.799813
1091.601915,-13479.691368,-7505.737239,13709.458834
1091.602215,-15241.241944,-13556.280523,12713.799813
1091.602515,-10799.070925,-13709.458834,9420.466126
1091.602815,-2910.387909,-9880.001059,6280.310751
1091.603115,3446.511997,-3752.868619,5208.062574
1091.603415,11335.195014,2450.852976,7429.148083
1091.603715,12177.675724,6510.078217,10722.481770
1091.604015,13709.458834,10416.125148,10875.660081
1091.604322,9420.466126,10722.481770,9956.590215
1091.604623,1378.604799,6510.078217,10645.892614
1091.604923,-9037.520349,-2680.620442,13862.637145
1091.605223,-16466.668432,-9343.876971,14934.885322
1091.605523,-14628.528700,-12330.854035,12101.086569
1091.605824,-10492.714303,-11718.140791,8807.752882
1091.606124,-3676.279464,-7812.093861,7735.504705
1091.606424,5208.062574,-536.124088,7122.791461
1091.606698,12943.567279,5284.651729,8195.039638
1091.607000,16236.900966,8807.752882,10722.481770
1091.607301,12637.210657,8807.752882,11488.373325
1091.607602,7046.202306,8807.752882,11182.016703
1091.607904,-842.480710,3063.566220,11794.729947
1091.608205,-11871.319102,-7352.558928,13249.923901
1091.608506,-18534.575631,-14551.939545,15394.420255
1091.608808,-17615.505765,-15164.652789,12943.567279
1091.609124,-9190.698660,-9726.822748,7888.683016
1091.609425,306.356622,-2221.085509,5973.954129
1091.609726,7275.969772,3982.636086,7582.326394
1091.610026,11641.551636,9267.287815,10875.660081
1091.610327,13709.458834,12560.621502,11641.551636
1091.610628,13096.745590,12866.978124,10262.946837
1091.610928,6127.132440,8501.396260,10109.768526
1091.611229,-3369.922842,-689.302399,11488.373325
1091.611544,-12254.264880,-10799.070925,13709.458834
1091.611840,-15241.241944,-15930.544344,13249.923901
1091.612137,-12713.799813,-14705.117856,10109.768526
1091.612433,-5897.364973,-9650.233593,6663.256528
1091.612730,153.178311,-2986.977064,6816.434839
1091.613026,7122.791461,3063.566220,9267.287815
1091.613323,13096.745590,9267.287815,10262.946837
1091.613619,16390.079277,12713.799813,10033.179370
1091.613909,12330.854035,10569.303459,8960.931193
1091.614208,2144.496354,4595.349330,10416.125148
1091.614507,-10186.357681,-4059.225241,13862.637145
1091.614806,-17309.149143,-12177.675724,15241.241944
1091.615106,-18381.397320,-16390.079277,13403.102212
1091.615405,-12866.978124,-13403.102212,9803.411904
1091.615704,-2757.209598,-5820.775818,6127.132440
1091.616003,7582.326394,3063.566220,6127.132440
1091.616312,14398.761234,8195.039638,8654.574571
1091.616611,16543.257588,11794.729947,11028.838392
1091.616909,14245.582923,13326.513057,11335.195014
1091.617208,9420.466126,11488.373325,10033.179370
1091.617506,-2221.085509,2604.031287,11335.195014
1091.617805,-13173.334746,-7352.558928,14628.528700
1091.618103,-16619.846743,-14168.993767,15317.831100
1091.618402,-13020.156435,-12943.567279,11488.373325
1091.618709,-6050.543284,-8118.450483,6816.434839
1091.619009,-1608.372265,-3140.155375,6510.078217
1091.619309,4059.225241,2450.852976,8960.931193
1091.619608,9956.590215,7888.683016,10262.946837
1091.619908,12330.854035,10416.125148,10722.481770
1091.620208,10109.768526,10875.660081,10875.660081
1091.620508,4365.581863,7275.969772,10569.303459
1091.620807,-995.659021,1072.248177,11641.551636
1091.621104,-7352.558928,-7658.915550,12790.388968
1091.621404,-12713.799813,-13556.280523,13096.745590
1091.621705,-12407.443191,-13403.102212,10722.481770
1091.622005,-7352.558928,-7352.558928,7275.969772
1091.622305,-689.302399,-1148.837332,6356.899906
1091.622606,5667.597507,4135.814397,8654.574571
1091.622906,10569.303459,7122.791461,10569.303459
1091.623206,13556.280523,9803.411904,11488.373325
1091.623501,12177.675724,8960.931193,9803.411904
1091.623802,5820.775818,4825.116796,10109.768526
1091.624103,-3216.744531,-3140.155375,11488.373325
1091.624404,-11105.427547,-10033.179370,13096.745590
1091.624705,-14245.582923,-13556.280523,12101.086569
1091.625006,-12254.264880,-12024.497413,9956.590215
1091.625306,-7199.380617,-7505.737239,8195.039638
1091.625607,306.356622,-2067.907198,7888.683016
1091.625976,6739.845684,2757.209598,10645.892614
1091.626265,11028.838392,6203.721595,12101.086569
1091.626554,12024.497413,8654.574571,12101.086569
1091.626842,9956.590215,8654.574571,10262.946837
1091.627131,2986.977064,3523.101153,10799.070925
1091.627420,-7352.558928,-4901.705952,13556.280523
1091.627709,-12101.086569,-11105.427547,14322.172078
1091.627998,-11564.962480,-12637.210657,11794.729947
1091.628307,-6356.899906,-10339.535992,7888.683016
1091.628606,-689.302399,-4671.938485,6816.434839
1091.628906,5054.884263,1531.783110,7888.683016
1091.629205,9956.590215,5744.186662,10262.946837
1091.629504,12790.388968,9650.233593,12101.086569
1091.629804,10569.303459,11182.016703,11335.195014
1091.630103,5054.884263,8654.574571,10416.125148
1091.630403,-2757.209598,1838.139732,11335.195014
1091.630710,-10952.249236,-7658.915550,13556.280523
1091.631009,-14322.172078,-13096.745590,13096.745590
1091.631309,-12254.264880,-12484.032346,10109.768526
1091.631609,-5131.473418,-7812.093861,6969.613150
1091.631908,-536.124088,-2221.085509,7275.969772
1091.632208,5820.775818,3369.922842,8807.752882
1091.632508,9803.411904,8195.039638,10416.125148
1091.632807,11335.195014,10875.660081,11335.195014
1091.633104,8960.931193,9956.590215,10416.125148
1091.633402,4212.403552,6510.078217,9956.590215
1091.633700,-3676.279464,-1761.550576,11488.373325
1091.633998,-10339.535992,-10033.179370,14015.815456
1091.634296,-11105.427547,-13403.102212,12637.210657
1091.634594,-6969.613150,-10492.714303,8654.574571
1091.634892,-1455.193954,-5973.954129,6663.256528
1091.635191,3599.690308,-229.767466,8501.396260
1091.635505,8807.752882,5131.473418,9803.411904
1091.635804,12484.032346,10416.125148,11488.373325
1091.636102,13403.102212,12866.978124,10875.660081
1091.636401,8960.931193,10875.660081,10109.768526
1091.636700,-1148.837332,3523.101153,12560.621502
1091.636999,-11258.605858,-5054.884263,15547.598566
1091.637297,-16160.311810,-12024.497413,15853.955188
1091.637596,-13939.226301,-13249.923901,12407.443191
1091.637884,-7965.272172,-10492.714303,8041.861327
1091.638184,-536.124088,-4901.705952,6356.899906
1091.638484,8654.574571,919.069866,7275.969772
1091.638784,14245.582923,5744.186662,9267.287815
1091.639084,15164.652789,8195.039638,11028.838392
1091.639384,11794.729947,8960.931193,10875.660081
1091.639684,4518.760174,6203.721595,10186.357681
1091.639984,-3982.636086,-536.124088,11794.729947
1091.640283,-13632.869679,-10339.535992,14015.815456
1091.640582,-16466.668432,-15011.474478,14475.350389
1091.640882,-11564.962480,-13096.745590,10109.768526
1091.641181,-2910.387909,-5973.954129,6127.132440
1091.641480,3140.155375,-382.945777,5973.954129
1091.641779,8960.931193,3676.279464,7735.504705
1091.642078,12484.032346,7735.504705,10722.481770
1091.642378,11871.319102,9956.590215,11182.016703
1091.642685,8195.039638,8195.039638,10416.125148
1091.642985,1072.248177,3982.636086,11335.195014
1091.643285,-5437.830040,-3906.046930,12713.799813
1091.643585,-12713.799813,-12024.497413,14628.528700
1091.643885,-16466.668432,-16236.900966,14322.172078
1091.644185,-12560.621502,-12790.388968,11182.016703
1091.644485,-3829.457775,-6280.310751,6510.078217
1091.644785,4748.527641,919.069866,6510.078217
1091.645105,10875.660081,6050.543284,8960.931193
1091.645402,13403.102212,10109.768526,10722.481770
1091.645699,15317.831100,11335.195014,10569.303459
1091.645997,11871.319102,9420.466126,10033.179370
1091.646294,3140.155375,1838.139732,11488.373325
1091.646591,-7505.737239,-5667.597507,13709.458834
1091.646888,-12713.799813,-11258.605858,13709.458834
1091.647185,-13479.691368,-12024.497413,12407.443191
1091.647487,-9190.698660,-9650.233593,8807.752882
1091.647788,-2604.031287,-3446.511997,6969.613150
1091.648089,3140.155375,1378.604799,8654.574571
1091.648391,6893.023995,5591.008351,11028.838392
1091.648692,10262.946837,10262.946837,11028.838392
1091.648994,10416.125148,11947.908258,10186.357681
1091.649295,5973.954129,9573.644437,10416.125148
1091.649597,-1914.728887,3063.566220,11488.373325
1091.649910,-10645.892614,-5514.419196,13249.923901
1091.650205,-12254.264880,-11258.605858,12637.210657
1091.650500,-9726.822748,-12177.675724,9650.233593
1091.650795,-3216.744531,-9343.876971,6510.078217
1091.651091,1991.318043,-4901.705952,6356.899906
1091.651386,8348.217949,765.891555,7888.683016
1091.651681,13403.102212,5591.008351,9573.644437
1091.651976,12790.388968,8195.039638,10492.714303
1091.652276,8195.039638,7888.683016,10262.946837
1091.652577,612.713244,4288.992708,11641.551636
1091.652878,-7199.380617,-2374.263820,13249.923901
1091.653178,-11947.908258,-8118.450483,13862.637145
1091.653479,-13173.334746,-10492.714303,12713.799813
1091.653780,-9037.520349,-7812.093861,9420.466126
1091.654081,-2450.852976,-2833.798753,7582.326394
1091.654381,3906.046930,2450.852976,7429.148083
1091.654688,9803.411904,6816.434839,9420.466126
1091.654985,12637.210657,9420.466126,11182.016703
1091.655282,12177.675724,9650.233593,11641.551636
1091.655579,9114.109504,8501.396260,10109.768526
1091.655876,2144.496354,2297.674665,10569.303459
1091.656173,-9190.698660,-8118.450483,13862.637145
1091.656470,-17462.327454,-15930.544344,15777.366033
1091.656767,-16619.846743,-15317.831100,13096.745590
1091.657075,-9343.876971,-10339.535992,7582.326394
1091.657374,-1608.372265,-5208.062574,5973.954129
1091.657673,3446.511997,-536.124088,7888.683016
1091.657972,10109.768526,4978.295107,10416.125148
1091.658271,15624.187722,10109.768526,10416.125148
1091.658570,14551.939545,11488.373325,9114.109504
1091.658869,5208.062574,6510.078217,10109.768526
1091.659168,-5744.186662,-842.480710,13249.923901
1091.659484,-13479.691368,-9497.055282,15394.420255
1091.659783,-15547.598566,-14168.993767,14168.993767
1091.660081,-12407.443191,-14705.117856,10875.660081
1091.660380,-3982.636086,-8731.163727,7122.791461
1091.660678,4901.705952,-842.480710,5208.062574
1091.660976,12484.032346,4825.116796,6280.310751
1091.661275,13709.458834,8348.217949,10109.768526
1091.661573,12024.497413,10262.946837,12407.443191
1091.661919,8041.861327,10109.768526,11028.838392
1091.662213,306.356622,7429.148083,10262.946837
1091.662508,-8731.163727,-2067.907198,12407.443191
1091.662802,-16007.133499,-10645.892614,15853.955188
1091.663097,-15700.776877,-13862.637145,13709.458834
1091.663391,-10339.535992,-9880.001059,9267.287815
1091.663686,-2374.263820,-3599.690308,5973.954129
1091.663980,2986.977064,612.713244,7275.969772
1091.664280,7888.683016,4595.349330,9650.233593
1091.664580,11028.838392,8501.396260,11182.016703
1091.664880,11182.016703,10262.946837,10952.249236
1091.665180,7046.202306,8041.861327,10645.892614
1091.665480,612.713244,2297.674665,12101.086569
1091.665780,-6510.078217,-4901.705952,13403.102212
1091.666080,-10492.714303,-10492.714303,13709.458834
1091.666380,-11411.784169,-10799.070925,11794.729947
1091.666671,-7352.558928,-7812.093861,8195.039638
1091.666970,-536.124088,-1608.372265,6356.899906
1091.667268,5208.062574,3523.101153,7735.504705
1091.667567,9114.109504,6663.256528,10569.303459
1091.667866,11335.195014,9573.644437,11335.195014
1091.668165,10109.768526,11028.838392,11335.195014
1091.668463,5514.419196,8195.039638,10569.303459
1091.668762,-3216.744531,459.534933,12024.497413
1091.669069,-12713.799813,-8271.628794,14628.528700
1091.669373,-15700.776877,-13096.745590,13249.923901
1091.669677,-12101.086569,-12790.388968,10416.125148
1091.669981,-4442.171019,-9190.698660,6663.256528
1091.670285,2833.798753,-3752.868619,5514.419196
1091.670588,8960.931193,459.534933,7735.504705
1091.670892,12330.854035,4748.527641,9573.644437
1091.671196,12637.210657,7735.504705,10722.481770
1091.671479,8960.931193,8348.217949,10109.768526
1091.671776,1072.248177,5437.830040,10722.481770
1091.672072,-8271.628794,-1761.550576,13096.745590
1091.672368,-15547.598566,-9726.822748,14934.885322
1091.672665,-15700.776877,-12484.032346,13479.691368
1091.672961,-9880.001059,-10645.892614,9267.287815
1091.673257,-1914.728887,-5054.884263,6127.132440
1091.673554,4518.760174,306.356622,7122.791461
1091.673881,9420.466126,4442.171019,9573.644437
1091.674177,12790.388968,8654.574571,10875.660081
1091.674474,12177.675724,10569.303459,11258.605858
1091.674770,7122.791461,9267.287815,10416.125148
1091.675066,-689.302399,3523.101153,11641.551636
1091.675362,-9343.876971,-5973.954129,14168.993767
1091.675658,-14322.172078,-13709.458834,14934.885322
1091.675955,-13479.691368,-14858.296167,12713.799813
1091.676266,-6969.613150,-10186.357681,8195.039638
1091.676566,-76.589155,-4212.403552,6510.078217
1091.676866,5054.884263,1378.604799,8195.039638
1091.677166,8195.039638,5744.186662,10722.481770
1091.677466,11182.016703,9267.287815,11488.373325
1091.677766,9956.590215,9650.233593,10569.303459
1091.678066,5820.775818,7429.148083,10109.768526
1091.678366,-2450.852976,153.178311,12024.497413
1091.678675,-10952.249236,-8424.807105,14322.172078
1091.678973,-13326.513057,-12637.210657,13632.869679
1091.679272,-10339.535992,-11258.605858,10033.179370
1091.679570,-4825.116796,-6280.310751,6969.613150
1091.679869,1072.248177,-1302.015643,5820.775818
1091.680167,7582.326394,4135.814397,7429.148083
1091.680466,11641.551636,8960.931193,10569.303459
1091.680764,12790.388968,11335.195014,11335.195014
1091.681071,9803.411904,11335.195014,9573.644437
1091.681371,2680.620442,7582.326394,9650.233593
1091.681671,-7658.915550,-1148.837332,12790.388968
1091.681970,-17155.970832,-9880.001059,16007.133499
1091.682270,-17768.684076,-12637.210657,14551.939545
1091.682570,-10799.070925,-9880.001059,9573.644437
1091.682869,-995.659021,-4059.225241,5437.830040
1091.683169,5514.419196,306.356622,6127.132440
1091.683465,10875.660081,4825.116796,8654.574571
1091.683764,12484.032346,7429.148083,11335.195014
1091.684063,11028.838392,8195.039638,11794.729947
1091.684362,6280.310751,7429.148083,10875.660081
1091.684661,-842.480710,2144.496354,11488.373325
1091.684960,-9190.698660,-5973.954129,13173.334746
1091.685259,-13479.691368,-12177.675724,14934.885322
1091.685557,-11564.962480,-12637.210657,12254.264880
1091.685885,-4288.992708,-7658.915550,7046.202306
1091.686179,2144.496354,-1914.728887,5514.419196
1091.686474,5514.419196,1991.318043,8041.861327
1091.686769,8654.574571,5744.186662,10569.303459
1091.687063,11182.016703,9956.590215,11182.016703
1091.687358,8501.396260,10109.768526,10875.660081
1091.687653,4059.225241,7582.326394,10799.070925
1091.687947,-2757.209598,459.534933,12101.086569
1091.688259,-10033.179370,-8271.628794,13249.923901
1091.688560,-13939.226301,-14551.939545,13632.869679
1091.688861,-13632.869679,-14475.350389,11335.195014
1091.689161,-7505.737239,-9726.822748,6663.256528
1091.689462,-1148.837332,-4212.403552,6280.310751
1091.689763,4518.760174,-229.767466,8501.396260
1091.690063,9650.233593,3676.279464,10416.125148
1091.690364,12484.032346,7888.683016,10569.303459
1091.690673,11641.551636,8960.931193,9650.233593
1091.690969,5361.240885,5897.364973,10722.481770
1091.691264,-3676.279464,-1302.015643,12790.388968
1091.691559,-11411.784169,-8271.628794,14322.172078
1091.691855,-13173.334746,-11105.427547,12713.799813
1091.692150,-10186.357681,-9037.520349,9420.466126
1091.692445,-4442.171019,-4365.581863,7275.969772
1091.692741,1378.604799,765.891555,7965.272172
1091.693048,7275.969772,5284.651729,10569.303459
1091.693350,10569.303459,8348.217949,10722.481770
1091.693652,10569.303459,9650.233593,12101.086569
1091.693954,7582.326394,8807.752882,10799.070925
1091.694257,1531.783110,4135.814397,10799.070925
1091.694559,-6816.434839,-4671.938485,13403.102212
1091.694861,-13173.334746,-10952.249236,14781.707011
1091.695164,-12407.443191,-11718.140791,11794.729947
1091.695480,-6663.256528,-7658.915550,7275.969772
1091.695778,-1608.372265,-3752.868619,6356.899906
1091.696077,2297.674665,459.534933,8807.752882
1091.696375,7275.969772,5131.473418,10416.125148
1091.696674,10722.481770,9114.109504,10875.660081
1091.696972,10875.660081,9650.233593,9650.233593
1091.697271,3906.046930,5897.364973,11182.016703
1091.697569,-4442.171019,-1608.372265,13709.458834
1091.697849,-11564.962480,-8884.342038,14628.528700
1091.698148,-12254.264880,-10952.249236,13249.923901
1091.698448,-9497.055282,-9726.822748,8654.574571
1091.698748,-4748.527641,-6127.132440,6127.132440
1091.699048,612.713244,-1608.372265,6356.899906
1091.699348,7122.791461,3523.101153,8041.861327
1091.699648,11488.373325,7888.683016,10262.946837
1091.699948,12330.854035,9650.233593,11028.838392
1091.700261,10569.303459,10262.946837,10262.946837
1091.700559,6586.667373,7735.504705,9803.411904
1091.700858,-1914.728887,459.534933,12254.264880
1091.701156,-12254.264880,-9037.520349,15088.063633
1091.701454,-16696.435899,-13096.745590,14475.350389
1091.701753,-14092.404612,-10952.249236,10262.946837
1091.702051,-6663.256528,-6280.310751,7275.969772
1091.702350,-382.945777,-1914.728887,8041.861327
1091.702673,6280.310751,3216.744531,9420.466126
1091.702969,12790.388968,8348.217949,9956.590215
1091.703266,15471.009411,10569.303459,9573.644437
1091.703563,12024.497413,8960.931193,8041.861327
1091.703859,3446.511997,2450.852976,10416.125148
1091.704156,-8424.807105,-6739.845684,13556.280523
1091.704453,-17309.149143,-13862.637145,16236.900966
1091.704749,-18228.219009,-14475.350389,13709.458834
1091.705090,-11105.427547,-9650.233593,8501.396260
1091.705382,-2604.031287,-3599.690308,6280.310751
1091.705674,3752.868619,1378.604799,7888.683016
1091.705966,9650.233593,6050.543284,9803.411904
1091.706258,13709.458834,10569.303459,10722.481770
1091.706550,11871.319102,9803.411904,10262.946837
1091.706842,7046.202306,6510.078217,10722.481770
1091.707135,-1761.550576,-229.767466,11947.908258
1091.707448,-9726.822748,-7965.272172,13862.637145
1091.707749,-13020.156435,-13862.637145,13709.458834
1091.708049,-11258.605858,-11718.140791,10722.481770
1091.708349,-5131.473418,-6586.667373,7275.969772
1091.708650,-689.302399,-1914.728887,6127.132440
1091.708950,4212.403552,2144.496354,8654.574571
1091.709250,8041.861327,6510.078217,10262.946837
1091.709551,10416.125148,8501.396260,10569.303459
1091.709898,7888.683016,7735.504705,11182.016703
1091.710191,2527.442131,3063.566220,11947.908258
1091.710484,-4595.349330,-3446.511997,13709.458834
1091.710776,-10033.179370,-9650.233593,13862.637145
1091.711069,-10952.249236,-11411.784169,11794.729947
1091.711362,-9726.822748,-8424.807105,9267.287815
1091.711655,-4442.171019,-3906.046930,7429.148083
1091.711947,765.891555,1531.783110,7275.969772
1091.712265,7735.504705,6663.256528,9267.287815
1091.712560,11335.195014,9650.233593,10262.946837
1091.712855,11871.319102,10722.481770,11028.838392
1091.713150,9420.466126,9956.590215,10262.946837
1091.713446,2680.620442,4595.349330,10875.660081
1091.713741,-5744.186662,-4212.403552,12866.978124
1091.714036,-14092.404612,-10645.892614,14934.885322
1091.714332,-13939.226301,-11871.319102,12254.264880
1091.714632,-9497.055282,-9037.520349,8348.217949
1091.714932,-3829.457775,-5361.240885,6816.434839
1091.715232,2374.263820,-689.302399,8501.396260
1091.715532,7046.202306,3676.279464,10109.768526
1091.715832,10262.946837,8041.861327,10722.481770
1091.716132,10262.946837,9803.411904,10416.125148
1091.716432,5820.775818,8195.039638,10875.660081
1091.716732,-76.589155,1531.783110,12101.086569
1091.717039,-8731.163727,-6280.310751,14322.172078
1091.717339,-10952.249236,-10492.714303,13173.334746
1091.717639,-7658.915550,-10033.179370,9114.109504
1091.717940,-3676.279464,-7199.380617,6356.899906
1091.718240,1838.139732,-3752.868619,6127.132440
1091.718540,5973.954129,1531.783110,8654.574571
1091.718840,9803.411904,5744.186662,11105.427547
1091.719141,11641.551636,8195.039638,10722.481770
1091.719449,10109.768526,8960.931193,9650.233593
1091.719745,2833.798753,4978.295107,10416.125148
1091.720041,-7658.915550,-3293.333686,13862.637145
1091.720338,-15241.241944,-10492.714303,15394.420255
1091.720634,-15700.776877,-12943.567279,13096.745590
1091.720931,-11947.908258,-10492.714303,9803.411904
1091.721227,-4442.171019,-5054.884263,6816.434839
1091.721524,2374.263820,-382.945777,6816.434839
1091.721841,8807.752882,3829.457775,8348.217949
1091.722143,12330.854035,6203.721595,9880.001059
1091.722446,11182.016703,7275.969772,11641.551636
1091.722748,8654.574571,5591.008351,10569.303459
1091.723051,3446.511997,1072.248177,10875.660081
1091.723353,-5591.008351,-6739.845684,12790.388968
1091.723656,-13786.047990,-13709.458834,14934.885322
1091.723958,-14781.707011,-13709.458834,12790.388968
1091.724276,-7965.272172,-7658.915550,8348.217949
1091.724572,-536.124088,-2221.085509,6510.078217
1091.724869,5054.884263,2757.209598,8041.861327
1091.725166,9956.590215,8195.039638,9803.411904
1091.725463,14245.582923,13020.156435,10262.946837
1091.725759,13249.923901,13939.226301,10492.714303
1091.726056,8041.861327,9114.109504,9956.590215
1091.726353,-2604.031287,919.069866,12407.443191
1091.726676,-13939.226301,-9037.520349,15700.776877
1091.726968,-19530.234652,-14705.117856,15394.420255
1091.727259,-16849.614210,-14015.815456,12560.621502
1091.727550,-7199.380617,-8271.628794,6969.613150
1091.727842,1838.139732,-2221.085509,4901.705952
1091.728133,7888.683016,2604.031287,7429.148083
1091.728425,11794.729947,7429.148083,9650.233593
1091.728716,12943.567279,9956.590215,10416.125148
1091.729025,10722.481770,9420.466126,10262.946837
1091.729324,1838.139732,4825.116796,10875.660081
1091.729622,-6816.434839,-2067.907198,13479.691368
1091.729921,-11871.319102,-8424.807105,14092.404612
1091.730219,-11105.427547,-10952.249236,12407.443191
1091.730518,-6356.899906,-9343.876971,8348.217949
1091.730816,-689.302399,-4671.938485,6356.899906
1091.731114,4059.225241,459.534933,6663.256528
1091.731422,8041.861327,4978.295107,9037.520349
1091.731722,10109.768526,8348.217949,11028.838392
1091.732023,10569.303459,10109.768526,11488.373325
1091.732323,8195.039638,9650.233593,10569.303459
1091.732624,765.891555,4825.116796,11488.373325
1091.732925,-7965.272172,-4518.760174,13556.280523
1091.733225,-14934.885322,-11718.140791,15700.776877
1091.733526,-13939.226301,-12943.567279,13709.458834
1091.733822,-8271.628794,-7965.272172,8348.217949
1091.734123,-1608.372265,-2527.442131,6050.543284
1091.734423,4059.225241,1684.961421,7429.148083
1091.734723,10109.768526,5744.186662,9267.287815
1091.735024,12177.675724,8654.574571,10262.946837
1091.735324,10416.125148,7582.326394,10569.303459
1091.735624,5973.954129,4288.992708,10645.892614
1091.735925,-1455.193954,-2833.798753,12254.264880
1091.736220,-9037.520349,-9726.822748,13862.637145
1091.736520,-13326.513057,-13556.280523,13249.923901
1091.736820,-11258.605858,-11871.319102,9956.590215
1091.737120,-6050.543284,-7812.093861,8041.861327
1091.737420,-382.945777,-2374.263820,6816.434839
1091.737720,6586.667373,3982.636086,6816.434839
1091.738020,10875.660081,8195.039638,9497.055282
1091.738320,11028.838392,9420.466126,11182.016703
1091.738632,8501.396260,9114.109504,11794.729947
1091.738930,3293.333686,6203.721595,11258.605858
1091.739227,-2757.209598,-1148.837332,12713.799813
1091.739524,-10492.714303,-9726.822748,14934.885322
1091.739822,-12254.264880,-12637.210657,13096.745590
1091.740119,-8271.628794,-9190.698660,8807.752882
1091.740417,-689.302399,-4365.581863,6127.132440
1091.740714,2144.496354,-2374.263820,7505.737239
1091.741023,5667.597507,1838.139732,10339.535992
1091.741323,8960.931193,6050.543284,11641.551636
1091.741622,10875.660081,9114.109504,11335.195014
1091.741921,7429.148083,6816.434839,9956.590215
1091.742221,-229.767466,1838.139732,12637.210657
1091.742520,-10033.179370,-5514.419196,15394.420255
1091.742820,-14092.404612,-10033.179370,15394.420255
1091.743119,-11411.784169,-10645.892614,10722.481770
1091.743426,-5744.186662,-7046.202306,7352.558928
1091.743726,-0.000000,-2833.798753,6280.310751
1091.744025,6127.132440,3063.566220,7122.791461
1091.744325,9650.233593,6203.721595,9650.233593
1091.744625,10875.660081,8807.752882,11335.195014
1091.744925,9803.411904,9114.109504,11258.605858
1091.745224,6280.310751,7275.969772,10569.303459
1091.745524,-536.124088,1378.604799,10569.303459
1091.745821,-8577.985416,-6586.667373,13403.102212
1091.746119,-12101.086569,-12790.388968,13862.637145
1091.746417,-10033.179370,-11871.319102,11182.016703
1091.746715,-2450.852976,-6893.023995,6356.899906
1091.747013,3599.690308,-2221.085509,5361.240885
1091.747311,6739.845684,1225.426488,7582.326394
1091.747609,8807.752882,5897.364973,10262.946837
1091.747907,8960.931193,8960.931193,11794.729947
1091.748222,7582.326394,10416.125148,10875.660081
1091.748520,2144.496354,7122.791461,10416.125148
1091.748819,-4978.295107,-1302.015643,12254.264880
1091.749118,-14092.404612,-10186.357681,15241.241944
1091.749416,-16696.435899,-14705.117856,14781.707011
1091.749715,-10033.179370,-12330.854035,10109.768526
1091.750014,-229.767466,-6433.489062,5973.954129
1091.750312,7122.791461,-229.767466,6127.132440
1091.750624,10722.481770,4442.171019,8654.574571
1091.750923,12637.210657,9420.466126,10722.481770
1091.751222,13709.458834,12560.621502,10722.481770
1091.751521,8807.752882,10262.946837,10262.946837
1091.751821,-1302.015643,4288.992708,12101.086569
1091.752120,-10799.070925,-4671.938485,13862.637145
1091.752419,-15394.420255,-11105.427547,15241.241944
1091.752718,-12866.978124,-13556.280523,12407.443191
1091.753017,-5897.364973,-10339.535992,8348.217949
1091.753317,1531.783110,-4518.760174,5820.775818
1091.753616,6127.132440,459.534933,6816.434839
1091.753915,9114.109504,4748.527641,9650.233593
1091.754214,9956.590215,7122.791461,11641.551636
1091.754514,7888.683016,7275.969772,11794.729947
1091.754813,4365.581863,6203.721595,10186.357681
1091.755112,-2910.387909,612.713244,11182.016703
1091.755419,-10186.357681,-7812.093861,13709.458834
1091.755719,-13326.513057,-14322.172078,14322.172078
1091.756018,-11258.605858,-13862.637145,12024.497413
1091.756317,-3523.101153,-9037.520349,7429.148083
1091.756616,3140.155375,-2986.977064,5131.473418
1091.756915,8807.752882,3982.636086,6433.489062
1091.757215,12790.388968,8501.396260,9267.287815
1091.757514,11871.319102,10875.660081,10875.660081
1091.757834,9803.411904,11182.016703,10569.303459
1091.758131,2374.263820,6203.721595,11182.016703
1091.758428,-5437.830040,-2374.263820,13709.458834
1091.758725,-13020.156435,-10339.535992,14781.707011
1091.759022,-13326.513057,-13096.745590,13249.923901
1091.759319,-9037.520349,-11105.427547,9573.644437
1091.759616,-3829.457775,-6433.489062,7429.148083
1091.759913,1991.318043,-1608.372265,7429.148083
1091.760232,5973.954129,4748.527641,9420.466126
1091.760530,10262.946837,10109.768526,9956.590215
1091.760829,9267.287815,11947.908258,10722.481770
1091.761127,4365.581863,9956.590215,11182.016703
1091.761425,-842.480710,5131.473418,12713.799813
1091.761723,-8424.807105,-3752.868619,14781.707011
1091.762022,-13479.691368,-11871.319102,15241.241944
1091.762320,-11718.140791,-13862.637145,12560.621502
1091.762633,-3676.279464,-8884.342038,7429.148083
1091.762929,4518.760174,-2680.620442,4901.705952
1091.763225,8654.574571,1378.604799,6510.078217
1091.763521,11488.373325,6510.078217,9650.233593
1091.763817,12484.032346,9650.233593,10722.481770
1091.764113,10722.481770,10262.946837,10569.303459
1091.764409,5667.597507,8041.861327,9956.590215
1091.764705,-2604.031287,612.713244,11794.729947
1091.765005,-12101.086569,-8118.450483,15241.241944
1091.765305,-14934.885322,-13556.280523,15088.063633
1091.765606,-10799.070925,-11411.784169,11028.838392
1091.765907,-2757.209598,-6893.023995,6356.899906
1091.766208,3599.690308,-2221.085509,5284.651729
1091.766508,7735.504705,2757.209598,7275.969772
1091.766809,9267.287815,6203.721595,9803.411904
1091.767110,8960.931193,7735.504705,10952.249236
1091.767417,5667.597507,7888.683016,11488.373325
1091.767714,-229.767466,4288.992708,11488.373325
1091.768011,-6510.078217,-3140.155375,12713.799813
1091.768308,-13479.691368,-10492.714303,14322.172078
1091.768604,-13479.691368,-13862.637145,13709.458834
1091.768901,-8884.342038,-12024.497413,9956.590215
1091.769198,-382.945777,-5820.775818,6510.078217
1091.769495,5361.240885,459.534933,6280.310751
1091.769855,9267.287815,5131.473418,8041.861327
1091.770152,11488.373325,8960.931193,10262.946837
1091.770448,10875.660081,10416.125148,11947.908258
1091.770744,8501.396260,9114.109504,9956.590215
1091.771040,3446.511997,4825.116796,10109.768526
1091.771336,-5131.473418,-4212.403552,12407.443191
1091.771632,-11718.140791,-12943.567279,14934.885322
1091.771929,-13479.691368,-16236.900966,14168.993767
1091.772202,-7658.915550,-11718.140791,9650.233593
1091.772504,-0.000000,-4901.705952,5973.954129
1091.772807,5514.419196,919.069866,6280.310751
1091.773110,9420.466126,6663.256528,8807.752882
1091.773412,9497.055282,10569.303459,11182.016703
1091.773715,7735.504705,11182.016703,12101.086569
1091.774017,2986.977064,8195.039638,11641.551636
1091.774320,-5437.830040,-382.945777,12713.799813
1091.774637,-14475.350389,-8424.807105,14934.885322
1091.774932,-16466.668432,-12943.567279,14781.707011
1091.775226,-11105.427547,-11105.427547,10952.249236
1091.775521,-1914.728887,-5973.954129,6969.613150
1091.775815,5208.062574,-536.124088,5437.830040
1091.776110,8960.931193,4978.295107,6816.434839
1091.776404,10722.481770,8654.574571,9956.590215
1091.776699,10722.481770,9267.287815,10799.070925
1091.776999,7582.326394,9114.109504,11182.016703
1091.777299,3599.690308,5591.008351,11182.016703
1091.777599,-2221.085509,-382.945777,11641.551636
1091.777899,-10033.179370,-9343.876971,13709.458834
1091.778199,-13020.156435,-13403.102212,14015.815456
1091.778499,-10033.179370,-11258.605858,10875.660081
1091.778799,-2604.031287,-5514.419196,6739.845684
1091.779099,3752.868619,306.356622,5973.954129
1091.779389,7046.202306,4978.295107,8501.396260
1091.779688,9956.590215,8195.039638,10569.303459
1091.779987,10722.481770,10262.946837,11335.195014
1091.780286,8654.574571,8041.861327,10875.660081
1091.780584,2144.496354,2757.209598,11641.551636
1091.780883,-6663.256528,-4212.403552,13556.280523
1091.781182,-12254.264880,-9880.001059,14092.404612
1091.781481,-11947.908258,-11105.427547,11794.729947
1091.781788,-7965.272172,-7965.272172,9420.466126
1091.782092,-2067.907198,-3906.046930,7582.326394
1091.782397,3293.333686,1378.604799,7582.326394
1091.782701,8807.752882,6510.078217,8884.342038
1091.783006,12177.675724,9420.466126,9267.287815
1091.783311,11794.729947,8960.931193,10416.125148
1091.783615,7429.148083,6816.434839,10109.768526
1091.783920,-0.000000,1072.248177,11488.373325
1091.784203,-9880.001059,-6893.023995,14781.707011
1091.784500,-14475.350389,-12637.210657,14628.528700
1091.784796,-12101.086569,-11871.319102,11028.838392
1091.785092,-5284.651729,-7199.380617,7122.791461
1091.785389,612.713244,-2833.798753,5131.473418
1091.785685,4059.225241,612.713244,7582.326394
1091.785981,8041.861327,3829.457775,10722.481770
1091.786278,9803.411904,6203.721595,11335.195014
1091.786605,10569.303459,7122.791461,10569.303459
1091.786901,5973.954129,4825.116796,9650.233593
1091.787198,-1148.837332,-1914.728887,11488.373325
1091.787494,-10339.535992,-9726.822748,14168.993767
1091.787790,-13020.156435,-12943.567279,14015.815456
1091.788086,-9726.822748,-10186.357681,10722.481770
1091.788382,-3676.279464,-5208.062574,6816.434839
1091.788679,1378.604799,459.534933,6510.078217
1091.788990,5361.240885,5131.473418,8807.752882
1091.789290,7888.683016,8195.039638,11335.195014
1091.789590,7582.326394,8960.931193,12713.799813
1091.789890,5667.597507,6663.256528,12101.086569
1091.790190,765.891555,2910.387909,11182.016703
1091.790490,-4825.116796,-3906.046930,12943.567279
1091.790790,-10799.070925,-10339.535992,14475.350389
1091.791090,-9343.876971,-11871.319102,11488.373325
1091.791399,-5897.364973,-8884.342038,8807.752882
1091.791697,-689.302399,-4825.116796,7122.791461
1091.791996,3140.155375,-382.945777,7735.504705
1091.792294,6893.023995,4442.171019,9573.644437
1091.792593,10875.660081,8807.752882,10262.946837
1091.792891,10262.946837,9650.233593,10645.892614
1091.793190,6893.023995,8654.574571,9803.411904
1091.793488,-382.945777,3063.566220,11028.838392
1091.793795,-10033.179370,-5054.884263,13403.102212
1091.794096,-15394.420255,-12024.497413,14781.707011
1091.794397,-15241.241944,-13249.923901,12790.388968
1091.794697,-7352.558928,-9190.698660,8195.039638
1091.794998,1838.139732,-2833.798753,5514.419196
1091.795298,8501.396260,3063.566220,6663.256528
1091.795599,11641.551636,7122.791461,9114.109504
1091.795899,12637.210657,10569.303459,10645.892614
1091.796196,11028.838392,12254.264880,10109.768526
1091.796495,4671.938485,7735.504705,9573.644437
1091.796793,-5591.008351,-1302.015643,12943.567279
1091.797092,-14322.172078,-10339.535992,15241.241944
1091.797391,-14934.885322,-13862.637145,14015.815456
1091.797690,-8118.450483,-10952.249236,9956.590215
1091.797989,-76.589155,-6127.132440,6510.078217
1091.798287,4671.938485,-842.480710,6663.256528
1091.798582,9114.109504,4748.527641,8654.574571
1091.798882,10569.303459,9573.644437,10492.714303
1091.799183,9803.411904,9956.590215,10722.481770
1091.799483,5361.240885,8195.039638,11182.016703
1091.799783,-536.124088,3523.101153,11718.140791
1091.800083,-8271.628794,-4212.403552,13096.745590
1091.800383,-14245.582923,-11871.319102,15088.063633
1091.800683,-14322.172078,-14551.939545,13556.280523
1091.800972,-8884.342038,-10492.714303,10109.768526
1091.801277,-1608.372265,-4212.403552,7122.791461
1091.801582,4365.581863,1684.961421,7275.969772
1091.801888,9114.109504,7122.791461,9114.109504
1091.802193,11641.551636,10262.946837,9880.001059
1091.802498,11794.729947,9650.233593,10339.535992
1091.802804,8041.861327,6510.078217,9650.233593
1091.803109,306.356622,-382.945777,11564.962480
1091.803409,-7965.272172,-9037.520349,14322.172078
1091.803704,-12560.621502,-13556.280523,13862.637145
1091.803999,-10339.535992,-11564.962480,10186.357681
1091.804295,-6050.543284,-7199.380617,7735.504705
1091.804590,-1455.193954,-3140.155375,6816.434839
1091.804885,3293.333686,3216.744531,8654.574571
1091.805180,7888.683016,7735.504705,9803.411904
1091.805476,9497.055282,9114.109504,10416.125148
1091.805783,7429.148083,8195.039638,10722.481770
1091.806081,3140.155375,3676.279464,11028.838392
1091.806379,-3676.279464,-2833.798753,12790.388968
1091.806677,-11871.319102,-10186.357681,14628.528700
1091.806975,-13632.869679,-12484.032346,13862.637145
1091.807274,-9190.698660,-9650.233593,10492.714303
1091.807572,-2221.085509,-4825.116796,6050.543284
1091.807870,2833.798753,306.356622,5973.954129
1091.808186,6739.845684,4825.116796,8654.574571
1091.808483,8807.752882,8041.861327,10875.660081
1091.808780,9803.411904,10262.946837,11028.838392
1091.809077,7888.683016,9420.466126,10109.768526
1091.809374,612.713244,3676.279464,11028.838392
1091.809671,-8118.450483,-4825.116796,13939.226301
1091.809968,-13786.047990,-11105.427547,15853.955188
1091.810265,-12101.086569,-11411.784169,12790.388968
1091.810584,-5591.008351,-7812.093861,7582.326394
1091.810884,612.713244,-2833.798753,6280.310751
1091.811183,5208.062574,1684.961421,7429.148083
1091.811483,9267.287815,7122.791461,9267.287815
1091.811783,10875.660081,10262.946837,10186.357681
1091.812082,9267.287815,10262.946837,10875.660081
1091.812382,4059.225241,7275.969772,10569.303459
1091.812682,-2450.852976,1991.318043,11947.908258
1091.812970,-9880.001059,-5973.954129,13786.047990
1091.813269,-14475.350389,-12790.388968,14628.528700
1091.813569,-12101.086569,-12484.032346,11794.729947
1091.813869,-4135.814397,-6739.845684,7582.326394
1091.814169,2986.977064,-1761.550576,5437.830040
1091.814469,8041.861327,3369.922842,7429.148083
1091.814769,11335.195014,7582.326394,8501.396260
1091.815069,13249.923901,10109.768526,8807.752882
1091.815369,8960.931193,8960.931193,10109.768526
1091.815668,2144.496354,4135.814397,10569.303459
1091.815967,-6969.613150,-3906.046930,12101.086569
1091.816266,-16849.614210,-12790.388968,15700.776877
1091.816565,-19377.056341,-17155.970832,16083.722655
1091.816865,-13786.047990,-14705.117856,12101.086569
1091.817164,-3063.566220,-7352.558928,6280.310751
1091.817463,5667.597507,-995.659021,5131.473418
1091.817770,9956.590215,4288.992708,6816.434839
1091.818073,12484.032346,8654.574571,10262.946837
1091.818375,13249.923901,9573.644437,10569.303459
1091.818678,9114.109504,6510.078217,10262.946837
1091.818980,-382.945777,306.356622,12101.086569
1091.819283,-9573.644437,-8118.450483,14475.350389
1091.819586,-14475.350389,-13096.745590,15547.598566
1091.819888,-11258.605858,-13249.923901,12790.388968
1091.820209,-4442.171019,-8118.450483,8577.985416
1091.820506,1531.783110,-995.659021,6663.256528
1091.820803,6739.845684,5591.008351,7429.148083
1091.821100,9956.590215,10416.125148,9114.109504
1091.821397,10875.660081,12713.799813,10569.303459
1091.821694,8195.039638,11028.838392,11641.551636
1091.821991,1991.318043,6356.899906,11794.729947
1091.822288,-5284.651729,-229.767466,13096.745590
1091.822607,-12713.799813,-8577.985416,14475.350389
1091.822899,-15547.598566,-12943.567279,14628.528700
1091.823192,-11871.319102,-11105.427547,11028.838392
1091.823485,-5131.473418,-5514.419196,6816.434839
1091.823778,-0.000000,-995.659021,6510.078217
1091.824070,4212.403552,3063.566220,7888.683016
1091.824363,9420.466126,6816.434839,9267.287815
1091.824656,11488.373325,8041.861327,10109.768526
1091.824973,10262.946837,7275.969772,9956.590215
1091.825283,5514.419196,4442.171019,10569.303459
1091.825593,-382.945777,-1302.015643,11947.908258
1091.825903,-9037.520349,-8884.342038,14475.350389
1091.826213,-12713.799813,-11718.140791,14322.172078
1091.826523,-9037.520349,-8118.450483,10416.125148
1091.826834,-1148.837332,-2986.977064,5361.240885
1091.827144,3599.690308,1531.783110,6127.132440
1091.827349,6586.667373,5131.473418,9114.109504
1091.827649,9267.287815,8654.574571,11335.195014
1091.827950,11182.016703,10722.481770,10033.179370
1091.828250,7888.683016,8654.574571,9650.233593
1091.828551,-2757.209598,1531.783110,12560.621502
1091.828851,-11258.605858,-6280.310751,15700.776877
1091.829151,-15547.598566,-10799.070925,15241.241944
1091.829452,-13479.691368,-12790.388968,12560.621502
1091.829759,-8118.450483,-9726.822748,9114.109504
1091.830061,-229.767466,-4059.225241,6356.899906
1091.830362,6280.310751,1531.783110,5973.954129
1091.830664,9650.233593,5744.186662,8654.574571
1091.830966,10569.303459,6816.434839,10109.768526
1091.831267,9267.287815,7122.791461,10569.303459
1091.831569,4748.527641,4288.992708,10109.768526
1091.831871,-1761.550576,-1608.372265,12101.086569
1091.832151,-9726.822748,-9343.876971,14168.993767
1091.832451,-12713.799813,-14168.993767,14475.350389
1091.832750,-10033.179370,-12177.675724,11182.016703
1091.833050,-3216.744531,-5973.954129,7122.791461
1091.833350,2833.798753,-0.000000,5361.240885
1091.833650,5667.597507,5131.473418,7122.791461
1091.833950,8807.752882,8501.396260,9420.466126
1091.834250,9956.590215,11182.016703,10875.660081
1091.834566,6127.132440,9114.109504,11028.838392
1091.834867,459.534933,4135.814397,11641.551636
1091.835167,-6663.256528,-4059.225241,14015.815456
1091.835468,-13479.691368,-10799.070925,15547.598566
1091.835769,-13479.691368,-13096.745590,13249.923901
1091.836069,-9190.698660,-9650.233593,9573.644437
1091.836370,-1302.015643,-4518.760174,6663.256528
1091.836671,3906.046930,-229.767466,6663.256528
1091.836985,8041.861327,4748.527641,8195.039638
1091.837283,9650.233593,8501.396260,10109.768526
1091.837580,10722.481770,8654.574571,10569.303459
1091.837878,6893.023995,7275.969772,10875.660081
1091.838176,612.713244,2450.852976,12101.086569
1091.838473,-6969.613150,-5054.884263,14015.815456
1091.838771,-13326.513057,-11258.605858,14781.707011
1091.839069,-12101.086569,-11871.319102,12024.497413
1091.839345,-7505.737239,-8271.628794,9267.287815
1091.839645,-2067.907198,-3906.046930,7735.504705
1091.839945,4059.225241,1531.783110,7735.504705
1091.840245,8348.217949,7888.683016,8960.931193
1091.840546,11335.195014,11488.373325,9573.644437
1091.840846,11335.195014,11641.551636,9650.233593
1091.841146,5208.062574,7735.504705,10109.768526
1091.841446,-2450.852976,1378.604799,12101.086569
1091.841774,-11105.427547,-8118.450483,14628.528700
1091.842072,-15547.598566,-14705.117856,15241.241944
1091.842370,-11258.605858,-13862.637145,11335.195014
1091.842668,-2604.031287,-7046.202306,5820.775818
1091.842966,3599.690308,-1914.728887,5514.419196
1091.843264,6586.667373,2604.031287,7429.148083
1091.843562,8807.752882,7582.326394,10416.125148
1091.843860,10569.303459,11641.551636,11028.838392
1091.844167,9497.055282,10722.481770,9803.411904
1091.844464,2833.798753,6356.899906,11182.016703
1091.844761,-5591.008351,-1608.372265,13096.745590
1091.845059,-13939.226301,-10186.357681,15930.544344
1091.845356,-14092.404612,-12790.388968,15088.063633
1091.845653,-8271.628794,-9497.055282,9956.590215
1091.845950,-536.124088,-3599.690308,6356.899906
1091.846247,6127.132440,2757.209598,5361.240885
1091.846544,10722.481770,8195.039638,7046.202306
1091.846845,12024.497413,10416.125148,9573.644437
1091.847146,8807.752882,9267.287815,11182.016703
1091.847447,4671.938485,6356.899906,11641.551636
1091.847748,-2067.907198,-76.589155,12254.264880
1091.848049,-10339.535992,-7352.558928,13709.458834
1091.848351,-15394.420255,-14322.172078,15241.241944
1091.848652,-14245.582923,-14858.296167,13403.102212
1091.848946,-6663.256528,-9880.001059,9267.287815
1091.849247,1072.248177,-3446.511997,5667.597507
1091.849548,5361.240885,1072.248177,6356.899906
1091.849849,9267.287815,4825.116796,8807.752882
1091.850150,11871.319102,7888.683016,9573.644437
1091.850451,12024.497413,8195.039638,9880.001059
1091.850752,6739.845684,4442.171019,10569.303459
1091.851053,-1148.837332,-2067.907198,12254.264880
1091.851341,-7965.272172,-9190.698660,13786.047990
1091.851642,-13786.047990,-13862.637145,14781.707011
1091.851942,-13020.156435,-13096.745590,12101.086569
1091.852243,-6203.721595,-7658.915550,8501.396260
1091.852544,1072.248177,-1302.015643,6356.899906
1091.852845,6893.023995,4595.349330,6969.613150
1091.853146,10569.303459,9420.466126,9420.466126
1091.853446,11641.551636,12254.264880,10262.946837
1091.853756,9420.466126,9420.466126,10416.125148
1091.854055,1991.318043,4748.527641,11794.729947
1091.854354,-6663.256528,-2680.620442,13249.923901
1091.854654,-14475.350389,-10339.535992,15471.009411
1091.854953,-13939.226301,-12637.210657,14168.993767
1091.855252,-8271.628794,-9650.233593,9573.644437
1091.855552,-1455.193954,-4365.581863,6510.078217
1091.855851,3599.690308,459.534933,6510.078217
1091.856158,8501.396260,4748.527641,8195.039638
1091.856458,10722.481770,8654.574571,9956.590215
1091.856758,10722.481770,9267.287815,10262.946837
1091.857057,7735.504705,7888.683016,10416.125148
1091.857357,1072.248177,2450.852976,12101.086569
1091.857657,-7122.791461,-5667.597507,14628.528700
1091.857956,-13020.156435,-11564.962480,15241.241944
1091.858256,-11947.908258,-12024.497413,12790.388968
1091.858553,-7505.737239,-7199.380617,8807.752882
1091.858851,-1455.193954,-995.659021,6816.434839
1091.859149,2986.977064,4288.992708,7582.326394
1091.859447,8654.574571,9650.233593,8960.931193
1091.859745,11182.016703,11488.373325,9573.644437
1091.860043,11028.838392,10569.303459,10109.768526
1091.860341,8348.217949,6050.543284,9803.411904
1091.860640,153.178311,-1148.837332,12101.086569
1091.860954,-8118.450483,-10033.179370,14781.707011
1091.861253,-13632.869679,-14705.117856,15700.776877
1091.861551,-9880.001059,-11105.427547,10722.481770
1091.861850,-3369.922842,-5820.775818,6280.310751
1091.862149,153.178311,-2374.263820,5820.775818
1091.862447,2986.977064,1838.139732,7429.148083
1091.862746,7735.504705,6203.721595,9114.109504
1091.863045,8960.931193,7122.791461,9956.590215
1091.863333,5514.419196,4748.527641,11488.373325
1091.863633,1072.248177,459.534933,12790.388968
1091.863933,-5437.830040,-4212.403552,13249.923901
1091.864233,-9726.822748,-10033.179370,13709.458834
1091.864533,-10952.249236,-12484.032346,12790.388968
1091.864833,-6969.613150,-10033.179370,9650.233593
1091.865133,1225.426488,-4671.938485,5820.775818
1091.865433,5820.775818,-842.480710,6127.132440
1091.865732,8960.931193,2757.209598,8041.861327
1091.866033,11028.838392,6510.078217,9956.590215
1091.866333,10569.303459,8654.574571,10109.768526
1091.866633,6739.845684,7582.326394,11335.195014
1091.866933,-689.302399,3369.922842,12407.443191
1091.867233,-8271.628794,-2067.907198,14781.707011
1091.867533,-14322.172078,-8424.807105,14934.885322
1091.867833,-14781.707011,-9880.001059,13556.280523
1091.868140,-9880.001059,-6739.845684,10569.303459
1091.868439,-1148.837332,-1455.193954,7122.791461
1091.868738,3906.046930,1991.318043,7275.969772
1091.869038,8960.931193,5437.830040,8960.931193
1091.869337,10875.660081,8041.861327,10262.946837
1091.869636,11488.373325,8501.396260,10109.768526
1091.869935,8501.396260,5131.473418,9956.590215
1091.870235,-536.124088,-1914.728887,12943.567279
1091.870555,-9726.822748,-9037.520349,15088.063633
1091.870852,-13479.691368,-12484.032346,14322.172078
1091.871149,-9880.001059,-10492.714303,9803.411904
1091.871446,-3829.457775,-6280.310751,7275.969772
1091.871743,765.891555,-1608.372265,6816.434839
1091.872040,5361.240885,3676.279464,7429.148083
1091.872337,11794.729947,9573.644437,9114.109504
1091.872634,13862.637145,11947.908258,9573.644437
1091.872936,10416.125148,9573.644437,10262.946837
1091.873238,3906.046930,5744.186662,11028.838392
1091.873539,-4595.349330,-1914.728887,12713.799813
1091.873840,-13479.691368,-10645.892614,15164.652789
1091.874142,-17002.792521,-15011.474478,14781.707011
1091.874443,-13939.226301,-12637.210657,11641.551636
1091.874745,-4748.527641,-7658.915550,7582.326394
1091.875046,2680.620442,-1148.837332,6356.899906
1091.875359,9420.466126,4978.295107,7429.148083
1091.875655,12330.854035,8807.752882,9420.466126
1091.875951,12637.210657,10262.946837,9956.590215
1091.876247,11488.373325,10109.768526,9803.411904
1091.876543,2527.442131,3829.457775,11258.605858
1091.876839,-6969.613150,-5514.419196,14322.172078
1091.877135,-13786.047990,-12637.210657,16083.722655
1091.877431,-12254.264880,-11871.319102,13709.458834
1091.877731,-5437.830040,-7965.272172,8807.752882
1091.878032,459.534933,-2833.798753,6510.078217
1091.878332,5054.884263,1684.961421,7352.558928
1091.878633,8654.574571,7275.969772,8654.574571
1091.878934,10722.481770,10262.946837,9573.644437
1091.879235,9420.466126,9573.644437,10109.768526
1091.879536,4059.225241,4825.116796,11028.838392
1091.879836,-3523.101153,-382.945777,13096.745590
1091.880143,-9497.055282,-6433.489062,13862.637145
1091.880440,-13020.156435,-10952.249236,14475.350389
1091.880737,-12254.264880,-12637.210657,12713.799813
1091.881034,-6510.078217,-7199.380617,7888.683016
1091.881331,612.713244,-2067.907198,5591.008351
1091.881628,5208.062574,1684.961421,6969.613150
1091.881924,8960.931193,4288.992708,8807.752882
1091.882221,10875.660081,7275.969772,9956.590215
1091.882535,10875.660081,6356.899906,9956.590215
1091.882838,5973.954129,2450.852976,10875.660081
1091.883141,-1914.728887,-4059.225241,13403.102212
1091.883444,-11105.427547,-10033.179370,15700.776877
1091.883746,-12560.621502,-11411.784169,14475.350389
1091.884049,-8731.163727,-7046.202306,10262.946837
1091.884352,-2067.907198,-2833.798753,6816.434839
1091.884655,1991.318043,1684.961421,6586.667373
1091.884893,7275.969772,6356.899906,8348.217949
1091.885196,10569.303459,10262.946837,9650.233593
1091.885500,9956.590215,9267.287815,10875.660081
1091.885803,4518.760174,5897.364973,12713.799813
1091.886107,-2757.209598,459.534933,13709.458834
1091.886410,-10033.179370,-6280.310751,14934.885322
1091.886713,-14092.404612,-11871.319102,14781.707011
1091.887017,-10186.357681,-11718.140791,12024.497413
1091.887362,-3216.744531,-7965.272172,8501.396260
1091.887658,4748.527641,-2374.263820,4901.705952
1091.887953,9267.287815,2450.852976,5361.240885
1091.888248,11028.838392,5131.473418,8348.217949
1091.888543,10722.481770,7582.326394,9956.590215
1091.888839,8348.217949,8501.396260,10569.303459
1091.889134,3599.690308,5437.830040,10799.070925
1091.889429,-5284.651729,459.534933,13403.102212
1091.889729,-13173.334746,-6586.667373,15930.544344
1091.890029,-17768.684076,-10186.357681,16236.900966
1091.890329,-11871.319102,-7965.272172,11641.551636
1091.890629,-4135.814397,-3446.511997,7352.558928
1091.890929,2374.263820,306.356622,6663.256528
1091.891229,8195.039638,5284.651729,7505.737239
1091.891530,14015.815456,10262.946837,7965.272172
1091.891830,15777.366033,12101.086569,8195.039638
1091.892137,11641.551636,9267.287815,9573.644437
1091.892437,3446.511997,4135.814397,10875.660081
1091.892737,-4748.527641,-2833.798753,13403.102212
1091.893037,-11947.908258,-10033.179370,15317.831100
1091.893338,-15547.598566,-14168.993767,15241.241944
1091.893638,-11411.784169,-10952.249236,11411.784169
1091.893938,-2450.852976,-4212.403552,6663.256528
1091.894238,3752.868619,306.356622,6127.132440
1091.894478,7582.326394,4288.992708,8118.450483
1091.894784,10875.660081,8654.574571,9114.109504
1091.895090,12177.675724,10416.125148,9803.411904
1091.895397,9114.109504,6816.434839,9267.287815
1091.895703,-1302.015643,-76.589155,12713.799813
1091.896009,-10645.892614,-7965.272172,15853.955188
1091.896316,-14781.707011,-12637.210657,15700.776877
1091.896622,-14092.404612,-13862.637145,13249.923901
1091.896939,-8118.450483,-10492.714303,9573.644437
1091.897239,-689.302399,-5514.419196,6969.613150
1091.897540,6739.845684,1838.139732,5744.186662
1091.897841,12637.210657,7275.969772,6816.434839
1091.898141,13862.637145,9803.411904,8960.931193
1091.898442,11335.195014,10109.768526,9956.590215
1091.898743,6586.667373,7122.791461,10262.946837
1091.899043,-1914.728887,153.178311,12560.621502
1091.899358,-11411.784169,-9037.520349,15624.187722
1091.899655,-15547.598566,-14168.993767,15930.544344
1091.899952,-11718.140791,-12177.675724,12254.264880
1091.900250,-3523.101153,-6739.845684,7352.558928
1091.900547,2297.674665,-1608.372265,5973.954129
1091.900844,4671.938485,3676.279464,7888.683016
1091.901141,8960.931193,8348.217949,8654.574571
1091.901439,8960.931193,10416.125148,9956.590215
1091.901728,8041.861327,8348.217949,10109.768526
1091.902027,2144.496354,3523.101153,12101.086569
1091.902327,-5131.473418,-3293.333686,14015.815456
1091.902626,-10952.249236,-9650.233593,15088.063633
1091.902925,-11947.908258,-12177.675724,14168.993767
1091.903224,-7199.380617,-10033.179370,9956.590215
1091.903523,-382.945777,-5054.884263,6663.256528
1091.903822,4748.527641,153.178311,6127.132440
1091.904108,9650.233593,5744.186662,6586.667373
1091.904410,12790.388968,9956.590215,8501.396260
1091.904712,11641.551636,10875.660081,9420.466126
1091.905014,7275.969772,8654.574571,10569.303459
1091.905315,-1761.550576,2144.496354,13249.923901
1091.905617,-9726.822748,-4901.705952,14781.707011
1091.905919,-15088.063633,-10645.892614,15853.955188
1091.906221,-15241.241944,-11564.962480,14781.707011
1091.906528,-9343.876971,-7812.093861,10416.125148
1091.906824,-0.000000,-1302.015643,6510.078217
1091.907119,7046.202306,4288.992708,4901.705952
1091.907415,9420.466126,7582.326394,6969.613150
1091.907710,9497.055282,9573.644437,10569.303459
1091.908006,8960.931193,9267.287815,10416.125148
1091.908302,5208.062574,4442.171019,10952.249236
1091.908597,-3369.922842,-2986.977064,13556.280523
1091.908960,-9880.001059,-9726.822748,14781.707011
1091.909253,-11564.962480,-12484.032346,14168.993767
1091.909545,-7122.791461,-11105.427547,10262.946837
1091.909838,-0.000000,-6127.132440,7429.148083
1091.910130,4748.527641,-0.000000,6280.310751
1091.910423,8807.752882,4595.349330,5820.775818
1091.910716,10722.481770,8195.039638,7735.504705
1091.911008,8807.752882,9420.466126,9880.001059
1091.911303,5514.419196,7275.969772,11488.373325
1091.911603,-0.000000,3063.566220,12101.086569
1091.911903,-7122.791461,-3140.155375,13403.102212
1091.912204,-15088.063633,-10799.070925,15853.955188
1091.912504,-16466.668432,-13862.637145,15164.652789
1091.912804,-10645.892614,-10799.070925,11182.016703
1091.913104,-1608.372265,-5208.062574,6510.078217
1091.913404,4671.938485,-689.302399,5361.240885
1091.913716,9114.109504,4135.814397,6510.078217
1091.914013,13403.102212,8195.039638,8654.574571
1091.914311,11335.195014,8041.861327,9956.590215
1091.914608,7582.326394,6050.543284,10569.303459
1091.914906,-842.480710,1378.604799,12330.854035
1091.915203,-9190.698660,-5208.062574,15088.063633
1091.915500,-14628.528700,-11105.427547,16543.257588
1091.915798,-13173.334746,-11411.784169,14322.172078
1091.916097,-5591.008351,-7199.380617,9573.644437
1091.916397,2527.442131,-1761.550576,6356.899906
1091.916698,8501.396260,3676.279464,5361.240885
1091.916998,11335.195014,7735.504705,8041.861327
1091.917298,12024.497413,10416.125148,9803.411904
1091.917598,9956.590215,10416.125148,10262.946837
1091.917898,4518.760174,6816.434839,11182.016703
1091.918198,-5897.364973,-995.659021,14015.815456
1091.918505,-13632.869679,-8424.807105,16390.079277
1091.918803,-15853.955188,-12024.497413,15241.241944
1091.919101,-12713.799813,-10645.892614,11182.016703
1091.919399,-6816.434839,-6739.845684,8501.396260
1091.919697,-842.480710,-1914.728887,7429.148083
1091.919995,6280.310751,3523.101153,7275.969772
1091.920294,12790.388968,8348.217949,7122.791461
1091.920592,13249.923901,9803.411904,8807.752882
1091.920952,10416.125148,7888.683016,9650.233593
1091.921247,5361.240885,3523.101153,10262.946837
1091.921541,-2910.387909,-4212.403552,13096.745590
1091.921836,-11564.962480,-12484.032346,15394.420255
1091.922131,-14934.885322,-15011.474478,15241.241944
1091.922426,-9880.001059,-9880.001059,10492.714303
1091.922720,-229.767466,-2986.977064,6127.132440
1091.923015,4671.938485,1225.426488,6356.899906
1091.923330,7046.202306,6356.899906,8348.217949
1091.923626,9267.287815,11028.838392,9420.466126
1091.923922,10875.660081,12407.443191,8960.931193
1091.924218,6739.845684,9114.109504,10262.946837
1091.924515,-2910.387909,1225.426488,13403.102212
1091.924811,-10645.892614,-5973.954129,15853.955188
1091.925107,-14322.172078,-11258.605858,15700.776877
1091.925404,-11718.140791,-12330.854035,12943.567279
1091.925715,-6663.256528,-9726.822748,10186.357681
1091.926013,306.356622,-4059.225241,6969.613150
1091.926311,8041.861327,2450.852976,5361.240885
1091.926610,12637.210657,6663.256528,6127.132440
1091.926908,12943.567279,8654.574571,7582.326394
1091.927206,9420.466126,6510.078217,10109.768526
1091.927504,3599.690308,3216.744531,11641.551636
1091.927802,-3829.457775,-2680.620442,13403.102212
1091.928119,-11564.962480,-9650.233593,14934.885322
1091.928414,-15700.776877,-13249.923901,15088.063633
1091.928708,-11564.962480,-10952.249236,12101.086569
1091.929003,-3523.101153,-6127.132440,8195.039638
1091.929298,2986.977064,-0.000000,5820.775818
1091.929593,8041.861327,5284.651729,5667.597507
1091.929888,11182.016703,9420.466126,7735.504705
1091.930183,9650.233593,8501.396260,10109.768526
1091.930490,5820.775818,6356.899906,12407.443191
1091.930794,-995.659021,2144.496354,12943.567279
1091.931097,-6816.434839,-3906.046930,13862.637145
1091.931400,-12866.978124,-9880.001059,15700.776877
1091.931704,-12407.443191,-10952.249236,13709.458834
1091.932007,-6969.613150,-7965.272172,9956.590215
1091.932310,-842.480710,-4059.225241,7582.326394
1091.932614,4901.705952,-382.945777,6969.613150
1091.932882,8195.039638,4442.171019,7582.326394
1091.933187,12024.497413,7888.683016,7888.683016
1091.933492,11182.016703,8501.396260,9267.287815
1091.933797,6893.023995,4978.295107,10875.660081
1091.934103,-229.767466,765.891555,12790.388968
1091.934408,-6510.078217,-4825.116796,14168.993767
1091.934713,-11718.140791,-10339.535992,15241.241944
1091.935018,-13020.156435,-11411.784169,13709.458834
1091.935336,-9497.055282,-7505.737239,10262.946837
1091.935630,-1302.015643,-1608.372265,6969.613150
1091.935924,3752.868619,3523.101153,6356.899906
1091.936217,6893.023995,7275.969772,7888.683016
1091.936511,8041.861327,9573.644437,9956.590215
1091.936804,8195.039638,9573.644437,10722.481770
1091.937098,6739.845684,6816.434839,10799.070925
1091.937391,-382.945777,459.534933,12407.443191
1091.937709,-9190.698660,-6433.489062,14934.885322
1091.938005,-12866.978124,-10952.249236,15547.598566
1091.938301,-10645.892614,-10952.249236,12254.264880
1091.938597,-4748.527641,-6586.667373,8195.039638
1091.938893,919.069866,-1148.837332,6280.310751
1091.939189,6127.132440,3829.457775,5820.775818
1091.939485,9803.411904,8348.217949,8195.039638
1091.939780,11182.016703,9650.233593,9497.055282
1091.940104,9114.109504,8041.861327,10875.660081
1091.940401,3140.155375,3523.101153,12407.443191
1091.940698,-3982.636086,-3446.511997,13249.923901
1091.940996,-9880.001059,-8731.163727,14015.815456
1091.941293,-11871.319102,-11411.784169,13862.637145
1091.941591,-10033.179370,-10492.714303,10569.303459
1091.941888,-3063.566220,-5208.062574,7888.683016
1091.942186,2374.263820,612.713244,6356.899906
1091.942493,7429.148083,5284.651729,6356.899906
1091.942794,8501.396260,7735.504705,9267.287815
1091.943094,7735.504705,7888.683016,10722.481770
1091.943395,5820.775818,6050.543284,10262.946837
1091.943696,-689.302399,1072.248177,11641.551636
1091.943997,-8424.807105,-7046.202306,14015.815456
1091.944298,-13939.226301,-12943.567279,15853.955188
1091.944599,-11411.784169,-13249.923901,13096.745590
1091.944879,-4978.295107,-9037.520349,8577.985416
1091.945178,1072.248177,-5208.062574,6280.310751
1091.945477,4901.705952,-76.589155,6969.613150
1091.945776,9420.466126,4978.295107,8195.039638
1091.946075,11335.195014,8807.752882,9114.109504
1091.946374,10416.125148,9114.109504,9114.109504
1091.946673,5208.062574,4825.116796,10875.660081
1091.946972,-3369.922842,-689.302399,14168.993767
1091.947289,-10492.714303,-6739.845684,15853.955188
1091.947588,-14322.172078,-10799.070925,15853.955188
1091.947887,-11718.140791,-9726.822748,12790.388968
1091.948186,-6050.543284,-4518.760174,8807.752882
1091.948485,306.356622,765.891555,6739.845684
1091.948785,4518.760174,4978.295107,6969.613150
1091.949084,8041.861327,8654.574571,8807.752882
1091.949383,9803.411904,9803.411904,10262.946837
1091.949700,9420.466126,7429.148083,9956.590215
1091.949998,4059.225241,2757.209598,10875.660081
1091.950296,-2757.209598,-3140.155375,14015.815456
1091.950594,-8577.985416,-9726.822748,14781.707011
1091.950891,-10033.179370,-11105.427547,12713.799813
1091.951189,-7122.791461,-9037.520349,10033.179370
1091.951487,-2450.852976,-5208.062574,7735.504705
1091.951785,1225.426488,-229.767466,6127.132440
1091.952085,4748.527641,4595.349330,6893.023995
1091.952384,6280.310751,6663.256528,8960.931193
1091.952683,5361.240885,7582.326394,10492.714303
1091.952982,4671.938485,6510.078217,11488.373325
1091.953281,-1608.372265,1072.248177,12790.388968
1091.953580,-7965.272172,-6433.489062,15547.598566
1091.953880,-11718.140791,-10492.714303,15547.598566
1091.954179,-8577.985416,-9880.001059,11641.551636
1091.954492,-2374.263820,-6893.023995,8118.450483
1091.954791,2680.620442,-2680.620442,6816.434839
1091.955090,5361.240885,2450.852976,7429.148083
1091.955389,8807.752882,6663.256528,7735.504705
1091.955687,9114.109504,9114.109504,8960.931193
1091.955986,8501.396260,7735.504705,10109.768526
1091.956285,4748.527641,5284.651729,11564.962480
1091.956584,-1148.837332,765.891555,12560.621502
1091.956891,-6663.256528,-4901.705952,14781.707011
1091.957188,-10952.249236,-9650.233593,15241.241944
1091.957485,-10186.357681,-9343.876971,12560.621502
1091.957782,-4978.295107,-4901.705952,8501.396260
1091.958080,-382.945777,-536.124088,6280.310751
1091.958377,2374.263820,2144.496354,7582.326394
1091.958674,5361.240885,6356.899906,9573.644437
1091.958971,7888.683016,7888.683016,9956.590215
1091.959268,8195.039638,6816.434839,9650.233593
1091.959569,2527.442131,2910.387909,10569.303459
1091.959870,-6050.543284,-2833.798753,14015.815456
1091.960171,-11871.319102,-9343.876971,15241.241944
1091.960472,-13020.156435,-12177.675724,13709.458834
1091.960773,-9343.876971,-10645.892614,10722.481770
1091.961074,-1455.193954,-6893.023995,7275.969772
1091.961375,4671.938485,-1761.550576,5667.597507
1091.961670,9650.233593,5284.651729,6280.310751
1091.961971,13096.745590,8348.217949,7735.504705
1091.962272,11641.551636,9420.466126,9573.644437
1091.962573,7582.326394,8041.861327,11488.373325
1091.962874,765.891555,3369.922842,12101.086569
1091.963174,-6969.613150,-4671.938485,13862.637145
1091.963475,-13939.226301,-10186.357681,15241.241944
1091.963776,-13173.334746,-12484.032346,13249.923901
1091.964064,-9037.520349,-9190.698660,10262.946837
1091.964365,-3063.566220,-4212.403552,8041.861327
1091.964666,1838.139732,-229.767466,8041.861327
1091.964967,5820.775818,4748.527641,8807.752882
1091.965268,8501.396260,8501.396260,9114.109504
1091.965568,7582.326394,8348.217949,9803.411904
1091.965869,3446.511997,5131.473418,11794.729947
1091.966170,-2374.263820,-1148.837332,13096.745590
1091.966503,-7812.093861,-7505.737239,14934.885322
1091.966797,-10799.070925,-12177.675724,15241.241944
1091.967092,-7658.915550,-10799.070925,11182.016703
1091.967386,-382.945777,-5667.597507,7812.093861
1091.967680,4518.760174,-995.659021,5820.775818
1091.967975,6893.023995,3676.279464,6816.434839
1091.968269,8807.752882,8501.396260,9114.109504
1091.968564,9803.411904,9650.233593,9267.287815
1091.968871,8654.574571,8960.931193,10109.768526
1091.969170,2144.496354,3676.279464,11488.373325
1091.969470,-5437.830040,-2833.798753,14015.815456
1091.969770,-11258.605858,-8424.807105,14781.707011
1091.970069,-11718.140791,-9497.055282,14015.815456
1091.970369,-10186.357681,-9343.876971,10875.660081
1091.970669,-5897.364973,-4901.705952,9190.698660
1091.970968,-76.589155,459.534933,7582.326394
1091.971265,6893.023995,6203.721595,6127.132440
1091.971568,9650.233593,8501.396260,7888.683016
1091.971871,8501.396260,8960.931193,9803.411904
1091.972174,7429.148083,6203.721595,10875.660081
1091.972476,2527.442131,1378.604799,11641.551636
1091.972779,-4748.527641,-6739.845684,13709.458834
1091.973082,-10492.714303,-11871.319102,15241.241944
1091.973385,-10186.357681,-11718.140791,12790.388968
1091.973680,-2757.209598,-6893.023995,8654.574571
1091.973979,3599.690308,-2527.442131,5820.775818
1091.974279,4901.705952,1072.248177,6510.078217
1091.974578,8041.861327,6203.721595,8041.861327
1091.974877,10262.946837,9267.287815,9114.109504
1091.975176,8041.861327,8195.039638,10033.179370
1091.975476,2833.798753,4595.349330,11794.729947
1091.975775,-4978.295107,-842.480710,12943.567279
1091.976063,-10952.249236,-6739.845684,14934.885322
1091.976363,-15853.955188,-12330.854035,15624.187722
1091.976663,-13939.226301,-12943.567279,12943.567279
1091.976963,-7122.791461,-8884.342038,9803.411904
1091.977263,1072.248177,-4365.581863,6816.434839
1091.977563,7429.148083,919.069866,6510.078217
1091.977863,12790.388968,6663.256528,7352.558928
1091.978163,12637.210657,6969.613150,8807.752882
1091.978463,9267.287815,6050.543284,11028.838392
1091.978762,3906.046930,3676.279464,12024.497413
1091.979061,-4442.171019,-1914.728887,14015.815456
1091.979360,-11564.962480,-9037.520349,15547.598566
1091.979660,-12254.264880,-10339.535992,14934.885322
1091.979959,-7505.737239,-7046.202306,10262.946837
1091.980258,1838.139732,-1608.372265,5820.775818
1091.980557,5820.775818,2910.387909,5973.954129
1091.980864,7888.683016,5591.008351,7735.504705
1091.981165,7429.148083,6663.256528,10569.303459
1091.981466,7735.504705,8041.861327,10875.660081
1091.981767,5054.884263,5897.364973,10569.303459
1091.982067,-2067.907198,765.891555,11794.729947
1091.982368,-9343.876971,-5820.775818,14015.815456
1091.982669,-13479.691368,-10492.714303,14781.707011
1091.982970,-11947.908258,-10645.892614,13403.102212
1091.983286,-7199.380617,-8731.163727,9650.233593
1091.983584,-1608.372265,-4365.581863,6816.434839
1091.983883,5973.954129,2297.674665,5820.775818
1091.984181,10262.946837,7582.326394,5973.954129
1091.984480,12330.854035,9267.287815,7735.504705
1091.984778,9420.466126,7429.148083,10262.946837
1091.985077,4748.527641,4978.295107,11871.319102
1091.985375,-382.945777,-229.767466,12943.567279
1091.985689,-7965.272172,-6893.023995,14015.815456
1091.985984,-12101.086569,-12484.032346,14781.707011
1091.986279,-9343.876971,-9726.822748,12713.799813
1091.986574,-1914.728887,-4059.225241,7965.272172
1091.986869,3906.046930,1378.604799,6280.310751
1091.987164,6586.667373,5591.008351,7888.683016
1091.987459,8960.931193,10262.946837,8960.931193
1091.987754,9803.411904,12254.264880,9573.644437
1091.988067,7046.202306,10109.768526,10416.125148
1091.988365,153.178311,4135.814397,12254.264880
1091.988664,-7352.558928,-2067.907198,14475.350389
1091.988962,-14245.582923,-10033.179370,15700.776877
1091.989260,-16160.311810,-13249.923901,15394.420255
1091.989559,-10799.070925,-12024.497413,11488.373325
1091.989857,-1608.372265,-6127.132440,6663.256528
1091.990156,6127.132440,-1302.015643,4748.527641
1091.990455,10875.660081,3829.457775,5208.062574
1091.990756,11794.729947,5591.008351,7735.504705
1091.991057,10569.303459,6203.721595,9497.055282
1091.991358,8960.931193,3982.636086,10033.179370
1091.991659,1378.604799,-76.589155,11947.908258
1091.991959,-5284.651729,-5820.775818,13249.923901
1091.992260,-11411.784169,-10492.714303,14322.172078
1091.992561,-10799.070925,-11871.319102,12790.388968
1091.992868,-6816.434839,-9650.233593,10416.125148
1091.993165,-1761.550576,-3752.868619,7735.504705
1091.993462,4671.938485,2604.031287,5667.597507
1091.993759,8960.931193,8195.039638,7275.969772
1091.994055,9114.109504,9803.411904,9803.411904
1091.994352,7122.791461,9420.466126,10722.481770
1091.994649,3293.333686,6663.256528,12407.443191
1091.994946,-4595.349330,-382.945777,13403.102212
1091.995260,-11718.140791,-8118.450483,16083.722655
1091.995563,-14628.528700,-12177.675724,15853.955188
1091.995866,-10492.714303,-10492.714303,11488.373325
1091.996168,-995.659021,-6433.489062,8041.861327
1091.996471,5667.597507,-1148.837332,5361.240885
1091.996774,9420.466126,2757.209598,7275.969772
1091.997077,12330.854035,6510.078217,7582.326394
1091.997379,12943.567279,8501.396260,8501.396260
1091.997653,9803.411904,6356.899906,9803.411904
1091.997955,2680.620442,1225.426488,11335.195014
1091.998258,-6816.434839,-4212.403552,14475.350389
1091.998560,-14628.528700,-10952.249236,16236.900966
1091.998863,-16466.668432,-12484.032346,15700.776877
1091.999165,-10799.070925,-9880.001059,11641.551636
1091.999468,-1608.372265,-3140.155375,7582.326394
1091.999771,5667.597507,2297.674665,5591.008351
1092.000088,10109.768526,7888.683016,5744.186662
1092.000383,12943.567279,10722.481770,7429.148083
1092.000679,11641.551636,11028.838392,9267.287815
1092.000974,6127.132440,6510.078217,10416.125148
1092.001269,-1761.550576,1072.248177,12177.675724
1092.001564,-9880.001059,-6739.845684,14934.885322
1092.001860,-15088.063633,-12790.388968,16619.846743
1092.002155,-11871.319102,-12484.032346,14168.993767
1092.002455,-4135.814397,-6280.310751,8960.931193
1092.002752,4059.225241,-382.945777,5514.419196
1092.003050,8195.039638,4135.814397,5667.597507
1092.003347,9497.055282,7735.504705,6510.078217
1092.003645,8960.931193,9420.466126,9114.109504
1092.003942,5667.597507,7429.148083,10109.768526
1092.004240,1225.426488,3369.922842,11794.729947
1092.004537,-5437.830040,-3140.155375,14934.885322
1092.004867,-9573.644437,-7965.272172,15547.598566
1092.005164,-10033.179370,-10186.357681,14475.350389
1092.005461,-6203.721595,-8884.342038,11488.373325
1092.005758,-842.480710,-5208.062574,8348.217949
1092.006055,4212.403552,306.356622,6356.899906
1092.006352,8195.039638,4825.116796,6127.132440
1092.006649,10109.768526,7888.683016,6356.899906
1092.006946,8807.752882,8807.752882,9114.109504
1092.007254,4901.705952,7429.148083,11488.373325
1092.007554,459.534933,2297.674665,12177.675724
1092.007854,-7122.791461,-4365.581863,14934.885322
1092.008153,-12407.443191,-10492.714303,16390.079277
1092.008453,-13326.513057,-11718.140791,14475.350389
1092.008753,-8271.628794,-9343.876971,10109.768526
1092.009053,-2221.085509,-4518.760174,6969.613150
1092.009353,2986.977064,-382.945777,7122.791461
1092.009636,9497.055282,5437.830040,6663.256528
1092.009939,13862.637145,8960.931193,5973.954129
1092.010242,11028.838392,8501.396260,8807.752882
1092.010544,4671.938485,3982.636086,12024.497413
1092.010847,-3216.744531,-689.302399,14015.815456
1092.011150,-8731.163727,-6893.023995,14934.885322
1092.011453,-15088.063633,-11105.427547,15853.955188
1092.011756,-12407.443191,-11411.784169,12943.567279
1092.012038,-4135.814397,-6893.023995,8807.752882
1092.012340,5054.884263,-1302.015643,5973.954129
1092.012642,9267.287815,2144.496354,5744.186662
1092.012943,11641.551636,7122.791461,6969.613150
1092.013245,11641.551636,9420.466126,8118.450483
1092.013547,8501.396260,6663.256528,10109.768526
1092.013849,1991.318043,3369.922842,12254.264880
1092.014151,-6356.899906,-1761.550576,13862.637145
1092.014441,-11947.908258,-7199.380617,15241.241944
1092.014740,-14781.707011,-11871.319102,16083.722655
1092.015039,-10645.892614,-9726.822748,13249.923901
1092.015338,-3676.279464,-5514.419196,8654.574571
1092.015638,3140.155375,459.534933,5820.775818
1092.015937,8348.217949,4442.171019,6127.132440
1092.016236,9956.590215,7582.326394,8348.217949
1092.016535,10109.768526,8195.039638,9420.466126
1092.016844,6739.845684,7122.791461,10262.946837
1092.017143,1531.783110,1684.961421,11794.729947
1092.017441,-5437.830040,-3446.511997,14168.993767
1092.017740,-11947.908258,-9037.520349,15930.544344
1092.018038,-12101.086569,-10033.179370,14781.707011
1092.018337,-7658.915550,-7199.380617,11028.838392
1092.018635,612.713244,-842.480710,7275.969772
1092.018934,6739.845684,3982.636086,4595.349330
1092.019241,9803.411904,7429.148083,6127.132440
1092.019541,11488.373325,9114.109504,8195.039638
1092.019840,11182.016703,8348.217949,8654.574571
1092.020140,7275.969772,4748.527641,10416.125148
1092.020440,-536.124088,-536.124088,12560.621502
1092.020740,-7658.915550,-5973.954129,14322.172078
1092.021040,-13326.513057,-10186.357681,15853.955188
1092.021339,-13479.691368,-10492.714303,13249.923901
1092.021636,-8731.163727,-7199.380617,10262.946837
1092.021936,-2067.907198,-2374.263820,7429.148083
1092.022237,4518.760174,1838.139732,5820.775818
1092.022537,10109.768526,5897.364973,6356.899906
1092.022837,11641.551636,7275.969772,8041.861327
1092.023138,10569.303459,4825.116796,9803.411904
1092.023438,5361.240885,1838.139732,10722.481770
1092.023738,-3216.744531,-3599.690308,13096.745590
1092.024033,-11258.605858,-9343.876971,16236.900966
1092.024333,-15394.420255,-12484.032346,16160.311810
1092.024633,-11105.427547,-9497.055282,12943.567279
1092.024934,-3216.744531,-4365.581863,8654.574571
1092.025234,3752.868619,459.534933,5973.954129
1092.025534,8654.574571,5591.008351,6816.434839
1092.025834,12637.210657,8960.931193,7275.969772
1092.026134,12330.854035,9267.287815,9420.466126
1092.026422,9497.055282,7122.791461,10416.125148
1092.026728,2297.674665,2757.209598,11794.729947
1092.027033,-5744.186662,-2833.798753,14628.528700
1092.027338,-11718.140791,-7658.915550,15241.241944
1092.027643,-14322.172078,-10339.535992,14934.885322
1092.027949,-11871.319102,-9497.055282,12101.086569
1092.028254,-6969.613150,-5667.597507,8195.039638
1092.028559,-536.124088,-1608.372265,7735.504705
1092.028880,4901.705952,1991.318043,7965.272172
1092.029173,11335.195014,4748.527641,6969.613150
1092.029465,12790.388968,6816.434839,7275.969772
1092.029758,9803.411904,3369.922842,9114.109504
1092.030051,3293.333686,-2067.907198,12101.086569
1092.030344,-3369.922842,-7046.202306,14168.993767
1092.030636,-10339.535992,-10645.892614,15088.063633
1092.030929,-9573.644437,-10952.249236,12407.443191
1092.031270,-6050.543284,-6433.489062,9114.109504
1092.031563,-536.124088,-1914.728887,7275.969772
1092.031857,2374.263820,2604.031287,6969.613150
1092.032150,6586.667373,7582.326394,8348.217949
1092.032443,9267.287815,10109.768526,9114.109504
1092.032737,8807.752882,10262.946837,10109.768526
1092.033030,3752.868619,7582.326394,11564.962480
1092.033323,-4135.814397,2144.496354,14168.993767
1092.033640,-10952.249236,-4212.403552,16083.722655
1092.033938,-14475.350389,-7965.272172,15700.776877
1092.034237,-11718.140791,-6739.845684,12790.388968
1092.034535,-4288.992708,-4825.116796,9267.287815
1092.034833,3599.690308,-382.945777,6433.489062
1092.035132,10875.660081,3982.636086,5514.419196
1092.035430,13096.745590,5897.364973,6663.256528
1092.035729,12024.497413,5131.473418,8807.752882
1092.036043,9267.287815,3982.636086,10416.125148
1092.036342,3906.046930,459.534933,11258.605858
1092.036640,-3676.279464,-4825.116796,13403.102212
1092.036939,-11947.908258,-10339.535992,15547.598566
1092.037238,-14475.350389,-11105.427547,15088.063633
1092.037536,-10645.892614,-8577.985416,11794.729947
1092.037835,-4442.171019,-3446.511997,8041.861327
1092.038134,1225.426488,919.069866,7122.791461
1092.038422,7429.148083,6203.721595,6663.256528
1092.038722,12790.388968,9803.411904,6510.078217
1092.039022,11641.551636,8501.396260,8348.217949
1092.039322,7122.791461,4442.171019,11028.838392
1092.039622,612.713244,153.178311,12560.621502
1092.039922,-5284.651729,-5973.954129,13326.513057
1092.040222,-12101.086569,-11871.319102,15088.063633
1092.040522,-13939.226301,-13249.923901,14015.815456
1092.040821,-8731.163727,-7965.272172,10262.946837
1092.041120,-536.124088,-2067.907198,6510.078217
1092.041420,4365.581863,1378.604799,5591.008351
1092.041719,6280.310751,4978.295107,8577.985416
1092.042018,10109.768526,8348.217949,8960.931193
1092.042317,11335.195014,8348.217949,8807.752882
1092.042617,6586.667373,3523.101153,11028.838392
1092.042916,-3063.566220,-3140.155375,14168.993767
1092.043223,-8884.342038,-7199.380617,16083.722655
1092.043522,-11411.784169,-9343.876971,14245.582923
1092.043821,-10799.070925,-9726.822748,11794.729947
1092.044121,-6203.721595,-6893.023995,9880.001059
1092.044420,1378.604799,-382.945777,6816.434839
1092.044719,8501.396260,5131.473418,5973.954129
1092.045018,10569.303459,6663.256528,7122.791461
1092.045318,8807.752882,6510.078217,10109.768526
1092.045638,7275.969772,5897.364973,11335.195014
1092.045938,2374.263820,2144.496354,11335.195014
1092.046239,-7352.558928,-4059.225241,14934.885322
1092.046539,-13020.156435,-9190.698660,16236.900966
1092.046839,-12254.264880,-10033.179370,14245.582923
1092.047140,-5591.008351,-6739.845684,10262.946837
1092.047440,306.356622,-3446.511997,6510.078217
1092.047740,4748.527641,459.534933,6433.489062
1092.048059,9497.055282,4748.527641,6356.899906
1092.048353,11641.551636,8041.861327,7122.791461
1092.048646,8501.396260,7275.969772,9497.055282
1092.048940,3599.690308,4825.116796,11182.016703
1092.049234,-2604.031287,765.891555,12943.567279
1092.049527,-9190.698660,-4901.705952,14781.707011
1092.049821,-14934.885322,-9343.876971,15394.420255
1092.050114,-13939.226301,-10186.357681,13862.637145
1092.050432,-7965.272172,-5667.597507,9497.055282
1092.050728,-229.767466,-2221.085509,6816.434839
1092.051024,4059.225241,2604.031287,6663.256528
1092.051320,9497.055282,7582.326394,7582.326394
1092.051616,14168.993767,9803.411904,6816.434839
1092.051912,12637.210657,9114.109504,8424.807105
1092.052208,7888.683016,5284.651729,10416.125148
1092.052504,-0.000000,-1148.837332,12790.388968
1092.052803,-6816.434839,-7199.380617,14628.528700
1092.053104,-12560.621502,-12177.675724,15394.420255
1092.053405,-13326.513057,-11871.319102,13939.226301
1092.053706,-7352.558928,-7812.093861,9650.233593
1092.054006,153.178311,-1455.193954,6280.310751
1092.054307,4365.581863,2757.209598,7582.326394
1092.054608,8348.217949,6816.434839,7888.683016
1092.054909,11182.016703,9573.644437,8807.752882
1092.055216,9267.287815,7735.504705,9573.644437
1092.055517,2833.798753,2450.852976,12101.086569
1092.055817,-5591.008351,-2374.263820,14781.707011
1092.056118,-11105.427547,-7046.202306,15547.598566
1092.056419,-13939.226301,-10186.357681,14628.528700
1092.056720,-10799.070925,-9190.698660,12101.086569
1092.057021,-3523.101153,-4825.116796,8501.396260
1092.057322,3906.046930,459.534933,6280.310751
1092.057602,9650.233593,4825.116796,5514.419196
1092.057907,11488.373325,7275.969772,7658.915550
1092.058212,10416.125148,7582.326394,9114.109504
1092.058518,7122.791461,5591.008351,10722.481770
1092.058823,919.069866,1531.783110,11947.908258
1092.059128,-6510.078217,-4901.705952,13556.280523
1092.059433,-13939.226301,-10799.070925,15700.776877
1092.059738,-13632.869679,-12177.675724,14015.815456
1092.060057,-7658.915550,-8424.807105,10033.179370
1092.060350,-536.124088,-3293.333686,6969.613150
1092.060642,5667.597507,1684.961421,5820.775818
1092.060935,9803.411904,6203.721595,6356.899906
1092.061228,11335.195014,7888.683016,8195.039638
1092.061521,7275.969772,5437.830040,10569.303459
1092.061813,459.534933,765.891555,12101.086569
1092.062106,-6203.721595,-3906.046930,13862.637145
1092.062423,-10952.249236,-10186.357681,14934.885322
1092.062721,-13786.047990,-13096.745590,15241.241944
1092.063019,-9726.822748,-10799.070925,12637.210657
1092.063316,-536.124088,-3906.046930,8654.574571
1092.063614,8041.861327,3216.744531,4901.705952
1092.063912,10416.125148,6969.613150,5667.597507
1092.064210,10262.946837,10109.768526,7735.504705
1092.064508,9114.109504,10722.481770,10339.535992
1092.064808,6586.667373,8807.752882,10262.946837
1092.065108,1378.604799,3369.922842,11947.908258
1092.065408,-7658.915550,-3293.333686,14781.707011
1092.065708,-14628.528700,-9497.055282,16543.257588
1092.066008,-14475.350389,-11411.784169,14934.885322
1092.066308,-10186.357681,-9037.520349,11794.729947
1092.066608,-3063.566220,-4365.581863,8807.752882
1092.066908,4518.760174,2604.031287,5973.954129
1092.067198,11488.373325,7735.504705,4595.349330
1092.067499,13096.745590,8807.752882,6127.132440
1092.067801,8807.752882,6050.543284,9573.644437
1092.068102,4901.705952,3982.636086,11335.195014
1092.068403,-689.302399,-689.302399,11794.729947
1092.068705,-8731.163727,-7352.558928,14475.350389
1092.069006,-16313.490121,-12790.388968,17155.970832
1092.069307,-13786.047990,-10952.249236,14322.172078
1092.069614,-5744.186662,-5361.240885,8960.931193
1092.069911,3446.511997,-995.659021,5820.775818
1092.070209,8501.396260,3523.101153,5591.008351
1092.070506,13403.102212,8501.396260,6816.434839
1092.070803,15011.474478,9803.411904,6816.434839
1092.071100,11335.195014,7888.683016,9420.466126
1092.071398,2680.620442,4442.171019,12407.443191
1092.071695,-6510.078217,-1148.837332,14628.528700
1092.071991,-12713.799813,-6893.023995,15241.241944
1092.072293,-16466.668432,-11258.605858,15700.776877
1092.072594,-13326.513057,-10645.892614,13096.745590
1092.072895,-4442.171019,-5820.775818,8654.574571
1092.073196,3446.511997,-995.659021,5514.419196
1092.073497,6739.845684,1684.961421,7046.202306
1092.073798,8807.752882,3829.457775,7888.683016
1092.074099,9420.466126,5897.364973,8807.752882
1092.074394,8195.039638,4442.171019,9114.109504
1092.074695,1991.318043,-382.945777,10875.660081
1092.074995,-4978.295107,-5667.597507,13556.280523
1092.075296,-10799.070925,-11718.140791,15394.420255
1092.075597,-11871.319102,-13249.923901,14781.707011
1092.075898,-7658.915550,-10799.070925,11641.551636
1092.076199,-1608.372265,-5820.775818,7735.504705
1092.076500,3752.868619,765.891555,6356.899906
1092.076788,7735.504705,6816.434839,6510.078217
1092.077088,10569.303459,9803.411904,7888.683016
1092.077388,10262.946837,10109.768526,9420.466126
1092.077688,7429.148083,8348.217949,11028.838392
1092.077988,765.891555,2757.209598,11182.016703
1092.078288,-8271.628794,-4825.116796,15088.063633
1092.078589,-14628.528700,-10645.892614,17615.505765
1092.078889,-14092.404612,-11411.784169,14781.707011
1092.079202,-8577.985416,-6586.667373,10569.303459
1092.079500,-0.000000,-1455.193954,6433.489062
1092.079798,5973.954129,3982.636086,5820.775818
1092.080096,10722.481770,8807.752882,6510.078217
1092.080394,11794.729947,10722.481770,6816.434839
1092.080692,8195.039638,8807.752882,10109.768526
1092.080990,3752.868619,4978.295107,11794.729947
1092.081287,-2757.209598,-995.659021,12790.388968
1092.081595,-9190.698660,-7046.202306,14551.939545
1092.081894,-13326.513057,-11258.605858,15088.063633
1092.082194,-10799.070925,-11258.605858,12713.799813
1092.082493,-4442.171019,-6893.023995,8960.931193
1092.082793,2144.496354,-1608.372265,6969.613150
1092.083093,5361.240885,3676.279464,6969.613150
1092.083392,9956.590215,8960.931193,7275.969772
1092.083692,11641.551636,11335.195014,8654.574571
1092.083989,8501.396260,9420.466126,9803.411904
1092.084292,2144.496354,4288.992708,11028.838392
1092.084595,-6663.256528,-3446.511997,13403.102212
1092.084897,-12254.264880,-10033.179370,15930.544344
1092.085200,-14245.582923,-14858.296167,15853.955188
1092.085503,-8577.985416,-12024.497413,12254.264880
1092.085806,765.891555,-4825.116796,7735.504705
1092.086109,8654.574571,2604.031287,5054.884263
1092.086404,11871.319102,7582.326394,5667.597507
1092.086701,11488.373325,9650.233593,6969.613150
1092.086997,8348.217949,8195.039638,9114.109504
1092.087294,4212.403552,4595.349330,10416.125148
1092.087591,-2604.031287,-2680.620442,12101.086569
1092.087888,-10492.714303,-9650.233593,15241.241944
1092.088185,-14934.885322,-14168.993767,16236.900966
1092.088482,-12713.799813,-13862.637145,13862.637145
1092.088793,-6510.078217,-8731.163727,9803.411904
1092.089094,-0.000000,-2986.977064,6969.613150
1092.089395,5667.597507,3216.744531,6356.899906
1092.089696,9420.466126,9650.233593,6127.132440
1092.089996,11182.016703,10569.303459,7122.791461
1092.090297,8041.861327,8195.039638,9650.233593
1092.090598,3293.333686,4442.171019,12254.264880
1092.090899,-1761.550576,-1608.372265,12943.567279
1092.091208,-7199.380617,-8577.985416,14475.350389
1092.091503,-12866.978124,-13556.280523,15853.955188
1092.091799,-10645.892614,-12943.567279,13786.047990
1092.092094,-3676.279464,-7046.202306,9267.287815
1092.092389,2833.798753,-76.589155,6510.078217
1092.092684,6586.667373,5744.186662,6510.078217
1092.092980,9114.109504,9650.233593,7582.326394
1092.093275,10416.125148,12101.086569,8807.752882
1092.093582,7122.791461,8807.752882,10416.125148
1092.093884,1378.604799,3216.744531,12943.567279
1092.094187,-6356.899906,-3752.868619,14628.528700
1092.094489,-11258.605858,-9497.055282,15853.955188
1092.094791,-12407.443191,-12177.675724,15241.241944
1092.095093,-7812.093861,-9650.233593,11641.551636
1092.095396,-382.945777,-3446.511997,7275.969772
1092.095698,4365.581863,1838.139732,6356.899906
1092.096014,6586.667373,5284.651729,7122.791461
1092.096313,8041.861327,7888.683016,8960.931193
1092.096611,8041.861327,8501.396260,9267.287815
1092.096909,7275.969772,6663.256528,9573.644437
1092.097208,1378.604799,1072.248177,10416.125148
1092.097506,-5437.830040,-5361.240885,13556.280523
1092.097805,-13173.334746,-12484.032346,15853.955188
1092.098103,-13326.513057,-13862.637145,13862.637145
1092.098418,-8118.450483,-10186.357681,10722.481770
1092.098713,-0.000000,-4059.225241,7122.791461
1092.099007,6433.489062,2144.496354,4442.171019
1092.099302,9420.466126,7429.148083,6127.132440
1092.099597,10109.768526,8501.396260,8807.752882
1092.099892,8501.396260,7735.504705,10875.660081
1092.100187,5667.597507,6356.899906,10875.660081
1092.100482,765.891555,1378.604799,11564.962480
1092.100795,-7122.791461,-5820.775818,13556.280523
1092.101094,-13479.691368,-10952.249236,16236.900966
1092.101392,-13632.869679,-11411.784169,14781.707011
1092.101690,-7658.915550,-7658.915550,11182.016703
1092.101989,-229.767466,-1148.837332,7429.148083
1092.102287,5667.597507,4825.116796,6356.899906
1092.102586,10416.125148,9573.644437,7275.969772
1092.102884,12790.388968,12101.086569,8041.861327
1092.103184,10875.660081,10722.481770,9420.466126
1092.103483,5208.062574,4748.527641,10569.303459
1092.103782,-4135.814397,-3446.511997,13709.458834
1092.104081,-11718.140791,-11105.427547,15088.063633
1092.104381,-14628.528700,-15624.187722,15317.831100
1092.104680,-10492.714303,-13556.280523,11794.729947
1092.104979,-3063.566220,-7046.202306,8424.807105
1092.105278,3140.155375,-382.945777,6510.078217
1092.105585,7046.202306,5437.830040,6663.256528
1092.105888,9420.466126,10416.125148,8501.396260
1092.106191,9650.233593,11028.838392,8960.931193
1092.106493,7046.202306,9114.109504,9803.411904
1092.106796,919.069866,2757.209598,11335.195014
1092.107098,-6203.721595,-4901.705952,13403.102212
1092.107401,-13326.513057,-12484.032346,16236.900966
1092.107704,-13020.156435,-14015.815456,14934.885322
1092.108024,-7352.558928,-9880.001059,11028.838392
1092.108321,-689.302399,-2986.977064,8195.039638
1092.108618,4212.403552,3216.744531,6510.078217
1092.108915,6893.023995,9114.109504,7275.969772
1092.109212,9267.287815,11641.551636,8348.217949
1092.109509,8960.931193,9956.590215,9114.109504
1092.109806,6739.845684,4825.116796,9880.001059
1092.110103,765.891555,-2680.620442,12407.443191
1092.110422,-5284.651729,-10645.892614,13862.637145
1092.110715,-9573.644437,-15471.009411,15241.241944
1092.111008,-8731.163727,-14551.939545,13709.458834
1092.111300,-4288.992708,-8424.807105,9267.287815
1092.111593,153.178311,-1455.193954,6816.434839
1092.111886,2986.977064,4748.527641,7582.326394
1092.112179,5054.884263,8501.396260,7582.326394
1092.112471,6433.489062,11182.016703,9190.698660
1092.112789,3906.046930,8348.217949,10492.714303
1092.113087,459.534933,3369.922842,12713.799813
1092.113386,-4288.992708,-1914.728887,14322.172078
1092.113684,-8118.450483,-6586.667373,14628.528700
1092.113983,-10339.535992,-11105.427547,14781.707011
1092.114281,-7505.737239,-9497.055282,12101.086569
1092.114580,-536.124088,-4059.225241,7582.326394
1092.114879,4518.760174,2144.496354,6127.132440
1092.115178,7046.202306,5897.364973,6510.078217
1092.115476,9650.233593,9573.644437,7888.683016
1092.115773,9497.055282,9803.411904,8807.752882
1092.116071,7046.202306,7582.326394,10109.768526
1092.116368,1225.426488,1531.783110,11488.373325
1092.116666,-5284.651729,-4671.938485,13862.637145
1092.116963,-9880.001059,-10033.179370,14934.885322
1092.117261,-9880.001059,-11564.962480,13249.923901
1092.117591,-5897.364973,-8424.807105,10569.303459
1092.117888,765.891555,-2221.085509,6663.256528
1092.118185,5054.884263,2757.209598,5361.240885
1092.118482,5054.884263,5897.364973,7429.148083
1092.118779,5667.597507,6663.256528,9343.876971
1092.119076,4671.938485,6663.256528,11028.838392
1092.119373,4671.938485,4288.992708,10416.125148
1092.119670,-689.302399,-536.124088,12407.443191
1092.120012,-5284.651729,-6433.489062,14015.815456
1092.120305,-9573.644437,-10186.357681,14781.707011
1092.120598,-8884.342038,-10492.714303,13020.156435
1092.120891,-4978.295107,-7352.558928,10416.125148
1092.121185,612.713244,-1914.728887,7582.326394
1092.121478,5361.240885,4288.992708,6356.899906
1092.121771,9497.055282,8960.931193,7582.326394
1092.122064,9956.590215,10722.481770,8960.931193
1092.122381,7735.504705,9573.644437,10416.125148
1092.122681,4212.403552,5437.830040,11641.551636
1092.122982,-2221.085509,-382.945777,12024.497413
1092.123283,-9190.698660,-8118.450483,15088.063633
1092.123583,-14322.172078,-13709.458834,15394.420255
1092.123884,-11947.908258,-13403.102212,13096.745590
1092.124185,-5131.473418,-8118.450483,9573.644437
1092.124485,2374.263820,-2067.907198,6127.132440
1092.124767,6280.310751,2910.387909,6663.256528
1092.125069,8654.574571,6816.434839,7505.737239
1092.125371,8348.217949,7429.148083,9037.520349
1092.125673,5820.775818,4978.295107,10799.070925
1092.125975,153.178311,-995.659021,12024.497413
1092.126277,-5284.651729,-6127.132440,13709.458834
1092.126579,-9190.698660,-10645.892614,14168.993767
1092.126881,-9037.520349,-11871.319102,13020.156435
1092.127170,-4595.349330,-9190.698660,10416.125148
1092.127469,1072.248177,-3140.155375,8041.861327
1092.127768,6586.667373,3216.744531,6280.310751
1092.128067,7735.504705,8654.574571,6510.078217
1092.128365,9497.055282,11947.908258,8960.931193
1092.128664,8348.217949,11488.373325,9573.644437
1092.128963,5361.240885,8807.752882,10722.481770
1092.129261,-2374.263820,1991.318043,12790.388968
1092.129575,-10492.714303,-6280.310751,15088.063633
1092.129874,-14628.528700,-10952.249236,16696.435899
1092.130173,-12254.264880,-11718.140791,13709.458834
1092.130471,-4978.295107,-5973.954129,9803.411904
1092.130770,1991.318043,306.356622,7429.148083
1092.131069,6280.310751,5744.186662,5820.775818
1092.131367,9420.466126,10109.768526,7275.969772
1092.131666,10109.768526,11794.729947,8654.574571
1092.132007,7122.791461,7582.326394,10262.946837
1092.132302,3140.155375,3063.566220,11488.373325
1092.132597,-2910.387909,-3599.690308,12790.388968
1092.132892,-7199.380617,-9343.876971,14015.815456
1092.133187,-9497.055282,-13556.280523,14015.815456
1092.133482,-7658.915550,-12484.032346,12560.621502
1092.133777,-229.767466,-5820.775818,8041.861327
1092.134071,4671.938485,-0.000000,5744.186662
1092.134368,6280.310751,4135.814397,7275.969772
1092.134668,6739.845684,7735.504705,9267.287815
1092.134967,6127.132440,10109.768526,10569.303459
1092.135267,7046.202306,10416.125148,9343.876971
1092.135567,2297.674665,4595.349330,10875.660081
1092.135866,-6510.078217,-2833.798753,14322.172078
1092.136166,-12254.264880,-9497.055282,15394.420255
1092.136466,-14092.404612,-12637.210657,14934.885322
1092.136793,-8884.342038,-12024.497413,11182.016703
1092.137089,-2221.085509,-7812.093861,7735.504705
1092.137385,4518.760174,-842.480710,5973.954129
1092.137682,9650.233593,5437.830040,5361.240885
1092.137978,11488.373325,7122.791461,8195.039638
1092.138274,9267.287815,6356.899906,10416.125148
1092.138570,5973.954129,2910.387909,10875.660081
1092.138867,-689.302399,-2680.620442,11641.551636
1092.139155,-6510.078217,-9190.698660,13020.156435
1092.139456,-12866.978124,-14168.993767,15241.241944
1092.139756,-11105.427547,-13403.102212,13709.458834
1092.140057,-5284.651729,-7658.915550,10262.946837
1092.140358,2297.674665,-842.480710,6663.256528
1092.140659,6739.845684,5131.473418,6280.310751
1092.140959,7429.148083,8654.574571,8654.574571
1092.141260,7429.148083,10416.125148,10109.768526
1092.141569,7046.202306,10722.481770,10722.481770
1092.141869,4059.225241,6969.613150,10569.303459
1092.142168,-3216.744531,-1148.837332,12101.086569
1092.142467,-10186.357681,-8424.807105,15700.776877
1092.142767,-12407.443191,-12177.675724,15930.544344
1092.143066,-8118.450483,-11718.140791,11794.729947
1092.143366,-842.480710,-6433.489062,8731.163727
1092.143665,5361.240885,-76.589155,6663.256528
1092.144006,9267.287815,6663.256528,6127.132440
1092.144301,10722.481770,11488.373325,7275.969772
1092.144596,8654.574571,10569.303459,9420.466126
1092.144890,4671.938485,8348.217949,11182.016703
1092.145185,-1148.837332,1991.318043,12101.086569
1092.145480,-7505.737239,-4212.403552,13403.102212
1092.145775,-12407.443191,-11105.427547,15547.598566
1092.146070,-13326.513057,-13556.280523,15317.831100
1092.146366,-6663.256528,-10186.357681,11641.551636
1092.146665,2833.798753,-2986.977064,6663.256528
1092.146963,7429.148083,3216.744531,5514.419196
1092.147261,9267.287815,6356.899906,6280.310751
1092.147559,10569.303459,9420.466126,7735.504705
1092.147857,8960.931193,10109.768526,9267.287815
1092.148155,3906.046930,4825.116796,10875.660081
1092.148453,-3829.457775,-1455.193954,13556.280523
1092.148768,-9880.001059,-6893.023995,15700.776877
1092.149066,-11947.908258,-10799.070925,15241.241944
1092.149365,-10339.535992,-11105.427547,12790.388968
1092.149664,-4135.814397,-7046.202306,9956.590215
1092.149962,2986.977064,-689.302399,7429.148083
1092.150261,8041.861327,4978.295107,6127.132440
1092.150560,10875.660081,9267.287815,6816.434839
1092.150858,11641.551636,10109.768526,8960.931193
1092.151147,8807.752882,7888.683016,10109.768526
1092.151447,4518.760174,4595.349330,10416.125148
1092.151747,-4748.527641,-4901.705952,13556.280523
1092.152047,-12866.978124,-12024.497413,16849.614210
1092.152347,-14092.404612,-15164.652789,15394.420255
1092.152647,-9573.644437,-12943.567279,11794.729947
1092.152947,-2757.209598,-6893.023995,8654.574571
1092.153247,2680.620442,-76.589155,7275.969772
1092.153546,6893.023995,6510.078217,7122.791461
1092.153845,10262.946837,11488.373325,6969.613150
1092.154145,9420.466126,12407.443191,8960.931193
1092.154444,5208.062574,8960.931193,9956.590215
1092.154743,-1148.837332,1225.426488,12254.264880
1092.155042,-7122.791461,-6127.132440,13862.637145
1092.155342,-11258.605858,-13862.637145,14322.172078
1092.155641,-11258.605858,-15777.366033,14015.815456
1092.155947,-5284.651729,-11718.140791,10875.660081
1092.156247,2297.674665,-4365.581863,7122.791461
1092.156547,8041.861327,2144.496354,5667.597507
1092.156847,8501.396260,7275.969772,6816.434839
1092.157147,9420.466126,9956.590215,8195.039638
1092.157447,8654.574571,11028.838392,9037.520349
1092.157747,4518.760174,6203.721595,10492.714303
1092.158047,-5744.186662,-2221.085509,14628.528700
1092.158367,-12407.443191,-9343.876971,16696.435899
1092.158664,-15700.776877,-12484.032346,16313.490121
1092.158961,-11718.140791,-11871.319102,13556.280523
1092.159258,-5897.364973,-7046.202306,11182.016703
1092.159555,2833.798753,1072.248177,7122.791461
1092.159852,10722.481770,8501.396260,4901.705952
1092.160150,13862.637145,12101.086569,5361.240885
1092.160447,11488.373325,10722.481770,8501.396260
1092.160748,7122.791461,6816.434839,10722.481770
1092.161050,3140.155375,2144.496354,11871.319102
1092.161351,-3216.744531,-4671.938485,13096.745590
1092.161653,-10645.892614,-11258.605858,15241.241944
1092.161954,-14092.404612,-13556.280523,15547.598566
1092.162255,-9726.822748,-9880.001059,12407.443191
1092.162557,-2374.263820,-3752.868619,7582.326394
1092.162858,1838.139732,1531.783110,6280.310751
1092.163171,5054.884263,6203.721595,6663.256528
1092.163467,6893.023995,8501.396260,8041.861327
1092.163763,7888.683016,9267.287815,9803.411904
1092.164059,6586.667373,6356.899906,10416.125148
1092.164356,1378.604799,-0.000000,12101.086569
1092.164652,-4288.992708,-5054.884263,13173.334746
1092.164948,-9726.822748,-10645.892614,14934.885322
1092.165244,-10645.892614,-12637.210657,13862.637145
1092.165543,-7199.380617,-10799.070925,10875.660081
1092.165844,-382.945777,-4671.938485,7582.326394
1092.166145,8041.861327,4135.814397,5514.419196
1092.166446,12943.567279,9650.233593,4901.705952
1092.166746,13403.102212,11028.838392,7429.148083
1092.167047,9497.055282,10262.946837,10416.125148
1092.167348,5361.240885,7122.791461,11105.427547
1092.167649,-1761.550576,612.713244,12254.264880
1092.167955,-11105.427547,-8118.450483,15241.241944
1092.168252,-16619.846743,-12024.497413,16083.722655
1092.168549,-14781.707011,-11871.319102,13249.923901
1092.168846,-7658.915550,-7812.093861,9573.644437
1092.169143,-1302.015643,-2833.798753,8041.861327
1092.169440,4059.225241,2757.209598,7582.326394
1092.169737,9497.055282,8195.039638,6893.023995
1092.170034,12024.497413,11028.838392,7505.737239
1092.170348,7429.148083,7275.969772,10262.946837
1092.170644,1225.426488,1991.318043,12407.443191
1092.170941,-4748.527641,-4212.403552,13709.458834
1092.171237,-9037.520349,-9880.001059,15394.420255
1092.171534,-10186.357681,-14551.939545,14781.707011
1092.171830,-6816.434839,-12637.210657,11794.729947
1092.172127,1838.139732,-5820.775818,7352.558928
1092.172423,7735.504705,1378.604799,4671.938485
1092.172740,8960.931193,6969.613150,6969.613150
1092.173039,9420.466126,10569.303459,8654.574571
1092.173337,9114.109504,12101.086569,9420.466126
1092.173635,5820.775818,8960.931193,9956.590215
1092.173934,-536.124088,1072.248177,11182.016703
1092.174232,-10645.892614,-7965.272172,14092.404612
1092.174531,-16849.614210,-14475.350389,16236.900966
1092.174829,-16160.311810,-15471.009411,14934.885322
1092.175146,-9497.055282,-11258.605858,11488.373325
1092.175444,-1148.837332,-3752.868619,8731.163727
1092.175742,5054.884263,3063.566220,6127.132440
1092.176040,10109.768526,9267.287815,4748.527641
1092.176338,13249.923901,11488.373325,6356.899906
1092.176635,10722.481770,8960.931193,8501.396260
1092.176933,6280.310751,3829.457775,9956.590215
1092.177231,-842.480710,-2680.620442,12101.086569
1092.177531,-7352.558928,-10033.179370,15088.063633
1092.177831,-14092.404612,-14168.993767,17002.792521
1092.178131,-12407.443191,-13096.745590,14168.993767
1092.178431,-6663.256528,-5361.240885,9803.411904
1092.178731,4059.225241,2757.209598,5437.830040
1092.179031,7735.504705,8348.217949,5820.775818
1092.179331,9267.287815,11641.551636,7888.683016
1092.179631,9803.411904,11947.908258,9267.287815
1092.179922,9114.109504,10262.946837,10416.125148
1092.180224,4748.527641,4748.527641,11335.195014
1092.180527,-4748.527641,-3752.868619,13709.458834
1092.180829,-11258.605858,-8884.342038,15394.420255
1092.181132,-13326.513057,-11564.962480,14628.528700
1092.181435,-10952.249236,-10492.714303,12713.799813
1092.181737,-5591.008351,-5054.884263,9573.644437
1092.182040,919.069866,-0.000000,6663.256528
1092.182348,7429.148083,5131.473418,5667.597507
1092.182648,10875.660081,7888.683016,6356.899906
1092.182947,11641.551636,8041.861327,8041.861327
1092.183247,8654.574571,4978.295107,9803.411904
1092.183547,4671.938485,-536.124088,11105.427547
1092.183847,-4748.527641,-6893.023995,14322.172078
1092.184147,-13479.691368,-12484.032346,17462.327454
1092.184447,-14092.404612,-11718.140791,14781.707011
1092.184730,-9497.055282,-7199.380617,9880.001059
1092.185033,-2910.387909,-1302.015643,6663.256528
1092.185336,1531.783110,2757.209598,6510.078217
1092.185639,6739.845684,6816.434839,7582.326394
1092.185941,11641.551636,8807.752882,8654.574571
1092.186244,11028.838392,7275.969772,9650.233593
1092.186547,8654.574571,3829.457775,10109.768526
1092.186850,2680.620442,-1148.837332,10875.660081
1092.187165,-6203.721595,-8271.628794,13096.745590
1092.187459,-14322.172078,-13096.745590,16236.900966
1092.187753,-13786.047990,-11718.140791,13556.280523
1092.188047,-7965.272172,-6127.132440,9650.233593
1092.188341,-689.302399,-1608.372265,6356.899906
1092.188635,1991.318043,1225.426488,6816.434839
1092.188929,7275.969772,6356.899906,7965.272172
1092.189223,11182.016703,8654.574571,8041.861327
1092.189535,8654.574571,6510.078217,10492.714303
1092.189832,2374.263820,1991.318043,12943.567279
1092.190129,-4595.349330,-2833.798753,13862.637145
1092.190425,-9343.876971,-7352.558928,15394.420255
1092.190722,-12713.799813,-10186.357681,15241.241944
1092.191019,-10339.535992,-8424.807105,12407.443191
1092.191315,-2450.852976,-3293.333686,8348.217949
1092.191612,4748.527641,1684.961421,5820.775818
1092.191921,9114.109504,6356.899906,7429.148083
1092.192220,10722.481770,9420.466126,8807.752882
1092.192518,11028.838392,11028.838392,8118.450483
1092.192817,7275.969772,8501.396260,10416.125148
1092.193115,-229.767466,2450.852976,12790.388968
1092.193414,-8271.628794,-3906.046930,14781.707011
1092.193712,-11718.140791,-8118.450483,15853.955188
1092.194011,-10492.714303,-9726.822748,13096.745590
1092.194318,-5897.364973,-7965.272172,10875.660081
1092.194618,459.534933,-2680.620442,6893.023995
1092.194917,5514.419196,1991.318043,4748.527641
1092.195217,7275.969772,5131.473418,5820.775818
1092.195517,8041.861327,6510.078217,7582.326394
1092.195816,5361.240885,5437.830040,11028.838392
1092.196116,2144.496354,2297.674665,12407.443191
1092.196416,-3982.636086,-2986.977064,13096.745590
1092.196712,-9880.001059,-9037.520349,14628.528700
1092.197012,-13173.334746,-11564.962480,16083.722655
1092.197311,-8577.985416,-10033.179370,12790.388968
1092.197611,-1302.015643,-4518.760174,8195.039638
1092.197911,5361.240885,306.356622,5820.775818
1092.198210,8348.217949,4442.171019,5973.954129
1092.198510,10875.660081,8041.861327,6510.078217
1092.198809,11028.838392,9267.287815,7582.326394
1092.199137,6739.845684,6510.078217,10262.946837
1092.199436,1225.426488,1684.961421,12713.799813
1092.199734,-4825.116796,-2986.977064,13709.458834
1092.200033,-11105.427547,-8271.628794,15930.544344
1092.200332,-15394.420255,-12637.210657,16236.900966
1092.200631,-13020.156435,-10339.535992,13096.745590
1092.200929,-4288.992708,-3140.155375,9114.109504
1092.201228,3293.333686,1225.426488,5514.419196
1092.201540,7735.504705,4978.295107,5667.597507
1092.201837,11182.016703,8041.861327,6356.899906
1092.202135,11335.195014,7275.969772,7582.326394
1092.202432,7122.791461,3216.744531,10569.303459
1092.202730,-229.767466,-2680.620442,13249.923901
1092.203027,-8577.985416,-7352.558928,15241.241944
1092.203325,-14245.582923,-10799.070925,16390.079277
1092.203622,-14245.582923,-10799.070925,13862.637145
1092.203931,-6969.613150,-6433.489062,10416.125148
1092.204227,1378.604799,-382.945777,6127.132440
1092.204523,7582.326394,3676.279464,4748.527641
1092.204819,11794.729947,7122.791461,6280.310751
1092.205116,12790.388968,8501.396260,8041.861327
1092.205412,9267.287815,6663.256528,10262.946837
1092.205708,2527.442131,3829.457775,12560.621502
1092.206004,-4595.349330,-995.659021,13403.102212
