#time,accel_x,accel_y,accel_z
1120.782206,-229.767466,-536.124088,10416.125148
1120.782503,-382.945777,-382.945777,10416.125148
1120.782799,-536.124088,-842.480710,10416.125148
1120.783096,-229.767466,-689.302399,10416.125148
1120.783410,1838.139732,-382.945777,10262.946837
1120.783713,4748.527641,-382.945777,10109.768526
1120.784016,9420.466126,-76.589155,9497.055282
1120.784318,13096.745590,-229.767466,9573.644437
1120.784621,18611.164786,153.178311,8807.752882
1120.784924,19913.180430,-76.589155,9267.287815
1120.785227,21827.909317,-76.589155,9190.698660
1120.785530,20525.893674,153.178311,9573.644437
1120.785797,18917.521408,1531.783110,10109.768526
1120.786097,18304.808164,1378.604799,9573.644437
1120.786397,15317.831100,1225.426488,9650.233593
1120.786697,14858.296167,1378.604799,10416.125148
1120.786997,16236.900966,306.356622,10262.946837
1120.787297,20525.893674,306.356622,10416.125148
1120.787597,27035.971891,612.713244,9573.644437
1120.787897,30865.429666,-76.589155,8654.574571
1120.788215,26040.312870,-1914.728887,9650.233593
1120.788513,19453.645497,-4825.116796,13403.102212
1120.788812,11488.373325,-4901.705952,16083.722655
1120.789110,6893.023995,-2527.442131,14781.707011
1120.789409,4748.527641,-76.589155,14475.350389
1120.789708,153.178311,153.178311,15241.241944
1120.790006,-536.124088,3216.744531,16007.133499
1120.790305,2833.798753,5131.473418,15394.420255
1120.790605,9497.055282,6969.613150,11794.729947
1120.790902,15471.009411,7275.969772,10109.768526
1120.791200,18917.521408,4135.814397,8195.039638
1120.791497,21368.374384,-0.000000,6816.434839
1120.791795,20985.428607,-3293.333686,7275.969772
1120.792092,18994.110564,-7199.380617,7429.148083
1120.792390,16083.722655,-9037.520349,7582.326394
1120.792687,12177.675724,-7812.093861,7582.326394
1120.793017,5820.775818,-5514.419196,9650.233593
1120.793314,-0.000000,-3293.333686,11028.838392
1120.793611,-2067.907198,306.356622,12790.388968
1120.793908,-2374.263820,3216.744531,12713.799813
1120.794205,-3063.566220,4442.171019,11028.838392
1120.794502,-3063.566220,3829.457775,9803.411904
1120.794799,-2374.263820,-0.000000,8807.752882
1120.795096,-2374.263820,-4671.938485,8654.574571
1120.795404,-4442.171019,-7046.202306,9267.287815
1120.795703,-8577.985416,-6893.023995,10339.535992
1120.796003,-10033.179370,-4671.938485,12024.497413
1120.796303,-8118.450483,-1608.372265,12713.799813
1120.796603,-6969.613150,1838.139732,14628.528700
1120.796903,-2374.263820,4288.992708,14781.707011
1120.797202,3599.690308,6510.078217,12484.032346
1120.797502,11794.729947,4595.349330,8807.752882
1120.797786,17385.738298,-2067.907198,6127.132440
1120.798089,17998.451542,-10492.714303,4518.760174
1120.798391,16543.257588,-15777.366033,5973.954129
1120.798694,15777.366033,-19683.412963,6280.310751
1120.798997,13709.458834,-16849.614210,8807.752882
1120.799300,8960.931193,-7352.558928,10339.535992
1120.799603,1531.783110,3982.636086,12484.032346
1120.799906,-11258.605858,11335.195014,15547.598566
1120.800188,-20449.304518,16926.203365,16390.079277
1120.800486,-26499.847803,17538.916609,14705.117856
1120.800785,-29946.359800,13173.334746,14015.815456
1120.801084,-27878.452602,2910.387909,14475.350389
1120.801383,-16696.435899,-7965.272172,13709.458834
1120.801682,5667.597507,-11258.605858,9267.287815
1120.801980,26882.793580,-11258.605858,3982.636086
1120.802279,35384.189841,-8884.342038,2527.442131
1120.802591,31018.607977,-4365.581863,4442.171019
1120.802891,17079.381676,1072.248177,6969.613150
1120.803191,1684.961421,3829.457775,7735.504705
1120.803491,-11564.962480,5437.830040,9037.520349
1120.803791,-19989.769585,3523.101153,10416.125148
1120.804091,-19530.234652,1991.318043,14322.172078
1120.804391,-10339.535992,2297.674665,14781.707011
1120.804691,4212.403552,6203.721595,12101.086569
1120.804977,13709.458834,8960.931193,9420.466126
1120.805279,12943.567279,7888.683016,10109.768526
1120.805581,7582.326394,4748.527641,11564.962480
1120.805883,2680.620442,1378.604799,11028.838392
1120.806185,-1148.837332,-1608.372265,8501.396260
1120.806487,-4825.116796,-7812.093861,8960.931193
1120.806788,-3829.457775,-11718.140791,11641.551636
1120.807090,-382.945777,-10492.714303,13403.102212
1120.807397,2833.798753,-2374.263820,14398.761234
1120.807697,1225.426488,4442.171019,13096.745590
1120.807997,-3523.101153,8501.396260,12101.086569
1120.808296,-8271.628794,8654.574571,12407.443191
1120.808596,-10492.714303,5284.651729,11641.551636
1120.808896,-6356.899906,-0.000000,10262.946837
1120.809196,306.356622,-6127.132440,9267.287815
1120.809496,10109.768526,-9880.001059,9573.644437
1120.809792,18151.629853,-9343.876971,9803.411904
1120.810091,21521.552695,-3906.046930,8041.861327
1120.810390,14398.761234,-1302.015643,7429.148083
1120.810688,-1302.015643,-1148.837332,11028.838392
1120.810987,-16466.668432,-1455.193954,13862.637145
1120.811286,-24125.583982,-1302.015643,12407.443191
1120.811585,-23589.459894,-1914.728887,10492.714303
1120.811884,-16619.846743,-6127.132440,11182.016703
1120.812178,-3829.457775,-5361.240885,11335.195014
1120.812479,11488.373325,612.713244,9650.233593
1120.812779,21521.552695,6663.256528,7275.969772
1120.813079,20066.358741,9573.644437,6893.023995
1120.813379,11182.016703,7275.969772,9420.466126
1120.813679,-0.000000,4288.992708,9956.590215
1120.813979,-9343.876971,612.713244,9114.109504
1120.814280,-13479.691368,-4901.705952,8041.861327
1120.814591,-15088.063633,-12484.032346,9956.590215
1120.814889,-10952.249236,-14858.296167,12790.388968
1120.815186,-2067.907198,-10799.070925,13556.280523
1120.815484,3446.511997,-2374.263820,12560.621502
1120.815781,6127.132440,5744.186662,10569.303459
1120.816079,5361.240885,9956.590215,10569.303459
1120.816376,3752.868619,11947.908258,10186.357681
1120.816673,2144.496354,9267.287815,9573.644437
1120.816983,-76.589155,3216.744531,8807.752882
1120.817282,1991.318043,-1914.728887,9573.644437
1120.817581,5820.775818,-4518.760174,10262.946837
1120.817881,7582.326394,-4518.760174,11794.729947
1120.818180,6586.667373,-995.659021,12713.799813
1120.818480,1225.426488,1838.139732,12407.443191
1120.818779,-4978.295107,3216.744531,12254.264880
1120.819078,-10492.714303,1072.248177,10109.768526
1120.819385,-14781.707011,-1148.837332,9420.466126
1120.819683,-14322.172078,-6739.845684,9803.411904
1120.819982,-12407.443191,-13556.280523,12330.854035
1120.820280,-2374.263820,-14168.993767,13096.745590
1120.820578,11028.838392,-7199.380617,10109.768526
1120.820876,17845.273231,-0.000000,6510.078217
1120.821174,14858.296167,4978.295107,6663.256528
1120.821472,5361.240885,4978.295107,9114.109504
1120.821788,-3063.566220,4288.992708,9650.233593
1120.822086,-9726.822748,459.534933,9114.109504
1120.822384,-14628.528700,-6893.023995,8654.574571
1120.822682,-11871.319102,-12790.388968,11794.729947
1120.822980,-1914.728887,-11411.784169,12254.264880
1120.823278,10416.125148,-4825.116796,10416.125148
1120.823576,17692.094920,2910.387909,9650.233593
1120.823874,15011.474478,7429.148083,9497.055282
1120.824188,5973.954129,9114.109504,11182.016703
1120.824487,-2374.263820,8960.931193,11028.838392
1120.824786,-9573.644437,6203.721595,9573.644437
1120.825084,-14245.582923,-229.767466,10416.125148
1120.825383,-14092.404612,-7046.202306,13096.745590
1120.825682,-7199.380617,-8424.807105,15241.241944
1120.825980,612.713244,-2986.977064,14322.172078
1120.826279,7429.148083,2604.031287,11641.551636
1120.826591,5667.597507,5437.830040,11794.729947
1120.826887,2680.620442,7582.326394,11641.551636
1120.827184,-0.000000,6816.434839,9267.287815
1120.827480,-4135.814397,3216.744531,8654.574571
1120.827777,-4825.116796,-3140.155375,9573.644437
1120.828074,-689.302399,-6433.489062,11488.373325
1120.828370,6586.667373,-4365.581863,11105.427547
1120.828667,14551.939545,1378.604799,9114.109504
1120.828966,13096.745590,5284.651729,10569.303459
1120.829266,8195.039638,8654.574571,10492.714303
1120.829565,612.713244,9267.287815,9803.411904
1120.829864,-7352.558928,6203.721595,9114.109504
1120.830163,-14322.172078,-995.659021,8884.342038
1120.830463,-16466.668432,-9343.876971,11335.195014
1120.830762,-10799.070925,-13556.280523,12024.497413
1120.831061,1225.426488,-11871.319102,10875.660081
1120.831368,9267.287815,-6433.489062,9803.411904
1120.831671,11641.551636,-536.124088,8041.861327
1120.831973,8041.861327,2144.496354,8271.628794
1120.832276,-842.480710,2450.852976,10109.768526
1120.832578,-7505.737239,153.178311,9420.466126
1120.832881,-11105.427547,-3140.155375,8654.574571
1120.833183,-11105.427547,-6739.845684,9650.233593
1120.833486,-4288.992708,-9650.233593,10416.125148
1120.833760,4748.527641,-6739.845684,10952.249236
1120.834064,12637.210657,-382.945777,10722.481770
1120.834368,13096.745590,3676.279464,9803.411904
1120.834671,8654.574571,5591.008351,10416.125148
1120.834975,1378.604799,5591.008351,10416.125148
1120.835279,-5284.651729,2297.674665,9114.109504
1120.835582,-11411.784169,-4059.225241,10416.125148
1120.835886,-13479.691368,-10186.357681,13326.513057
1120.836159,-8118.450483,-12024.497413,14015.815456
1120.836459,459.534933,-6893.023995,13556.280523
1120.836759,8041.861327,-382.945777,11488.373325
1120.837059,8501.396260,5131.473418,10875.660081
1120.837359,5054.884263,8195.039638,11488.373325
1120.837659,153.178311,8501.396260,10416.125148
1120.837959,-4595.349330,5284.651729,9267.287815
1120.838260,-7505.737239,-0.000000,9114.109504
1120.838577,-7122.791461,-5820.775818,10109.768526
1120.838875,-76.589155,-6739.845684,10109.768526
1120.839174,5514.419196,-4825.116796,11564.962480
1120.839473,6893.023995,-1455.193954,13020.156435
1120.839771,6739.845684,3523.101153,12101.086569
1120.840070,3293.333686,7735.504705,10109.768526
1120.840369,-76.589155,8960.931193,7582.326394
1120.840667,-6663.256528,5437.830040,7888.683016
1120.840967,-9726.822748,306.356622,8654.574571
1120.841264,-8271.628794,-5054.884263,9956.590215
1120.841562,-3216.744531,-8577.985416,11258.605858
1120.841859,3446.511997,-8118.450483,12101.086569
1120.842157,7582.326394,-2833.798753,11641.551636
1120.842454,9114.109504,2297.674665,9956.590215
1120.842751,7122.791461,6050.543284,8654.574571
1120.843049,1072.248177,5437.830040,9573.644437
1120.843356,-4595.349330,2297.674665,9956.590215
1120.843658,-7122.791461,-2067.907198,9573.644437
1120.843959,-5131.473418,-4901.705952,10875.660081
1120.844261,-76.589155,-6433.489062,11641.551636
1120.844563,7046.202306,-3140.155375,11335.195014
1120.844864,10262.946837,2450.852976,11182.016703
1120.845166,5973.954129,4825.116796,11641.551636
1120.845468,-1148.837332,4595.349330,12713.799813
1120.845748,-6510.078217,3369.922842,11182.016703
1120.846053,-9497.055282,-229.767466,9803.411904
1120.846358,-10952.249236,-5514.419196,9956.590215
1120.846663,-7965.272172,-9726.822748,11488.373325
1120.846968,-0.000000,-10033.179370,11794.729947
1120.847274,8807.752882,-6586.667373,11105.427547
1120.847579,12330.854035,-689.302399,10262.946837
1120.847884,9420.466126,2910.387909,9573.644437
1120.848122,3293.333686,3982.636086,8654.574571
1120.848429,-4135.814397,1838.139732,9573.644437
1120.848737,-9880.001059,-842.480710,9420.466126
1120.849044,-10799.070925,-5054.884263,10262.946837
1120.849352,-6969.613150,-6433.489062,10875.660081
1120.849659,1072.248177,-5667.597507,11182.016703
1120.849967,8960.931193,-229.767466,11335.195014
1120.850274,10875.660081,4595.349330,10262.946837
1120.850620,8960.931193,8348.217949,9267.287815
1120.850911,2527.442131,7888.683016,9114.109504
1120.851202,-5131.473418,4595.349330,9650.233593
1120.851493,-10799.070925,-1148.837332,10416.125148
1120.851785,-12101.086569,-6433.489062,11335.195014
1120.852076,-7199.380617,-9497.055282,10952.249236
1120.852367,1072.248177,-8271.628794,11488.373325
1120.852658,7046.202306,-3293.333686,12101.086569
1120.852958,8960.931193,2450.852976,11182.016703
1120.853257,7046.202306,6203.721595,9803.411904
1120.853556,1072.248177,7735.504705,10262.946837
1120.853855,-4135.814397,4442.171019,9573.644437
1120.854155,-9573.644437,-1302.015643,10569.303459
1120.854454,-8731.163727,-5514.419196,11794.729947
1120.854753,-1608.372265,-6586.667373,11028.838392
1120.855052,7046.202306,-4212.403552,10875.660081
1120.855366,13556.280523,1378.604799,9726.822748
1120.855665,12484.032346,6050.543284,10033.179370
1120.855963,8041.861327,8195.039638,10109.768526
1120.856262,765.891555,7429.148083,9956.590215
1120.856561,-6969.613150,2910.387909,9956.590215
1120.856859,-12101.086569,-2833.798753,11335.195014
1120.857158,-12101.086569,-8577.985416,11641.551636
1120.857457,-6663.256528,-10952.249236,10722.481770
1120.857764,612.713244,-9726.822748,12101.086569
1120.858061,3906.046930,-7046.202306,12101.086569
1120.858358,4365.581863,-995.659021,11028.838392
1120.858656,3446.511997,3829.457775,9573.644437
1120.858953,765.891555,5131.473418,7888.683016
1120.859250,-1608.372265,3216.744531,6969.613150
1120.859547,-3676.279464,-995.659021,7429.148083
1120.859845,-3523.101153,-5208.062574,8654.574571
1120.860141,1531.783110,-8271.628794,9803.411904
1120.860442,4671.938485,-7965.272172,11794.729947
1120.860743,8960.931193,-2527.442131,11488.373325
1120.861044,7275.969772,4288.992708,11182.016703
1120.861346,3599.690308,6356.899906,8501.396260
1120.861647,-2450.852976,5591.008351,9650.233593
1120.861948,-10186.357681,1378.604799,11182.016703
1120.862249,-11871.319102,-3293.333686,10952.249236
1120.862544,-10492.714303,-7505.737239,12254.264880
1120.862845,-3523.101153,-7199.380617,12024.497413
1120.863145,4748.527641,-4518.760174,11105.427547
1120.863446,8501.396260,1225.426488,11641.551636
1120.863747,7275.969772,4288.992708,11488.373325
1120.864048,2527.442131,5591.008351,11794.729947
1120.864349,-2757.209598,6510.078217,10339.535992
1120.864650,-6050.543284,3369.922842,9267.287815
1120.864962,-7658.915550,-1761.550576,10033.179370
1120.865259,-4978.295107,-6127.132440,10875.660081
1120.865556,1838.139732,-6433.489062,11335.195014
1120.865854,8348.217949,-3293.333686,11794.729947
1120.866151,13249.923901,1838.139732,10875.660081
1120.866449,10569.303459,5897.364973,9573.644437
1120.866746,4212.403552,6663.256528,10262.946837
1120.867044,-3063.566220,4595.349330,10875.660081
1120.867353,-8271.628794,2144.496354,9573.644437
1120.867652,-10799.070925,-2986.977064,9114.109504
1120.867952,-11871.319102,-9037.520349,11641.551636
1120.868251,-6663.256528,-9650.233593,13326.513057
1120.868550,2527.442131,-5208.062574,11794.729947
1120.868850,8501.396260,1838.139732,9420.466126
1120.869149,6127.132440,4825.116796,9420.466126
1120.869449,2833.798753,5897.364973,9803.411904
1120.869756,-689.302399,5437.830040,9650.233593
1120.870055,-2757.209598,2297.674665,7888.683016
1120.870355,-4748.527641,-4671.938485,8807.752882
1120.870655,-4288.992708,-9726.822748,11335.195014
1120.870954,3293.333686,-8884.342038,10722.481770
1120.871254,10722.481770,-3599.690308,9803.411904
1120.871554,11488.373325,1378.604799,9956.590215
1120.871853,5973.954129,4288.992708,10109.768526
1120.872150,-2067.907198,4825.116796,11641.551636
1120.872447,-6510.078217,4825.116796,10262.946837
1120.872745,-11411.784169,612.713244,9650.233593
1120.873042,-13632.869679,-4901.705952,10416.125148
1120.873339,-9343.876971,-9037.520349,12713.799813
1120.873637,-229.767466,-6893.023995,12101.086569
1120.873934,8195.039638,-2680.620442,11028.838392
1120.874232,9650.233593,1225.426488,11182.016703
1120.874546,6893.023995,3523.101153,10262.946837
1120.874845,2680.620442,4288.992708,9956.590215
1120.875143,-2221.085509,2297.674665,9190.698660
1120.875442,-7658.915550,-3446.511997,9267.287815
1120.875741,-8577.985416,-9343.876971,10569.303459
1120.876040,-3829.457775,-10645.892614,12484.032346
1120.876338,5054.884263,-6739.845684,11335.195014
1120.876637,11182.016703,-0.000000,10109.768526
1120.876925,10416.125148,4748.527641,10416.125148
1120.877225,5514.419196,7735.504705,10339.535992
1120.877525,-1302.015643,9114.109504,10262.946837
1120.877825,-7658.915550,6816.434839,9803.411904
1120.878125,-14934.885322,-536.124088,11488.373325
1120.878425,-17309.149143,-8884.342038,13096.745590
1120.878725,-8271.628794,-10339.535992,11641.551636
1120.879025,3752.868619,-7965.272172,10109.768526
1120.879325,10262.946837,-4059.225241,9956.590215
1120.879625,12177.675724,1225.426488,9803.411904
1120.879925,10416.125148,5744.186662,9420.466126
1120.880225,5514.419196,7122.791461,7888.683016
1120.880525,-1455.193954,3829.457775,8195.039638
1120.880825,-8884.342038,-2833.798753,9650.233593
1120.881125,-9573.644437,-8271.628794,11182.016703
1120.881425,-3982.636086,-9037.520349,11335.195014
1120.881732,4059.225241,-4901.705952,10262.946837
1120.882034,10569.303459,306.356622,10262.946837
1120.882335,7582.326394,5131.473418,12101.086569
1120.882637,3446.511997,8348.217949,11794.729947
1120.882938,-3216.744531,9803.411904,11028.838392
1120.883240,-8424.807105,7582.326394,9573.644437
1120.883541,-11718.140791,1531.783110,10109.768526
1120.883843,-10799.070925,-4671.938485,12101.086569
1120.884159,-3829.457775,-8424.807105,12254.264880
1120.884458,5820.775818,-8577.985416,11488.373325
1120.884756,11794.729947,-4518.760174,10416.125148
1120.885054,11488.373325,153.178311,8501.396260
1120.885353,5361.240885,2297.674665,9420.466126
1120.885651,-995.659021,765.891555,9650.233593
1120.885950,-4825.116796,-76.589155,9267.287815
1120.886248,-6816.434839,-3140.155375,8807.752882
1120.886563,-8118.450483,-7965.272172,10109.768526
1120.886857,-3216.744531,-8118.450483,11488.373325
1120.887152,4518.760174,-3140.155375,11794.729947
1120.887447,8960.931193,1531.783110,11028.838392
1120.887742,5208.062574,5284.651729,10569.303459
1120.888037,-1148.837332,7582.326394,11335.195014
1120.888332,-6203.721595,6203.721595,10722.481770
1120.888627,-10186.357681,2297.674665,9573.644437
1120.888940,-11258.605858,-5208.062574,9956.590215
1120.889238,-9037.520349,-10799.070925,11947.908258
1120.889537,153.178311,-11258.605858,11335.195014
1120.889835,11028.838392,-7352.558928,9267.287815
1120.890134,15777.366033,-1455.193954,8807.752882
1120.890432,12177.675724,1991.318043,9803.411904
1120.890731,5820.775818,4595.349330,10262.946837
1120.891029,-536.124088,5897.364973,9956.590215
1120.891294,-6510.078217,3369.922842,9114.109504
1120.891600,-10952.249236,-1914.728887,10262.946837
1120.891905,-10339.535992,-6433.489062,11718.140791
1120.892211,-4595.349330,-6280.310751,12943.567279
1120.892517,2144.496354,-1761.550576,13096.745590
1120.892822,6586.667373,3982.636086,11641.551636
1120.893128,5667.597507,6510.078217,9956.590215
1120.893434,1531.783110,7582.326394,11335.195014
1120.893741,-2374.263820,6510.078217,10722.481770
1120.894038,-3829.457775,3063.566220,7888.683016
1120.894335,-6050.543284,-2833.798753,8501.396260
1120.894632,-4288.992708,-9343.876971,10262.946837
1120.894929,153.178311,-11564.962480,12407.443191
1120.895225,6280.310751,-7352.558928,11794.729947
1120.895522,10569.303459,-1148.837332,10109.768526
1120.895819,8348.217949,4748.527641,9420.466126
1120.896133,4901.705952,7582.326394,8960.931193
1120.896436,-1148.837332,7429.148083,8654.574571
1120.896739,-7352.558928,3369.922842,9803.411904
1120.897041,-10952.249236,-2833.798753,11488.373325
1120.897344,-9497.055282,-7352.558928,12254.264880
1120.897647,-2450.852976,-6893.023995,11488.373325
1120.897950,3906.046930,-2680.620442,11488.373325
1120.898252,7046.202306,1225.426488,10262.946837
1120.898491,5820.775818,4442.171019,10569.303459
1120.898798,2680.620442,5437.830040,10339.535992
1120.899106,-995.659021,4288.992708,8807.752882
1120.899413,-5591.008351,-536.124088,8654.574571
1120.899721,-8577.985416,-8731.163727,9267.287815
1120.900029,-5897.364973,-12790.388968,11335.195014
1120.900336,919.069866,-11564.962480,11182.016703
1120.900644,7122.791461,-5973.954129,11335.195014
1120.900916,10875.660081,306.356622,10109.768526
1120.901218,7582.326394,4825.116796,9343.876971
1120.901519,2374.263820,6816.434839,9956.590215
1120.901821,-3982.636086,5437.830040,10109.768526
1120.902123,-10492.714303,1531.783110,11182.016703
1120.902424,-11105.427547,-2374.263820,10262.946837
1120.902726,-6969.613150,-5973.954129,12407.443191
1120.903028,1378.604799,-5973.954129,12790.388968
1120.903328,9497.055282,-995.659021,10262.946837
1120.903625,11641.551636,3216.744531,9803.411904
1120.903923,8654.574571,4288.992708,9956.590215
1120.904220,1838.139732,3523.101153,10722.481770
1120.904518,-3369.922842,1684.961421,9956.590215
1120.904815,-9497.055282,-1761.550576,9650.233593
1120.905112,-10645.892614,-7352.558928,10262.946837
1120.905410,-7122.791461,-9726.822748,12254.264880
1120.905740,1531.783110,-7352.558928,10722.481770
1120.906037,7888.683016,-1761.550576,10722.481770
1120.906334,8195.039638,3523.101153,11182.016703
1120.906631,4059.225241,5591.008351,11028.838392
1120.906928,-0.000000,8654.574571,10569.303459
1120.907225,-2757.209598,8041.861327,8654.574571
1120.907522,-7199.380617,2757.209598,9037.520349
1120.907819,-9343.876971,-4518.760174,10416.125148
1120.908127,-3982.636086,-6586.667373,11871.319102
1120.908426,5208.062574,-4212.403552,10109.768526
1120.908726,12637.210657,-229.767466,9573.644437
1120.909026,9803.411904,1838.139732,10569.303459
1120.909326,5667.597507,4442.171019,10722.481770
1120.909626,-382.945777,4748.527641,11028.838392
1120.909926,-7122.791461,2757.209598,9956.590215
1120.910225,-10645.892614,-1914.728887,9573.644437
1120.910509,-10952.249236,-6586.667373,10952.249236
1120.910812,-4825.116796,-8424.807105,12254.264880
1120.911115,3752.868619,-5973.954129,11794.729947
1120.911417,9420.466126,-689.302399,9803.411904
1120.911720,8348.217949,2910.387909,9956.590215
1120.912023,4059.225241,3676.279464,10186.357681
1120.912326,-1455.193954,2757.209598,10569.303459
1120.912629,-5437.830040,1225.426488,8960.931193
1120.912911,-6969.613150,-2833.798753,8577.985416
1120.913213,-7122.791461,-7965.272172,9956.590215
1120.913515,-842.480710,-8118.450483,10416.125148
1120.913816,5820.775818,-5208.062574,12024.497413
1120.914118,9497.055282,-1148.837332,11028.838392
1120.914420,7888.683016,2910.387909,9803.411904
1120.914722,2986.977064,5131.473418,9726.822748
1120.915024,-3369.922842,4595.349330,9956.590215
1120.915314,-8424.807105,1531.783110,10416.125148
1120.915613,-10033.179370,-3446.511997,10109.768526
1120.915912,-8271.628794,-8118.450483,10569.303459
1120.916211,-3523.101153,-8118.450483,11488.373325
1120.916511,2527.442131,-5820.775818,12254.264880
1120.916810,7275.969772,-995.659021,11182.016703
1120.917109,6586.667373,2450.852976,11182.016703
1120.917408,3599.690308,4442.171019,10416.125148
1120.917717,-1608.372265,4978.295107,9803.411904
1120.918016,-3676.279464,2297.674665,8807.752882
1120.918314,-4748.527641,-2067.907198,8348.217949
1120.918613,-3216.744531,-6280.310751,10416.125148
1120.918911,919.069866,-6127.132440,12101.086569
1120.919210,7429.148083,-2527.442131,11258.605858
1120.919508,10875.660081,3676.279464,10033.179370
1120.919807,7046.202306,5591.008351,9573.644437
1120.920114,459.534933,6203.721595,11182.016703
1120.920413,-5897.364973,5284.651729,11641.551636
1120.920713,-10799.070925,2910.387909,10416.125148
1120.921013,-12101.086569,-2374.263820,9956.590215
1120.921313,-9880.001059,-6586.667373,11641.551636
1120.921612,-2067.907198,-7352.558928,12560.621502
1120.921912,5054.884263,-3446.511997,12330.854035
1120.922212,10875.660081,1378.604799,10109.768526
1120.922509,9114.109504,4288.992708,9267.287815
1120.922808,4365.581863,4135.814397,9650.233593
1120.923107,-1761.550576,3523.101153,9803.411904
1120.923406,-3216.744531,459.534933,8807.752882
1120.923705,-4288.992708,-3293.333686,8960.931193
1120.924004,-1914.728887,-7046.202306,10875.660081
1120.924303,5054.884263,-6127.132440,10952.249236
1120.924602,11488.373325,-382.945777,9573.644437
1120.924897,11871.319102,3523.101153,9573.644437
1120.925197,3906.046930,4442.171019,10722.481770
1120.925497,-5591.008351,3523.101153,12101.086569
1120.925797,-10799.070925,3063.566220,11182.016703
1120.926097,-15088.063633,-1302.015643,10569.303459
1120.926397,-16160.311810,-5973.954129,11411.784169
1120.926698,-11947.908258,-10339.535992,12943.567279
1120.926998,-842.480710,-9190.698660,11641.551636
1120.927309,10569.303459,-3599.690308,9956.590215
1120.927607,13709.458834,153.178311,8654.574571
1120.927904,9267.287815,1991.318043,9267.287815
1120.928202,4748.527641,3523.101153,9573.644437
1120.928499,1072.248177,3216.744531,8041.861327
1120.928797,-3829.457775,-1455.193954,7658.915550
1120.929094,-6203.721595,-6280.310751,9650.233593
1120.929392,-2757.209598,-8271.628794,11794.729947
1120.929724,4518.760174,-5667.597507,12101.086569
1120.930019,9420.466126,-229.767466,10875.660081
1120.930315,7275.969772,4595.349330,10722.481770
1120.930610,1378.604799,6510.078217,11641.551636
1120.930905,-5744.186662,7582.326394,12713.799813
1120.931201,-11258.605858,5284.651729,11488.373325
1120.931496,-15241.241944,-229.767466,10722.481770
1120.931791,-14322.172078,-7046.202306,12254.264880
1120.932098,-6510.078217,-10339.535992,11794.729947
1120.932397,6586.667373,-8271.628794,10262.946837
1120.932696,13862.637145,-3906.046930,8960.931193
1120.932995,13249.923901,459.534933,9803.411904
1120.933294,8195.039638,2757.209598,10722.481770
1120.933593,3293.333686,5131.473418,9956.590215
1120.933892,-842.480710,5744.186662,7735.504705
1120.934191,-6203.721595,1838.139732,8195.039638
1120.934507,-7199.380617,-4212.403552,10339.535992
1120.934806,-2450.852976,-4518.760174,10569.303459
1120.935104,4212.403552,-2067.907198,10569.303459
1120.935403,6586.667373,1072.248177,11028.838392
1120.935701,2986.977064,3676.279464,12560.621502
1120.935999,-842.480710,6816.434839,12943.567279
1120.936298,-4288.992708,7888.683016,10569.303459
1120.936596,-8271.628794,4978.295107,9650.233593
1120.936911,-9880.001059,-1608.372265,9573.644437
1120.937209,-7505.737239,-6433.489062,10262.946837
1120.937508,-995.659021,-8577.985416,11488.373325
1120.937807,7888.683016,-7965.272172,10262.946837
1120.938105,11871.319102,-4365.581863,9267.287815
1120.938404,9803.411904,-536.124088,9573.644437
1120.938703,3906.046930,919.069866,10875.660081
1120.939001,-3063.566220,1684.961421,11182.016703
1120.939290,-6356.899906,1838.139732,9803.411904
1120.939590,-6969.613150,-536.124088,8654.574571
1120.939891,-5897.364973,-4059.225241,9420.466126
1120.940192,-689.302399,-4212.403552,10722.481770
1120.940493,4059.225241,-1914.728887,12254.264880
1120.940794,8041.861327,2450.852976,10722.481770
1120.941094,5973.954129,4978.295107,10569.303459
1120.941395,459.534933,4748.527641,11488.373325
1120.941718,-3982.636086,2144.496354,10722.481770
1120.942015,-7199.380617,-1148.837332,9803.411904
1120.942311,-9573.644437,-6586.667373,9803.411904
1120.942608,-7965.272172,-12790.388968,11335.195014
1120.942904,-842.480710,-11718.140791,11488.373325
1120.943201,7275.969772,-7199.380617,11028.838392
1120.943498,10722.481770,-1302.015643,10416.125148
1120.943794,7735.504705,2757.209598,10722.481770
1120.944101,4901.705952,6969.613150,9956.590215
1120.944401,612.713244,7735.504705,8731.163727
1120.944700,-6203.721595,3523.101153,9267.287815
1120.944999,-10645.892614,-1455.193954,11258.605858
1120.945298,-7199.380617,-4518.760174,12101.086569
1120.945598,-229.767466,-4059.225241,11641.551636
1120.945897,5514.419196,-536.124088,11488.373325
1120.946196,7122.791461,3676.279464,11488.373325
1120.946517,4748.527641,6356.899906,10569.303459
1120.946814,1684.961421,7275.969772,10645.892614
1120.947111,-2450.852976,4825.116796,10262.946837
1120.947408,-7965.272172,-76.589155,9956.590215
1120.947705,-8577.985416,-5208.062574,10033.179370
1120.948002,-4595.349330,-8424.807105,10875.660081
1120.948299,2527.442131,-8577.985416,10339.535992
1120.948596,8041.861327,-4365.581863,9880.001059
1120.948914,9650.233593,612.713244,10875.660081
1120.949213,6433.489062,3982.636086,10722.481770
1120.949511,2833.798753,6356.899906,9650.233593
1120.949809,-1914.728887,6816.434839,8960.931193
1120.950107,-5131.473418,3063.566220,9420.466126
1120.950406,-7505.737239,-2374.263820,10109.768526
1120.950704,-5437.830040,-5208.062574,11335.195014
1120.951002,1378.604799,-4901.705952,11182.016703
1120.951315,5208.062574,-2986.977064,11794.729947
1120.951611,6739.845684,459.534933,11718.140791
1120.951907,4212.403552,2910.387909,11258.605858
1120.952203,-382.945777,3676.279464,9880.001059
1120.952499,-4978.295107,1531.783110,9573.644437
1120.952795,-8884.342038,-2833.798753,10109.768526
1120.953091,-9497.055282,-7199.380617,10722.481770
1120.953387,-4442.171019,-8424.807105,9956.590215
1120.953710,4059.225241,-7199.380617,10109.768526
1120.954008,9956.590215,-3599.690308,10109.768526
1120.954305,12330.854035,1225.426488,8960.931193
1120.954602,8195.039638,3676.279464,8960.931193
1120.954900,153.178311,2757.209598,11028.838392
1120.955197,-6663.256528,-76.589155,11488.373325
1120.955495,-8271.628794,-2527.442131,9803.411904
1120.955792,-8118.450483,-5514.419196,9573.644437
1120.956133,-6356.899906,-8731.163727,11641.551636
1120.956424,765.891555,-7046.202306,12866.978124
1120.956716,7429.148083,153.178311,11488.373325
1120.957007,8807.752882,5437.830040,10416.125148
1120.957298,3140.155375,5591.008351,10875.660081
1120.957590,-3063.566220,5284.651729,11641.551636
1120.957881,-5591.008351,4978.295107,10109.768526
1120.958173,-9497.055282,-382.945777,10416.125148
1120.958481,-7505.737239,-6127.132440,9803.411904
1120.958780,-1455.193954,-7352.558928,10262.946837
1120.959079,6280.310751,-6127.132440,10109.768526
1120.959377,11335.195014,-1914.728887,9803.411904
1120.959676,7888.683016,2450.852976,11028.838392
1120.959975,3446.511997,3829.457775,11028.838392
1120.960274,-2910.387909,4595.349330,10416.125148
1120.960573,-7199.380617,3829.457775,10262.946837
1120.960890,-9573.644437,153.178311,10109.768526
1120.961188,-7965.272172,-3906.046930,10569.303459
1120.961487,-1608.372265,-4518.760174,11488.373325
1120.961785,4901.705952,-2221.085509,12254.264880
1120.962084,11488.373325,3523.101153,9956.590215
1120.962382,10569.303459,7888.683016,9420.466126
1120.962680,5667.597507,8807.752882,9650.233593
1120.962979,-842.480710,7122.791461,10952.249236
1120.963296,-7122.791461,3523.101153,10262.946837
1120.963594,-8731.163727,-2374.263820,9650.233593
1120.963892,-9880.001059,-8271.628794,10722.481770
1120.964189,-4825.116796,-10033.179370,12407.443191
1120.964487,3140.155375,-7199.380617,12254.264880
1120.964785,8348.217949,-1302.015643,9803.411904
1120.965083,7429.148083,1684.961421,9497.055282
1120.965380,919.069866,2297.674665,10416.125148
1120.965669,-4288.992708,1531.783110,11028.838392
1120.965970,-5897.364973,612.713244,9573.644437
1120.966272,-6356.899906,-2527.442131,8348.217949
1120.966574,-3523.101153,-6433.489062,9267.287815
1120.966876,2527.442131,-6739.845684,10569.303459
1120.967177,8348.217949,-2833.798753,11028.838392
1120.967479,11335.195014,1531.783110,10416.125148
1120.967781,7122.791461,3829.457775,10109.768526
1120.968071,2374.263820,4825.116796,9956.590215
1120.968374,-3216.744531,3676.279464,9267.287815
1120.968678,-9726.822748,-995.659021,10109.768526
1120.968981,-12254.264880,-6586.667373,11335.195014
1120.969285,-10799.070925,-11258.605858,12713.799813
1120.969588,-4825.116796,-10645.892614,12790.388968
1120.969891,2986.977064,-6739.845684,11335.195014
1120.970195,8501.396260,-1148.837332,10109.768526
1120.970469,7122.791461,1684.961421,10339.535992
1120.970774,4365.581863,4442.171019,10262.946837
1120.971078,1531.783110,4978.295107,9497.055282
1120.971383,-995.659021,1991.318043,8654.574571
1120.971688,-4288.992708,-2833.798753,8577.985416
1120.971992,-5131.473418,-6739.845684,11794.729947
1120.972297,919.069866,-5667.597507,12330.854035
1120.972602,6127.132440,-689.302399,10569.303459
1120.972885,7582.326394,4748.527641,10875.660081
1120.973187,3906.046930,7275.969772,11488.373325
1120.973489,-76.589155,8501.396260,10722.481770
1120.973791,-2450.852976,7735.504705,9956.590215
1120.974093,-6969.613150,3216.744531,9956.590215
1120.974396,-10339.535992,-2986.977064,11182.016703
1120.974698,-6816.434839,-6127.132440,10875.660081
1120.975000,1225.426488,-6280.310751,9956.590215
1120.975282,6280.310751,-4212.403552,10109.768526
1120.975581,7582.326394,-2067.907198,11028.838392
1120.975881,3293.333686,-0.000000,11794.729947
1120.976180,1378.604799,3216.744531,10875.660081
1120.976480,-1608.372265,4442.171019,9267.287815
1120.976779,-4135.814397,2604.031287,8807.752882
1120.977079,-6663.256528,-1914.728887,9803.411904
1120.977378,-2757.209598,-3752.868619,10569.303459
1120.977678,2374.263820,-2833.798753,11182.016703
1120.977978,6739.845684,-1455.193954,10875.660081
1120.978277,8348.217949,1838.139732,11028.838392
1120.978576,6280.310751,5284.651729,10492.714303
1120.978875,1072.248177,5284.651729,9803.411904
1120.979174,-4442.171019,2297.674665,9267.287815
1120.979473,-9573.644437,-2527.442131,11105.427547
1120.979772,-9880.001059,-6893.023995,10569.303459
1120.980081,-7199.380617,-10339.535992,9956.590215
1120.980380,-689.302399,-10186.357681,11335.195014
1120.980678,4671.938485,-7658.915550,11488.373325
1120.980977,8041.861327,-2067.907198,10875.660081
1120.981275,5361.240885,1072.248177,10109.768526
1120.981574,1531.783110,2144.496354,10416.125148
1120.981872,-3369.922842,3063.566220,10262.946837
1120.982171,-4595.349330,1378.604799,9114.109504
1120.982478,-4825.116796,-1455.193954,9114.109504
1120.982778,-1761.550576,-4518.760174,10569.303459
1120.983077,2527.442131,-4365.581863,12101.086569
1120.983377,8348.217949,-689.302399,12101.086569
1120.983677,9114.109504,4442.171019,9803.411904
1120.983976,5361.240885,6203.721595,9803.411904
1120.984276,-3216.744531,4442.171019,11564.962480
1120.984576,-9343.876971,1225.426488,11641.551636
1120.984872,-10645.892614,-1148.837332,10722.481770
1120.985171,-9573.644437,-5820.775818,10186.357681
1120.985470,-5437.830040,-8577.985416,11488.373325
1120.985769,2297.674665,-6280.310751,11794.729947
1120.986067,8348.217949,-995.659021,10569.303459
1120.986366,9956.590215,3676.279464,9803.411904
1120.986665,3906.046930,4288.992708,10416.125148
1120.986964,-2450.852976,3676.279464,10722.481770
1120.987259,-6356.899906,3063.566220,10109.768526
1120.987558,-8271.628794,-382.945777,9267.287815
1120.987857,-5131.473418,-4671.938485,10109.768526
1120.988156,765.891555,-5054.884263,10416.125148
1120.988456,8807.752882,-2680.620442,10109.768526
1120.988755,12024.497413,1225.426488,9956.590215
1120.989054,8807.752882,4748.527641,10875.660081
1120.989354,4748.527641,6050.543284,10569.303459
1120.989665,-1761.550576,4825.116796,9956.590215
1120.989966,-8271.628794,2604.031287,10416.125148
1120.990267,-10492.714303,-1761.550576,10569.303459
1120.990568,-9497.055282,-5820.775818,10722.481770
1120.990868,-2374.263820,-7658.915550,11028.838392
1120.991169,3752.868619,-6739.845684,11258.605858
1120.991470,6127.132440,-2680.620442,11641.551636
1120.991770,4671.938485,1225.426488,10722.481770
1120.992080,1838.139732,3829.457775,9956.590215
1120.992375,-1608.372265,3676.279464,9114.109504
1120.992670,-5744.186662,612.713244,9190.698660
1120.992966,-8118.450483,-3599.690308,9573.644437
1120.993261,-5744.186662,-6280.310751,11028.838392
1120.993556,2297.674665,-6586.667373,10262.946837
1120.993852,8960.931193,-2680.620442,9803.411904
1120.994147,11028.838392,1378.604799,9956.590215
1120.994454,5973.954129,3216.744531,11028.838392
1120.994756,1072.248177,3982.636086,11028.838392
1120.995059,-3063.566220,2757.209598,10339.535992
1120.995361,-7352.558928,-842.480710,10033.179370
1120.995663,-9190.698660,-5667.597507,10109.768526
1120.995965,-4135.814397,-6739.845684,9573.644437
1120.996268,1838.139732,-7046.202306,9956.590215
1120.996570,6280.310751,-5820.775818,12101.086569
1120.996886,7429.148083,-1914.728887,12101.086569
1120.997184,3293.333686,2144.496354,11794.729947
1120.997483,612.713244,3982.636086,10722.481770
1120.997781,-5897.364973,3369.922842,10722.481770
1120.998080,-10492.714303,919.069866,11028.838392
1120.998378,-10799.070925,-2374.263820,10262.946837
1120.998677,-7199.380617,-4825.116796,11182.016703
1120.998975,1531.783110,-3446.511997,11335.195014
1120.999289,8195.039638,-536.124088,9880.001059
1120.999584,10875.660081,3216.744531,10416.125148
1120.999879,8501.396260,4825.116796,11182.016703
1121.000174,3599.690308,5284.651729,11411.784169
1121.000469,-1148.837332,4442.171019,9956.590215
1121.000764,-5437.830040,1838.139732,9420.466126
1121.001059,-6816.434839,-3446.511997,9573.644437
1121.001354,-5131.473418,-6433.489062,11028.838392
1121.001667,153.178311,-7658.915550,11641.551636
1121.001965,4748.527641,-4212.403552,11488.373325
1121.002264,5973.954129,-76.589155,11488.373325
1121.002562,2680.620442,3216.744531,10492.714303
1121.002861,-1302.015643,4978.295107,11028.838392
1121.003159,-5284.651729,4825.116796,11028.838392
1121.003458,-6050.543284,3216.744531,9420.466126
1121.003756,-5897.364973,-689.302399,9190.698660
1121.004056,-2374.263820,-4518.760174,10109.768526
1121.004356,3906.046930,-3906.046930,10569.303459
1121.004656,9803.411904,-842.480710,10722.481770
1121.004956,9956.590215,1378.604799,9803.411904
1121.005256,5820.775818,2757.209598,10109.768526
1121.005556,-842.480710,1991.318043,11182.016703
1121.005856,-5897.364973,459.534933,9650.233593
1121.006156,-9037.520349,-2527.442131,9803.411904
1121.006463,-10645.892614,-7046.202306,11182.016703
1121.006760,-5131.473418,-8731.163727,9803.411904
1121.007057,2680.620442,-5820.775818,10109.768526
1121.007354,7582.326394,-2680.620442,10416.125148
1121.007651,8041.861327,459.534933,10722.481770
1121.007947,3906.046930,2297.674665,11182.016703
1121.008244,-382.945777,3063.566220,10033.179370
1121.008541,-4595.349330,612.713244,10109.768526
1121.008855,-7199.380617,-2986.977064,9956.590215
1121.009156,-6356.899906,-6433.489062,9726.822748
1121.009456,-382.945777,-7352.558928,9420.466126
1121.009756,4901.705952,-6433.489062,10722.481770
1121.010057,8807.752882,-2680.620442,11335.195014
1121.010357,7582.326394,1531.783110,11028.838392
1121.010657,4059.225241,5131.473418,10722.481770
1121.010957,-689.302399,4978.295107,10416.125148
1121.011276,-6510.078217,2910.387909,10186.357681
1121.011572,-7658.915550,306.356622,9573.644437
1121.011868,-7505.737239,-4212.403552,10262.946837
1121.012164,-3369.922842,-6433.489062,12101.086569
1121.012460,2680.620442,-4671.938485,11488.373325
1121.012756,6739.845684,-382.945777,10416.125148
1121.013053,5361.240885,2450.852976,9803.411904
1121.013349,459.534933,3369.922842,10416.125148
1121.013666,-4595.349330,1378.604799,11028.838392
1121.013964,-9726.822748,-2067.907198,11794.729947
1121.014263,-9880.001059,-5208.062574,11488.373325
1121.014562,-4978.295107,-6127.132440,10569.303459
1121.014860,4059.225241,-3906.046930,9573.644437
1121.015159,10722.481770,-382.945777,9650.233593
1121.015457,13709.458834,4595.349330,9726.822748
1121.015756,9267.287815,7735.504705,10722.481770
1121.016033,3599.690308,7735.504705,10875.660081
1121.016333,-2604.031287,5284.651729,10569.303459
1121.016633,-8424.807105,1991.318043,10416.125148
1121.016933,-9573.644437,-1608.372265,10569.303459
1121.017233,-6663.256528,-4518.760174,10569.303459
1121.017533,-995.659021,-5667.597507,11182.016703
1121.017833,4518.760174,-3599.690308,12407.443191
1121.018133,7275.969772,-229.767466,11182.016703
1121.018463,5820.775818,2910.387909,10262.946837
1121.018760,2374.263820,3829.457775,9420.466126
1121.019057,-3063.566220,1991.318043,10033.179370
1121.019354,-7352.558928,-995.659021,10262.946837
1121.019651,-8577.985416,-4825.116796,10262.946837
1121.019948,-5897.364973,-6433.489062,10569.303459
1121.020245,919.069866,-5820.775818,9573.644437
1121.020541,6893.023995,-2221.085509,10109.768526
1121.020850,9267.287815,1684.961421,9956.590215
1121.021149,5820.775818,4442.171019,10262.946837
1121.021449,1378.604799,5744.186662,10416.125148
1121.021749,-2067.907198,4135.814397,9803.411904
1121.022049,-5131.473418,-76.589155,9267.287815
1121.022349,-6050.543284,-3906.046930,9420.466126
1121.022648,-4825.116796,-8271.628794,9650.233593
1121.022948,-689.302399,-9726.822748,10875.660081
1121.023265,4518.760174,-7965.272172,11564.962480
1121.023564,7582.326394,-2527.442131,11182.016703
1121.023862,4748.527641,765.891555,9803.411904
1121.024161,612.713244,2910.387909,10569.303459
1121.024460,-4748.527641,2604.031287,9956.590215
1121.024759,-7965.272172,919.069866,9956.590215
1121.025057,-10033.179370,-3140.155375,10875.660081
1121.025356,-7122.791461,-5208.062574,11028.838392
1121.025628,2144.496354,-3293.333686,11335.195014
1121.025931,8960.931193,153.178311,9650.233593
1121.026234,10109.768526,3982.636086,10109.768526
1121.026538,6280.310751,4978.295107,11182.016703
1121.026841,1531.783110,4978.295107,11411.784169
1121.027144,-4825.116796,3063.566220,11028.838392
1121.027447,-8884.342038,-536.124088,10722.481770
1121.027750,-10186.357681,-5514.419196,10262.946837
1121.028040,-6203.721595,-7965.272172,10262.946837
1121.028339,459.534933,-7046.202306,11718.140791
1121.028638,5208.062574,-3906.046930,12101.086569
1121.028938,9114.109504,1838.139732,11105.427547
1121.029237,7275.969772,5131.473418,9956.590215
1121.029536,2986.977064,6816.434839,9420.466126
1121.029835,-3063.566220,5437.830040,10109.768526
1121.030134,-5591.008351,2757.209598,9726.822748
1121.030448,-6050.543284,-1302.015643,9803.411904
1121.030747,-2067.907198,-3599.690308,10339.535992
1121.031046,2144.496354,-3140.155375,10569.303459
1121.031344,6893.023995,-842.480710,10569.303459
1121.031643,7046.202306,1684.961421,9956.590215
1121.031942,3599.690308,3063.566220,9650.233593
1121.032240,-2374.263820,1684.961421,10339.535992
1121.032539,-7965.272172,-2221.085509,11335.195014
1121.032846,-10492.714303,-5208.062574,10722.481770
1121.033146,-8271.628794,-8577.985416,10109.768526
1121.033446,-1608.372265,-8731.163727,9573.644437
1121.033745,5361.240885,-5973.954129,9650.233593
1121.034045,9267.287815,-995.659021,9956.590215
1121.034345,8348.217949,3676.279464,9956.590215
1121.034645,5208.062574,5744.186662,10416.125148
1121.034944,-229.767466,4135.814397,10262.946837
1121.035241,-7965.272172,459.534933,10875.660081
1121.035541,-9497.055282,-2527.442131,10569.303459
1121.035840,-7352.558928,-4671.938485,10569.303459
1121.036140,-229.767466,-5667.597507,9420.466126
1121.036439,5973.954129,-5361.240885,10416.125148
1121.036739,8807.752882,-842.480710,11488.373325
1121.037039,8501.396260,2910.387909,10722.481770
1121.037338,5054.884263,4442.171019,10109.768526
1121.037633,-76.589155,3369.922842,10416.125148
1121.037934,-6050.543284,1072.248177,11028.838392
1121.038235,-9880.001059,-2527.442131,10416.125148
1121.038536,-10186.357681,-5361.240885,10875.660081
1121.038836,-5897.364973,-6893.023995,11488.373325
1121.039137,-0.000000,-5973.954129,11794.729947
1121.039438,4212.403552,-1761.550576,11335.195014
1121.039739,5514.419196,3063.566220,11335.195014
1121.040027,2680.620442,4978.295107,11028.838392
1121.040328,153.178311,5897.364973,10262.946837
1121.040629,-1455.193954,5131.473418,9803.411904
1121.040930,-3676.279464,1378.604799,9343.876971
1121.041230,-4135.814397,-2986.977064,9037.520349
1121.041531,-689.302399,-4901.705952,9956.590215
1121.041832,4518.760174,-4059.225241,11488.373325
1121.042133,8960.931193,-76.589155,10952.249236
1121.042442,9114.109504,4288.992708,9803.411904
1121.042741,5054.884263,5744.186662,9956.590215
1121.043039,-382.945777,4978.295107,10722.481770
1121.043338,-5284.651729,2297.674665,9956.590215
1121.043637,-8731.163727,-1148.837332,9650.233593
1121.043935,-9497.055282,-5514.419196,11028.838392
1121.044234,-4135.814397,-6586.667373,11335.195014
1121.044533,3752.868619,-3752.868619,11335.195014
1121.044840,7275.969772,-382.945777,10875.660081
1121.045139,5054.884263,1991.318043,10875.660081
1121.045439,2527.442131,3216.744531,10109.768526
1121.045739,-1914.728887,1838.139732,10109.768526
1121.046038,-6816.434839,-842.480710,10186.357681
1121.046338,-9190.698660,-4518.760174,9573.644437
1121.046638,-6510.078217,-5820.775818,9573.644437
1121.046937,612.713244,-7046.202306,10109.768526
1121.047234,6280.310751,-5054.884263,11488.373325
1121.047532,10262.946837,-842.480710,10799.070925
1121.047830,8807.752882,2757.209598,9573.644437
1121.048128,4748.527641,3829.457775,10109.768526
1121.048426,-1302.015643,2450.852976,9803.411904
1121.048724,-6050.543284,-1302.015643,9956.590215
1121.049023,-7658.915550,-4365.581863,9420.466126
1121.049321,-6050.543284,-7352.558928,10186.357681
1121.049678,-1608.372265,-9497.055282,11488.373325
1121.049970,3752.868619,-6280.310751,11947.908258
1121.050263,6893.023995,-842.480710,11794.729947
1121.050555,4901.705952,2144.496354,11182.016703
1121.050848,153.178311,4595.349330,10722.481770
1121.051141,-2910.387909,5591.008351,9420.466126
1121.051433,-5591.008351,3982.636086,9573.644437
1121.051726,-9190.698660,-2833.798753,10109.768526
1121.052014,-7965.272172,-8577.985416,12254.264880
1121.052314,-689.302399,-8424.807105,12790.388968
1121.052614,8195.039638,-3906.046930,10262.946837
1121.052914,11028.838392,459.534933,9956.590215
1121.053214,7735.504705,3982.636086,9956.590215
1121.053514,3293.333686,7122.791461,10569.303459
1121.053814,-1608.372265,6203.721595,9956.590215
1121.054114,-6816.434839,2297.674665,9573.644437
1121.054413,-10339.535992,-3293.333686,11028.838392
1121.054712,-6663.256528,-5208.062574,11028.838392
1121.055012,2527.442131,-5514.419196,10569.303459
1121.055311,7735.504705,-2680.620442,10875.660081
1121.055610,8041.861327,1378.604799,11794.729947
1121.055909,4518.760174,4442.171019,11488.373325
1121.056209,1838.139732,6356.899906,10262.946837
1121.056508,-3216.744531,4825.116796,10262.946837
1121.056815,-7812.093861,1991.318043,10262.946837
1121.057115,-7965.272172,-2067.907198,10262.946837
1121.057415,-2757.209598,-5054.884263,10109.768526
1121.057715,4059.225241,-4901.705952,11105.427547
1121.058015,9497.055282,-2067.907198,10569.303459
1121.058315,9497.055282,1838.139732,10109.768526
1121.058615,4365.581863,3216.744531,10033.179370
1121.058915,-689.302399,3523.101153,10722.481770
1121.059219,-6510.078217,1991.318043,10416.125148
1121.059519,-8884.342038,-1455.193954,10416.125148
1121.059819,-7965.272172,-4671.938485,9956.590215
1121.060120,-3216.744531,-6893.023995,9497.055282
1121.060420,3293.333686,-6739.845684,9573.644437
1121.060720,5208.062574,-5667.597507,11335.195014
1121.061021,5514.419196,-2067.907198,12101.086569
1121.061321,4518.760174,1684.961421,11028.838392
1121.061623,1072.248177,3216.744531,9803.411904
1121.061920,-3216.744531,2144.496354,9803.411904
1121.062216,-6203.721595,-689.302399,9650.233593
1121.062513,-5591.008351,-4825.116796,9650.233593
1121.062810,-382.945777,-6893.023995,10109.768526
1121.063107,4059.225241,-5054.884263,11182.016703
1121.063403,8348.217949,-382.945777,10569.303459
1121.063700,6280.310751,3063.566220,10262.946837
1121.064017,2833.798753,5131.473418,10875.660081
1121.064316,-4288.992708,3523.101153,11794.729947
1121.064615,-9726.822748,765.891555,12101.086569
1121.064913,-10492.714303,-1761.550576,9803.411904
1121.065212,-7965.272172,-5361.240885,9573.644437
1121.065510,-2450.852976,-8271.628794,10569.303459
1121.065809,4518.760174,-6739.845684,11488.373325
1121.066108,8041.861327,-2680.620442,11488.373325
1121.066407,7582.326394,1684.961421,11182.016703
1121.066708,3752.868619,3982.636086,10569.303459
1121.067009,-1455.193954,4442.171019,10416.125148
1121.067310,-3216.744531,3829.457775,9420.466126
1121.067610,-6050.543284,612.713244,9573.644437
1121.067911,-4288.992708,-2680.620442,9573.644437
1121.068212,1838.139732,-2527.442131,10416.125148
1121.068513,6433.489062,-76.589155,11411.784169
1121.068820,9497.055282,4288.992708,10722.481770
1121.069120,6739.845684,7275.969772,10569.303459
1121.069420,612.713244,8654.574571,10722.481770
1121.069720,-4288.992708,6356.899906,10109.768526
1121.070020,-8424.807105,2144.496354,9650.233593
1121.070321,-10033.179370,-3293.333686,10722.481770
1121.070621,-9497.055282,-10339.535992,11794.729947
1121.070921,-2450.852976,-10645.892614,12560.621502
1121.071166,6127.132440,-7199.380617,10569.303459
1121.071470,9267.287815,-2221.085509,9650.233593
1121.071774,7046.202306,1225.426488,10033.179370
1121.072078,1838.139732,3676.279464,9880.001059
1121.072382,-2450.852976,5131.473418,11028.838392
1121.072686,-6203.721595,3063.566220,9650.233593
1121.072990,-8577.985416,-2067.907198,9573.644437
1121.073294,-3982.636086,-4518.760174,10416.125148
1121.073610,3906.046930,-4518.760174,9726.822748
1121.073909,10109.768526,-2221.085509,9956.590215
1121.074207,11182.016703,1225.426488,9573.644437
1121.074506,5820.775818,2450.852976,10722.481770
1121.074804,-76.589155,1991.318043,11182.016703
1121.075102,-5897.364973,-0.000000,10722.481770
1121.075401,-8731.163727,-2680.620442,10339.535992
1121.075699,-9726.822748,-6893.023995,9880.001059
1121.076016,-7122.791461,-9037.520349,10569.303459
1121.076314,-1148.837332,-9497.055282,11794.729947
1121.076612,4212.403552,-5667.597507,11564.962480
1121.076910,6739.845684,-0.000000,11488.373325
1121.077208,4059.225241,3063.566220,10416.125148
1121.077505,-0.000000,4978.295107,10033.179370
1121.077803,-4135.814397,4595.349330,10875.660081
1121.078101,-5897.364973,2757.209598,10492.714303
1121.078401,-4442.171019,-689.302399,9650.233593
1121.078701,765.891555,-2680.620442,9650.233593
1121.079001,7275.969772,-2833.798753,8807.752882
1121.079301,9803.411904,-1148.837332,9956.590215
1121.079601,8501.396260,1684.961421,11335.195014
1121.079901,3599.690308,3216.744531,11258.605858
1121.080201,-2910.387909,3216.744531,12560.621502
1121.080501,-8731.163727,2297.674665,10722.481770
1121.080791,-11105.427547,306.356622,9650.233593
1121.081093,-10645.892614,-4365.581863,11028.838392
1121.081394,-6356.899906,-7199.380617,11335.195014
1121.081695,2527.442131,-4901.705952,11182.016703
1121.081997,8195.039638,-76.589155,10569.303459
1121.082298,9420.466126,3829.457775,10722.481770
1121.082599,6280.310751,5591.008351,10262.946837
1121.082900,459.534933,5897.364973,10569.303459
1121.083207,-3982.636086,3829.457775,10416.125148
1121.083508,-6663.256528,459.534933,9573.644437
1121.083808,-4978.295107,-2986.977064,8807.752882
1121.084109,153.178311,-5667.597507,9573.644437
1121.084409,4901.705952,-6127.132440,11028.838392
1121.084710,8654.574571,-1761.550576,11335.195014
1121.085011,8501.396260,2450.852976,10416.125148
1121.085311,4059.225241,4135.814397,9420.466126
1121.085594,-2067.907198,4135.814397,10109.768526
1121.085894,-6969.613150,1072.248177,9650.233593
1121.086194,-10186.357681,-2833.798753,9956.590215
1121.086493,-9497.055282,-7199.380617,10109.768526
1121.086793,-3982.636086,-9343.876971,10416.125148
1121.087093,2986.977064,-7812.093861,10875.660081
1121.087392,6893.023995,-3599.690308,10416.125148
1121.087692,6127.132440,-0.000000,10722.481770
1121.087987,919.069866,1378.604799,11641.551636
1121.088288,-2910.387909,1531.783110,10569.303459
1121.088588,-5131.473418,1531.783110,9573.644437
1121.088889,-5897.364973,-1455.193954,9956.590215
1121.089190,-4442.171019,-5973.954129,8960.931193
1121.089491,1378.604799,-5208.062574,9956.590215
1121.089792,8348.217949,-4365.581863,10645.892614
1121.090093,9267.287815,-1914.728887,12101.086569
1121.090404,5514.419196,919.069866,12407.443191
1121.090701,2374.263820,4825.116796,10799.070925
1121.090998,-536.124088,4978.295107,8960.931193
1121.091295,-5591.008351,2910.387909,8960.931193
1121.091591,-9573.644437,-2221.085509,10262.946837
1121.091888,-8271.628794,-5667.597507,11028.838392
1121.092185,-2374.263820,-6586.667373,12101.086569
1121.092481,4059.225241,-5820.775818,11335.195014
1121.092790,6127.132440,-842.480710,11641.551636
1121.093089,4748.527641,2604.031287,11488.373325
1121.093388,1225.426488,4288.992708,11182.016703
1121.093686,-3369.922842,4288.992708,11488.373325
1121.093985,-5744.186662,3676.279464,10262.946837
1121.094283,-7352.558928,1225.426488,9650.233593
1121.094582,-3369.922842,-995.659021,9726.822748
1121.094880,3293.333686,-1302.015643,10262.946837
1121.095187,8960.931193,-689.302399,10186.357681
1121.095487,10875.660081,2604.031287,10722.481770
1121.095787,7275.969772,5437.830040,10569.303459
1121.096086,3752.868619,6663.256528,9650.233593
1121.096386,-2221.085509,4748.527641,10262.946837
1121.096686,-7199.380617,306.356622,9880.001059
1121.096985,-9573.644437,-3446.511997,10569.303459
1121.097285,-7658.915550,-6433.489062,11641.551636
1121.097581,-1914.728887,-7199.380617,10569.303459
1121.097884,4059.225241,-4671.938485,11335.195014
1121.098187,5820.775818,-842.480710,11182.016703
1121.098490,3599.690308,2450.852976,10186.357681
1121.098793,153.178311,3676.279464,9573.644437
1121.099096,-6050.543284,2144.496354,10645.892614
1121.099399,-8731.163727,-1148.837332,10722.481770
1121.099702,-7812.093861,-4059.225241,9956.590215
1121.099996,-1455.193954,-5820.775818,9956.590215
1121.100297,6586.667373,-5973.954129,10262.946837
1121.100597,11641.551636,-1608.372265,9956.590215
1121.100897,12943.567279,2604.031287,9650.233593
1121.101197,8348.217949,3676.279464,9573.644437
1121.101497,1225.426488,3829.457775,10416.125148
1121.101797,-5591.008351,1378.604799,9956.590215
1121.102098,-11564.962480,-2833.798753,10722.481770
1121.102386,-13939.226301,-8118.450483,11182.016703
1121.102686,-9726.822748,-10033.179370,12101.086569
1121.102987,-1608.372265,-8884.342038,11335.195014
1121.103288,5514.419196,-3906.046930,10262.946837
1121.103589,8501.396260,765.891555,10262.946837
1121.103890,5361.240885,2910.387909,10262.946837
1121.104190,1072.248177,3523.101153,10569.303459
1121.104491,-1914.728887,2450.852976,9803.411904
1121.104800,-5284.651729,-76.589155,10033.179370
1121.105096,-5284.651729,-4825.116796,9267.287815
1121.105393,-536.124088,-4825.116796,9803.411904
1121.105689,6739.845684,-3752.868619,9803.411904
1121.105985,9497.055282,-995.659021,10109.768526
1121.106281,6433.489062,2910.387909,11641.551636
1121.106577,2374.263820,6356.899906,11794.729947
1121.106873,-1761.550576,7735.504705,11105.427547
1121.107180,-6050.543284,6203.721595,10033.179370
1121.107482,-10645.892614,1684.961421,10416.125148
1121.107784,-9343.876971,-2986.977064,10416.125148
1121.108087,-3982.636086,-5820.775818,10262.946837
1121.108389,2833.798753,-6586.667373,11641.551636
1121.108691,4212.403552,-6586.667373,13096.745590
1121.108993,6127.132440,-1455.193954,12330.854035
1121.109296,5208.062574,1991.318043,9956.590215
1121.109612,1225.426488,3216.744531,9573.644437
1121.109905,-2604.031287,1991.318043,9803.411904
1121.110199,-4748.527641,919.069866,9420.466126
1121.110493,-1608.372265,-689.302399,8807.752882
1121.110787,2297.674665,-3293.333686,9267.287815
1121.111080,5973.954129,-2986.977064,10952.249236
1121.111374,8501.396260,306.356622,11028.838392
1121.111668,7046.202306,3982.636086,10262.946837
1121.111986,1225.426488,4288.992708,11028.838392
1121.112285,-6050.543284,1991.318043,11182.016703
1121.112583,-9880.001059,-0.000000,11182.016703
1121.112881,-10799.070925,-3140.155375,9956.590215
1121.113179,-8884.342038,-6586.667373,9803.411904
1121.113477,-4595.349330,-8118.450483,10722.481770
1121.113776,3140.155375,-6739.845684,10875.660081
1121.114074,8654.574571,-2986.977064,10569.303459
1121.114387,7122.791461,-536.124088,10416.125148
1121.114685,2833.798753,765.891555,10416.125148
1121.114984,-1148.837332,919.069866,9956.590215
1121.115282,-3063.566220,-1608.372265,9650.233593
1121.115581,-3676.279464,-4212.403552,9114.109504
1121.115879,-3063.566220,-5820.775818,9114.109504
1121.116178,2986.977064,-4365.581863,9573.644437
1121.116476,7735.504705,-2067.907198,10875.660081
1121.116776,9114.109504,1684.961421,11028.838392
1121.117075,4059.225241,5131.473418,11335.195014
1121.117374,-1302.015643,5744.186662,12101.086569
1121.117673,-7965.272172,3829.457775,11641.551636
1121.117973,-11258.605858,1072.248177,11488.373325
1121.118272,-11564.962480,-3140.155375,11641.551636
1121.118571,-8424.807105,-7352.558928,11335.195014
1121.118870,-76.589155,-7352.558928,11335.195014
1121.119177,9420.466126,-3906.046930,10109.768526
1121.119480,12330.854035,306.356622,9037.520349
1121.119782,8960.931193,2910.387909,9803.411904
1121.120085,2527.442131,3676.279464,10569.303459
1121.120388,-2910.387909,3369.922842,10569.303459
1121.120690,-5744.186662,1378.604799,10109.768526
1121.120993,-7965.272172,-1914.728887,10109.768526
1121.121295,-4595.349330,-4059.225241,10416.125148
1121.121569,2297.674665,-2833.798753,10416.125148
1121.121873,8195.039638,612.713244,10339.535992
1121.122177,9650.233593,3829.457775,10262.946837
1121.122480,4059.225241,5744.186662,10952.249236
1121.122784,-995.659021,6356.899906,11182.016703
1121.123088,-6969.613150,4595.349330,11028.838392
1121.123391,-10492.714303,-76.589155,10722.481770
1121.123695,-9497.055282,-3599.690308,10109.768526
1121.123968,-4748.527641,-6433.489062,9956.590215
1121.124270,2144.496354,-7658.915550,9956.590215
1121.124572,8348.217949,-5514.419196,9880.001059
1121.124875,10109.768526,-1608.372265,10262.946837
1121.125177,6739.845684,765.891555,9650.233593
1121.125479,1531.783110,2450.852976,9956.590215
1121.125781,-4748.527641,1684.961421,10875.660081
1121.126083,-7505.737239,-842.480710,9573.644437
1121.126383,-7658.915550,-3293.333686,9420.466126
1121.126682,-3216.744531,-4825.116796,10109.768526
1121.126980,2297.674665,-5054.884263,10416.125148
1121.127279,5361.240885,-2067.907198,11718.140791
1121.127577,6127.132440,1991.318043,12101.086569
1121.127875,3752.868619,3523.101153,10722.481770
1121.128174,-995.659021,3982.636086,10569.303459
1121.128472,-4978.295107,2450.852976,10569.303459
1121.128772,-6816.434839,-1148.837332,9573.644437
1121.129069,-6050.543284,-6280.310751,9726.822748
1121.129367,-995.659021,-9497.055282,9956.590215
1121.129664,4901.705952,-8731.163727,11028.838392
1121.129962,7888.683016,-4365.581863,11488.373325
1121.130259,8195.039638,459.534933,10262.946837
1121.130557,2527.442131,2604.031287,10492.714303
1121.130854,-3982.636086,3676.279464,11335.195014
1121.131184,-8271.628794,3216.744531,11947.908258
1121.131481,-10033.179370,919.069866,10109.768526
1121.131778,-9497.055282,-2680.620442,10722.481770
1121.132075,-2910.387909,-4059.225241,10722.481770
1121.132372,6433.489062,-2680.620442,10416.125148
1121.132669,12330.854035,1072.248177,9956.590215
1121.132966,9497.055282,3216.744531,9956.590215
1121.133263,2986.977064,3829.457775,11794.729947
1121.133571,-995.659021,4288.992708,11794.729947
1121.133871,-3063.566220,2144.496354,8807.752882
1121.134170,-7352.558928,-1608.372265,9573.644437
1121.134470,-8271.628794,-5973.954129,10799.070925
1121.134770,-1914.728887,-5667.597507,10569.303459
1121.135070,5820.775818,-2986.977064,9650.233593
1121.135370,6280.310751,-995.659021,10416.125148
1121.135669,3140.155375,3063.566220,12101.086569
1121.135918,-536.124088,5744.186662,11028.838392
1121.136228,-3982.636086,5897.364973,10416.125148
1121.136537,-9343.876971,1991.318043,12254.264880
1121.136847,-9726.822748,-1455.193954,11718.140791
1121.137157,-3216.744531,-2986.977064,9650.233593
1121.137466,5820.775818,-3752.868619,8041.861327
1121.137776,11335.195014,-2527.442131,9267.287815
1121.138086,13096.745590,919.069866,9573.644437
1121.138358,9114.109504,3369.922842,9956.590215
1121.138661,3293.333686,3829.457775,10416.125148
1121.138964,-5284.651729,1684.961421,10416.125148
1121.139268,-11564.962480,-1608.372265,10875.660081
1121.139571,-13020.156435,-4901.705952,10262.946837
1121.139874,-9880.001059,-7505.737239,10492.714303
1121.140177,-2604.031287,-7046.202306,11182.016703
1121.140480,4518.760174,-4365.581863,10569.303459
1121.140770,8960.931193,-536.124088,10722.481770
1121.141069,7046.202306,2910.387909,10569.303459
1121.141368,1225.426488,3676.279464,10033.179370
1121.141667,-4288.992708,2450.852976,9956.590215
1121.141967,-8118.450483,-1455.193954,10875.660081
1121.142266,-7965.272172,-5667.597507,10033.179370
1121.142565,-3063.566220,-8118.450483,9267.287815
1121.142864,4748.527641,-7965.272172,9420.466126
1121.143150,11182.016703,-4365.581863,9420.466126
1121.143449,12637.210657,-0.000000,10033.179370
1121.143749,8501.396260,3829.457775,10875.660081
1121.144048,1991.318043,5744.186662,10645.892614
1121.144347,-4595.349330,4825.116796,10416.125148
1121.144647,-10186.357681,2144.496354,10416.125148
1121.144946,-12254.264880,-2374.263820,10492.714303
1121.145246,-9880.001059,-7199.380617,11335.195014
1121.145553,-3063.566220,-6893.023995,11641.551636
1121.145853,3140.155375,-5054.884263,11947.908258
1121.146154,5514.419196,-536.124088,11794.729947
1121.146454,4212.403552,2450.852976,11335.195014
1121.146755,1072.248177,5284.651729,10262.946837
1121.147055,-2604.031287,4135.814397,10262.946837
1121.147356,-5591.008351,612.713244,9573.644437
1121.147657,-4288.992708,-2680.620442,9650.233593
1121.147953,1991.318043,-4901.705952,9420.466126
1121.148253,9650.233593,-3906.046930,8424.807105
1121.148554,12024.497413,-1914.728887,10033.179370
1121.148854,11182.016703,2450.852976,11182.016703
1121.149155,6586.667373,5897.364973,10722.481770
1121.149455,-536.124088,6510.078217,10109.768526
1121.149755,-8118.450483,5284.651729,10416.125148
1121.150056,-14475.350389,1378.604799,11794.729947
1121.150350,-15241.241944,-2527.442131,11794.729947
1121.150651,-9726.822748,-5054.884263,11947.908258
1121.150952,-382.945777,-4365.581863,11488.373325
1121.151253,7122.791461,-1761.550576,10875.660081
1121.151554,10262.946837,1531.783110,9956.590215
1121.151855,5514.419196,3063.566220,10416.125148
1121.152156,1225.426488,1684.961421,10186.357681
1121.152457,-2604.031287,612.713244,10109.768526
1121.152768,-5437.830040,-3599.690308,8960.931193
1121.153066,-4978.295107,-6127.132440,9114.109504
1121.153363,-2067.907198,-8884.342038,10109.768526
1121.153660,6739.845684,-5820.775818,9650.233593
1121.153958,12177.675724,-1302.015643,9573.644437
1121.154255,9114.109504,3829.457775,9956.590215
1121.154553,3293.333686,5897.364973,10262.946837
1121.154850,-3216.744531,5131.473418,10569.303459
1121.155159,-9880.001059,1531.783110,11335.195014
1121.155459,-13020.156435,-2680.620442,12101.086569
1121.155758,-11718.140791,-6127.132440,11641.551636
1121.156057,-3216.744531,-7658.915550,9880.001059
1121.156357,5361.240885,-6127.132440,10109.768526
1121.156656,8807.752882,-3752.868619,11488.373325
1121.156955,7429.148083,-536.124088,10339.535992
1121.157255,3293.333686,1072.248177,10416.125148
1121.157562,-2374.263820,1684.961421,11182.016703
1121.157862,-6050.543284,-76.589155,10416.125148
1121.158161,-7658.915550,-3293.333686,10569.303459
1121.158461,-5437.830040,-5667.597507,10416.125148
1121.158761,2833.798753,-4518.760174,9650.233593
1121.159060,9420.466126,-1302.015643,9573.644437
1121.159360,12790.388968,3216.744531,9650.233593
1121.159659,8501.396260,5744.186662,10109.768526
1121.159956,1225.426488,7122.791461,11488.373325
1121.160253,-4825.116796,5284.651729,11488.373325
1121.160551,-10492.714303,1225.426488,11564.962480
1121.160848,-14475.350389,-3446.511997,12713.799813
1121.161146,-10339.535992,-5361.240885,10722.481770
1121.161443,-1302.015643,-6433.489062,10569.303459
1121.161740,7122.791461,-4825.116796,9573.644437
1121.162038,9497.055282,-842.480710,10109.768526
1121.162352,8501.396260,3523.101153,10569.303459
1121.162651,5361.240885,5131.473418,9650.233593
1121.162950,1225.426488,4825.116796,9420.466126
1121.163248,-4595.349330,2450.852976,9956.590215
1121.163547,-6356.899906,-382.945777,9114.109504
1121.163846,-2757.209598,-2680.620442,8960.931193
1121.164144,1378.604799,-3446.511997,10262.946837
1121.164443,4901.705952,-1761.550576,10262.946837
1121.164755,4901.705952,306.356622,11028.838392
1121.165054,3293.333686,3523.101153,11641.551636
1121.165353,-995.659021,4595.349330,10569.303459
1121.165652,-5897.364973,2450.852976,9956.590215
1121.165951,-9497.055282,-1455.193954,10492.714303
1121.166250,-10033.179370,-6433.489062,11028.838392
1121.166549,-4825.116796,-8577.985416,9803.411904
1121.166848,2144.496354,-9343.876971,9420.466126
1121.167148,7888.683016,-7352.558928,10109.768526
1121.167447,9956.590215,-3140.155375,11028.838392
1121.167746,6893.023995,153.178311,10569.303459
1121.168046,3752.868619,4135.814397,9956.590215
1121.168345,-2067.907198,3829.457775,10262.946837
1121.168644,-8424.807105,459.534933,10262.946837
1121.168943,-9343.876971,-1608.372265,10033.179370
1121.169243,-6816.434839,-4518.760174,11718.140791
1121.169550,1531.783110,-4901.705952,10186.357681
1121.169849,8041.861327,-2067.907198,10109.768526
1121.170148,9956.590215,1991.318043,10492.714303
1121.170447,7275.969772,3523.101153,10569.303459
1121.170747,1225.426488,3523.101153,11794.729947
1121.171046,-4748.527641,1225.426488,11182.016703
1121.171345,-10339.535992,-2067.907198,10875.660081
1121.171644,-10799.070925,-5054.884263,10416.125148
1121.171965,-8424.807105,-8118.450483,10569.303459
1121.172262,-995.659021,-7352.558928,11641.551636
1121.172559,6739.845684,-3446.511997,11488.373325
1121.172856,12024.497413,4442.171019,9420.466126
1121.173153,9497.055282,7735.504705,9267.287815
1121.173450,1225.426488,7582.326394,10109.768526
1121.173747,-5284.651729,5284.651729,11564.962480
1121.174044,-8424.807105,1684.961421,11028.838392
1121.174363,-9037.520349,-2221.085509,10416.125148
1121.174661,-4135.814397,-4825.116796,10262.946837
1121.174959,4518.760174,-4671.938485,9573.644437
1121.175257,9803.411904,-1302.015643,10109.768526
1121.175556,10875.660081,1531.783110,10339.535992
1121.175854,5514.419196,4135.814397,10722.481770
1121.176152,153.178311,5284.651729,10875.660081
1121.176450,-5284.651729,4595.349330,10109.768526
1121.176763,-10645.892614,-382.945777,10722.481770
1121.177059,-10645.892614,-3599.690308,11182.016703
1121.177355,-5897.364973,-6280.310751,10569.303459
1121.177651,2833.798753,-5667.597507,10569.303459
1121.177947,8960.931193,-2374.263820,10569.303459
1121.178243,9497.055282,306.356622,10109.768526
1121.178539,4518.760174,2604.031287,10722.481770
1121.178835,-1148.837332,3063.566220,10799.070925
1121.179135,-6663.256528,765.891555,10262.946837
1121.179436,-10186.357681,-2374.263820,10569.303459
1121.179736,-9497.055282,-5361.240885,10109.768526
1121.180037,-2757.209598,-7199.380617,10109.768526
1121.180338,5820.775818,-5514.419196,9573.644437
1121.180639,12484.032346,-1761.550576,9267.287815
1121.180939,11641.551636,1838.139732,9420.466126
1121.181240,5667.597507,2144.496354,10722.481770
1121.181547,-842.480710,1684.961421,11028.838392
1121.181844,-6969.613150,306.356622,10262.946837
1121.182141,-10186.357681,-2833.798753,10569.303459
1121.182438,-9343.876971,-6586.667373,9803.411904
1121.182735,-4135.814397,-8577.985416,9956.590215
1121.183031,3293.333686,-7505.737239,11335.195014
1121.183328,7122.791461,-3752.868619,11182.016703
1121.183625,6893.023995,765.891555,11182.016703
1121.183939,1378.604799,2604.031287,10799.070925
1121.184242,-3216.744531,4595.349330,11335.195014
1121.184545,-7122.791461,3216.744531,11335.195014
1121.184848,-7658.915550,765.891555,9880.001059
1121.185150,-4442.171019,-1608.372265,9420.466126
1121.185453,2297.674665,-4212.403552,9956.590215
1121.185756,9114.109504,-4212.403552,10492.714303
1121.186059,12637.210657,-229.767466,10416.125148
1121.186377,10569.303459,4135.814397,9956.590215
1121.186673,4212.403552,6356.899906,10262.946837
1121.186969,-3523.101153,5897.364973,10722.481770
1121.187265,-10033.179370,3523.101153,11488.373325
1121.187562,-13020.156435,-689.302399,11028.838392
1121.187858,-11105.427547,-4825.116796,11105.427547
1121.188154,-3829.457775,-6433.489062,10952.249236
1121.188450,5973.954129,-4825.116796,10262.946837
1121.188715,9650.233593,-1148.837332,10569.303459
1121.189018,7735.504705,2144.496354,10875.660081
1121.189322,919.069866,2910.387909,11641.551636
1121.189625,-3063.566220,3982.636086,10569.303459
1121.189928,-6356.899906,2297.674665,9726.822748
1121.190231,-7505.737239,-1455.193954,9497.055282
1121.190535,-3982.636086,-4059.225241,9956.590215
1121.190838,3446.511997,-5054.884263,10109.768526
1121.191138,12177.675724,-2067.907198,9190.698660
1121.191434,16926.203365,1991.318043,8041.861327
1121.191731,10569.303459,3829.457775,8960.931193
1121.192028,153.178311,2604.031287,10109.768526
1121.192325,-7122.791461,1531.783110,11641.551636
1121.192621,-12254.264880,-1761.550576,11028.838392
1121.192918,-13479.691368,-6739.845684,11028.838392
1121.193215,-10186.357681,-8731.163727,9956.590215
1121.193545,-2067.907198,-7812.093861,10952.249236
1121.193841,6586.667373,-5054.884263,10875.660081
1121.194136,7582.326394,-2067.907198,10875.660081
1121.194432,4212.403552,1531.783110,12713.799813
1121.194727,-1302.015643,3676.279464,10799.070925
1121.195023,-4135.814397,4288.992708,10109.768526
1121.195318,-6969.613150,1684.961421,10109.768526
1121.195614,-7505.737239,-2680.620442,11182.016703
1121.195921,-1761.550576,-6739.845684,10569.303459
1121.196222,8195.039638,-5514.419196,8960.931193
1121.196524,16083.722655,-2527.442131,9267.287815
1121.196825,14398.761234,1684.961421,10109.768526
1121.197126,8654.574571,4288.992708,10109.768526
1121.197428,1225.426488,5744.186662,10416.125148
1121.197729,-9573.644437,3982.636086,11258.605858
1121.198030,-16849.614210,-1148.837332,12254.264880
1121.198314,-17002.792521,-4059.225241,12254.264880
1121.198613,-10645.892614,-6586.667373,12101.086569
1121.198913,306.356622,-6280.310751,10569.303459
1121.199213,7735.504705,-3599.690308,10492.714303
1121.199512,10416.125148,612.713244,10262.946837
1121.199812,6280.310751,2757.209598,11182.016703
1121.200112,765.891555,4135.814397,11182.016703
1121.200411,-3063.566220,4135.814397,9573.644437
1121.200739,-5591.008351,919.069866,9650.233593
1121.201035,-5131.473418,-3293.333686,9573.644437
1121.201331,1378.604799,-4671.938485,9420.466126
1121.201627,7735.504705,-3752.868619,9573.644437
1121.201924,10722.481770,-382.945777,9573.644437
1121.202220,8041.861327,3063.566220,11335.195014
1121.202516,2833.798753,4825.116796,11028.838392
1121.202812,-3676.279464,5284.651729,10722.481770
1121.203124,-9343.876971,3676.279464,11028.838392
1121.203424,-11718.140791,-229.767466,11028.838392
1121.203724,-8577.985416,-3752.868619,10262.946837
1121.204024,-842.480710,-5973.954129,9650.233593
1121.204324,4518.760174,-7352.558928,10416.125148
1121.204624,7735.504705,-5208.062574,11028.838392
1121.204924,7046.202306,-842.480710,11182.016703
1121.205224,2986.977064,1838.139732,10109.768526
1121.205510,-2067.907198,2757.209598,10186.357681
1121.205812,-9343.876971,919.069866,11564.962480
1121.206114,-9497.055282,-1761.550576,10339.535992
1121.206415,-5897.364973,-2986.977064,9803.411904
1121.206717,459.534933,-5208.062574,9650.233593
1121.207019,8960.931193,-3906.046930,9956.590215
1121.207321,13403.102212,612.713244,9650.233593
1121.207623,12024.497413,4748.527641,9267.287815
1121.207930,4748.527641,3829.457775,9956.590215
1121.208230,-3982.636086,2604.031287,12254.264880
1121.208529,-10033.179370,-1302.015643,11258.605858
1121.208829,-11947.908258,-4671.938485,11488.373325
1121.209129,-9880.001059,-8271.628794,10416.125148
1121.209429,-2450.852976,-9343.876971,9573.644437
1121.209728,5820.775818,-7352.558928,10109.768526
1121.210028,8960.931193,-3446.511997,11028.838392
1121.210325,6586.667373,612.713244,11488.373325
1121.210624,612.713244,3216.744531,12101.086569
1121.210922,-3523.101153,5131.473418,11028.838392
1121.211221,-4978.295107,3982.636086,10186.357681
1121.211520,-6663.256528,1378.604799,9114.109504
1121.211819,-4442.171019,-1455.193954,9573.644437
1121.212118,1072.248177,-3140.155375,10109.768526
1121.212417,8195.039638,-2221.085509,10492.714303
1121.212711,10722.481770,919.069866,10416.125148
1121.213012,6586.667373,3063.566220,10875.660081
1121.213312,-0.000000,4288.992708,11947.908258
1121.213612,-4442.171019,4595.349330,11028.838392
1121.213912,-9497.055282,1072.248177,11105.427547
1121.214212,-10952.249236,-2221.085509,11488.373325
1121.214512,-6510.078217,-4518.760174,9726.822748
1121.214812,612.713244,-6280.310751,9803.411904
1121.215101,8041.861327,-4518.760174,9956.590215
1121.215401,7735.504705,-1608.372265,12101.086569
1121.215702,5667.597507,2757.209598,11641.551636
1121.216003,1072.248177,5131.473418,10722.481770
1121.216304,-3216.744531,5284.651729,9956.590215
1121.216605,-6969.613150,2910.387909,10416.125148
1121.216906,-7199.380617,153.178311,9650.233593
1121.217206,-2374.263820,-2067.907198,9037.520349
1121.217506,4365.581863,-3140.155375,9650.233593
1121.217806,8807.752882,-3446.511997,9956.590215
1121.218106,8501.396260,-1302.015643,11335.195014
1121.218406,6127.132440,1838.139732,10109.768526
1121.218706,919.069866,4288.992708,10186.357681
1121.219006,-5591.008351,1531.783110,9956.590215
1121.219306,-10492.714303,-1455.193954,10722.481770
1121.219606,-10186.357681,-4518.760174,10952.249236
1121.219913,-5437.830040,-6739.845684,8960.931193
1121.220211,1838.139732,-7046.202306,9420.466126
1121.220509,6586.667373,-4365.581863,10722.481770
1121.220808,7582.326394,-1455.193954,10109.768526
1121.221106,5208.062574,612.713244,10416.125148
1121.221404,-1608.372265,2450.852976,11641.551636
1121.221702,-7812.093861,765.891555,11794.729947
1121.222000,-10186.357681,-1608.372265,11411.784169
1121.222316,-8118.450483,-2986.977064,9956.590215
1121.222615,-2374.263820,-5208.062574,9956.590215
1121.222913,4518.760174,-5361.240885,9956.590215
1121.223212,12637.210657,-536.124088,9420.466126
1121.223510,15164.652789,3676.279464,8807.752882
1121.223808,8195.039638,3676.279464,10416.125148
1121.224107,-995.659021,2910.387909,12254.264880
1121.224405,-6969.613150,1531.783110,12254.264880
1121.224720,-9573.644437,-382.945777,10262.946837
1121.225019,-10339.535992,-3752.868619,10492.714303
1121.225318,-6663.256528,-6280.310751,10875.660081
1121.225617,1072.248177,-4825.116796,10722.481770
1121.225916,8041.861327,-1455.193954,10569.303459
1121.226215,6739.845684,1378.604799,11182.016703
1121.226514,1225.426488,3063.566220,12407.443191
1121.226813,-2910.387909,6050.543284,11182.016703
1121.227101,-6203.721595,4135.814397,10109.768526
1121.227401,-9497.055282,306.356622,10416.125148
1121.227701,-7965.272172,-2221.085509,10875.660081
1121.228001,459.534933,-2221.085509,9803.411904
1121.228301,11028.838392,-1761.550576,7429.148083
1121.228601,14705.117856,-536.124088,8654.574571
1121.228901,12330.854035,2297.674665,10186.357681
1121.229201,6586.667373,4595.349330,10416.125148
1121.229500,612.713244,5744.186662,9956.590215
1121.229800,-6969.613150,2757.209598,10569.303459
1121.230099,-12866.978124,-1148.837332,11641.551636
1121.230398,-12713.799813,-3906.046930,11335.195014
1121.230697,-6663.256528,-4671.938485,10109.768526
1121.230997,306.356622,-5208.062574,10569.303459
1121.231296,3293.333686,-3293.333686,12254.264880
1121.231595,4748.527641,919.069866,11335.195014
1121.231902,3293.333686,3216.744531,11028.838392
1121.232205,-1148.837332,1378.604799,9956.590215
1121.232507,-4978.295107,153.178311,10262.946837
1121.232810,-5437.830040,-2986.977064,9650.233593
1121.233112,-1455.193954,-4901.705952,8424.807105
1121.233415,5667.597507,-7046.202306,8041.861327
1121.233717,10722.481770,-7352.558928,9114.109504
1121.234020,13556.280523,-1761.550576,10109.768526
1121.234294,10875.660081,1684.961421,9956.590215
1121.234598,1991.318043,2450.852976,10875.660081
1121.234902,-7658.915550,3063.566220,12943.567279
1121.235205,-14628.528700,1684.961421,12790.388968
1121.235509,-15394.420255,306.356622,11182.016703
1121.235813,-12713.799813,-3293.333686,10569.303459
1121.236116,-6663.256528,-4671.938485,11488.373325
1121.236420,1684.961421,-5514.419196,11488.373325
1121.236693,9497.055282,-2986.977064,9880.001059
1121.236993,10569.303459,306.356622,10109.768526
1121.237293,5361.240885,459.534933,10569.303459
1121.237593,1225.426488,765.891555,9956.590215
1121.237893,-229.767466,919.069866,9114.109504
1121.238193,-3829.457775,-2986.977064,9956.590215
1121.238493,-5284.651729,-6280.310751,9956.590215
1121.238793,1225.426488,-5667.597507,9573.644437
1121.239111,8960.931193,-2374.263820,9650.233593
1121.239409,11871.319102,1531.783110,9573.644437
1121.239708,5514.419196,5131.473418,10875.660081
1121.240007,-1302.015643,7735.504705,12407.443191
1121.240305,-7199.380617,6203.721595,11641.551636
1121.240604,-14475.350389,3369.922842,13403.102212
1121.240903,-15853.955188,-536.124088,12713.799813
1121.241201,-11411.784169,-2221.085509,10569.303459
1121.241501,-1302.015643,-4365.581863,9956.590215
1121.241798,9420.466126,-4059.225241,8731.163727
1121.242096,12790.388968,-1914.728887,9956.590215
1121.242393,11488.373325,459.534933,10722.481770
1121.242690,5820.775818,612.713244,9650.233593
1121.242988,153.178311,612.713244,10416.125148
1121.243285,-5131.473418,-536.124088,9956.590215
1121.243583,-6203.721595,-1455.193954,9114.109504
1121.243890,-3216.744531,-3446.511997,9573.644437
1121.244191,3599.690308,-3446.511997,9803.411904
1121.244493,9420.466126,153.178311,10569.303459
1121.244795,10722.481770,4442.171019,9956.590215
1121.245097,4518.760174,5437.830040,11335.195014
1121.245398,-3523.101153,6510.078217,12254.264880
1121.245700,-11411.784169,4442.171019,12407.443191
1121.246002,-15853.955188,765.891555,11947.908258
1121.246316,-16466.668432,-4901.705952,11028.838392
1121.246616,-10339.535992,-7352.558928,10722.481770
1121.246916,1378.604799,-8424.807105,9650.233593
1121.247217,11641.551636,-7812.093861,8807.752882
1121.247517,14858.296167,-3446.511997,8960.931193
1121.247817,11488.373325,-1302.015643,10262.946837
1121.248118,5973.954129,765.891555,9420.466126
1121.248418,-689.302399,612.713244,9267.287815
1121.248691,-6663.256528,-229.767466,9956.590215
1121.248994,-10645.892614,-4365.581863,10416.125148
1121.249296,-4748.527641,-4671.938485,10109.768526
1121.249599,2986.977064,-4901.705952,9803.411904
1121.249901,6893.023995,-1761.550576,11335.195014
1121.250204,7582.326394,2450.852976,11641.551636
1121.250506,4212.403552,6203.721595,12101.086569
1121.250809,-2067.907198,6356.899906,11947.908258
1121.251081,-9726.822748,4748.527641,11488.373325
1121.251382,-12407.443191,2144.496354,11411.784169
1121.251683,-9343.876971,-2067.907198,9803.411904
1121.251983,-3063.566220,-6739.845684,9650.233593
1121.252284,4748.527641,-9037.520349,11028.838392
1121.252585,12024.497413,-5973.954129,9650.233593
1121.252886,14015.815456,-1914.728887,9114.109504
1121.253187,6739.845684,-536.124088,11028.838392
1121.253487,-1608.372265,1072.248177,11182.016703
1121.253786,-7122.791461,2604.031287,11028.838392
1121.254085,-9190.698660,1684.961421,10109.768526
1121.254384,-9497.055282,-536.124088,9650.233593
1121.254684,-4595.349330,-2527.442131,11182.016703
1121.254983,4748.527641,-689.302399,10339.535992
1121.255282,10875.660081,1378.604799,9497.055282
1121.255581,9956.590215,3982.636086,10875.660081
1121.255895,2986.977064,5284.651729,11411.784169
1121.256194,-3063.566220,5284.651729,11488.373325
1121.256492,-6816.434839,3369.922842,10492.714303
1121.256791,-9726.822748,-995.659021,10875.660081
1121.257090,-7658.915550,-5208.062574,9880.001059
1121.257388,1072.248177,-7046.202306,9267.287815
1121.257687,8654.574571,-7352.558928,8960.931193
1121.257986,10875.660081,-5820.775818,9956.590215
1121.258293,7582.326394,-2067.907198,11028.838392
1121.258590,1838.139732,612.713244,10262.946837
1121.258887,-3063.566220,2604.031287,10262.946837
1121.259185,-8577.985416,1531.783110,10875.660081
1121.259482,-10799.070925,-842.480710,10262.946837
1121.259779,-8271.628794,-3140.155375,9880.001059
1121.260076,-995.659021,-4825.116796,9880.001059
1121.260373,6280.310751,-4365.581863,10722.481770
1121.260670,9497.055282,-1148.837332,11028.838392
1121.260970,7122.791461,2144.496354,10875.660081
1121.261271,1225.426488,2910.387909,11028.838392
1121.261571,-3523.101153,2450.852976,11182.016703
1121.261871,-6969.613150,-382.945777,11258.605858
1121.262172,-6816.434839,-2374.263820,9956.590215
1121.262472,-3369.922842,-5208.062574,8960.931193
1121.262772,1991.318043,-7965.272172,8960.931193
1121.263067,7735.504705,-7046.202306,9650.233593
1121.263368,8195.039638,-3752.868619,11488.373325
1121.263669,4518.760174,-382.945777,11335.195014
1121.263970,-2067.907198,3369.922842,12101.086569
1121.264271,-7122.791461,4825.116796,12713.799813
1121.264571,-10033.179370,3369.922842,11641.551636
1121.264872,-11105.427547,-536.124088,10569.303459
1121.265173,-5591.008351,-2067.907198,9880.001059
1121.265485,3599.690308,-2833.798753,9803.411904
1121.265782,10722.481770,-1761.550576,9190.698660
1121.266080,13096.745590,919.069866,9803.411904
1121.266377,8195.039638,3369.922842,10875.660081
1121.266675,1225.426488,4135.814397,11947.908258
1121.266972,-3523.101153,4442.171019,11028.838392
1121.267270,-7505.737239,2910.387909,10416.125148
1121.267567,-9573.644437,-1302.015643,10186.357681
1121.267876,-6969.613150,-4671.938485,9573.644437
1121.268175,1225.426488,-5973.954129,9956.590215
1121.268473,7275.969772,-4365.581863,11182.016703
1121.268772,7122.791461,-995.659021,11335.195014
1121.269070,3906.046930,2604.031287,11794.729947
1121.269369,-1455.193954,4595.349330,10569.303459
1121.269667,-6203.721595,4442.171019,10416.125148
1121.269966,-8424.807105,2604.031287,10952.249236
1121.270273,-6663.256528,-229.767466,10262.946837
1121.270573,306.356622,-3446.511997,8654.574571
1121.270872,8041.861327,-4212.403552,9114.109504
1121.271172,12484.032346,-2221.085509,9880.001059
1121.271472,12024.497413,153.178311,9267.287815
1121.271771,4748.527641,765.891555,10799.070925
1121.272071,-4135.814397,1378.604799,12790.388968
1121.272371,-9573.644437,1225.426488,11335.195014
1121.272667,-11411.784169,-995.659021,10875.660081
1121.272970,-9880.001059,-3906.046930,9956.590215
1121.273273,-2604.031287,-5208.062574,9497.055282
1121.273576,4518.760174,-4212.403552,9114.109504
1121.273879,10109.768526,-2067.907198,9650.233593
1121.274182,7275.969772,-1148.837332,12254.264880
1121.274484,306.356622,612.713244,12407.443191
1121.274787,-3216.744531,3369.922842,10722.481770
1121.275082,-8731.163727,919.069866,10109.768526
1121.275379,-11258.605858,-3140.155375,11028.838392
1121.275676,-8577.985416,-5667.597507,11641.551636
1121.275973,919.069866,-5973.954129,9573.644437
1121.276269,12177.675724,-5208.062574,7735.504705
1121.276566,16236.900966,-2067.907198,8654.574571
1121.276863,13096.745590,1684.961421,10109.768526
1121.277160,6739.845684,3523.101153,10339.535992
1121.277472,-2221.085509,4442.171019,11028.838392
1121.277771,-9190.698660,2757.209598,11182.016703
1121.278070,-12407.443191,-76.589155,10416.125148
1121.278369,-10799.070925,-1608.372265,10262.946837
1121.278668,-4825.116796,-5208.062574,10722.481770
1121.278967,-382.945777,-6433.489062,12560.621502
1121.279266,4748.527641,-3599.690308,12101.086569
1121.279565,6739.845684,919.069866,10875.660081
1121.279865,1378.604799,1838.139732,11335.195014
1121.280165,-3369.922842,2757.209598,11105.427547
1121.280465,-5284.651729,2757.209598,9956.590215
1121.280765,-4288.992708,153.178311,8731.163727
1121.281065,-2910.387909,-3906.046930,9267.287815
1121.281365,2527.442131,-5820.775818,10416.125148
1121.281665,8041.861327,-5054.884263,10569.303459
1121.281965,11871.319102,-689.302399,9726.822748
1121.282272,8654.574571,3676.279464,9956.590215
1121.282573,2144.496354,5437.830040,10722.481770
1121.282873,-3369.922842,6969.613150,11335.195014
1121.283174,-8424.807105,4442.171019,10875.660081
1121.283475,-9573.644437,153.178311,10875.660081
1121.283776,-7199.380617,-3140.155375,11258.605858
1121.284076,765.891555,-4365.581863,9650.233593
1121.284377,8807.752882,-4365.581863,9114.109504
1121.284693,7275.969772,-2374.263820,11182.016703
1121.284987,4212.403552,-842.480710,11794.729947
1121.285281,-995.659021,612.713244,10952.249236
1121.285575,-5131.473418,765.891555,10569.303459
1121.285868,-10033.179370,-2067.907198,10492.714303
1121.286162,-10339.535992,-4365.581863,10569.303459
1121.286456,-4748.527641,-4901.705952,9803.411904
1121.286749,3906.046930,-5208.062574,8731.163727
1121.287068,8807.752882,-2680.620442,9267.287815
1121.287366,11488.373325,1684.961421,9420.466126
1121.287664,9650.233593,5284.651729,9267.287815
1121.287963,5054.884263,6050.543284,9573.644437
1121.288261,-3982.636086,3829.457775,9956.590215
1121.288559,-9880.001059,-536.124088,11335.195014
1121.288857,-10033.179370,-4365.581863,11641.551636
1121.289155,-5744.186662,-6739.845684,10799.070925
1121.289468,-382.945777,-8884.342038,10186.357681
1121.289768,4518.760174,-5208.062574,11028.838392
1121.290067,6280.310751,-1914.728887,10875.660081
1121.290366,4365.581863,1531.783110,10875.660081
1121.290666,-3829.457775,2910.387909,12713.799813
1121.290965,-7352.558928,3216.744531,11947.908258
1121.291264,-8271.628794,1225.426488,11182.016703
1121.291564,-5131.473418,-1608.372265,9956.590215
1121.291863,-76.589155,-4671.938485,9573.644437
1121.292161,7275.969772,-3599.690308,8424.807105
1121.292458,12943.567279,-689.302399,8348.217949
1121.292756,11871.319102,1225.426488,10416.125148
1121.293053,5820.775818,2604.031287,11488.373325
1121.293351,-1914.728887,4288.992708,11335.195014
1121.293648,-7965.272172,1991.318043,10262.946837
1121.293945,-11871.319102,-1761.550576,11335.195014
1121.294252,-11871.319102,-5514.419196,12101.086569
1121.294553,-6356.899906,-6586.667373,10416.125148
1121.294854,2144.496354,-6433.489062,9956.590215
1121.295155,8501.396260,-3906.046930,9956.590215
1121.295456,9420.466126,-229.767466,10875.660081
1121.295757,6586.667373,3829.457775,11335.195014
1121.296058,1225.426488,5897.364973,10109.768526
1121.296359,-3369.922842,5284.651729,10416.125148
1121.296673,-7505.737239,1991.318043,10952.249236
1121.296973,-8118.450483,-842.480710,10569.303459
1121.297272,-1761.550576,-2680.620442,9803.411904
1121.297572,4671.938485,-3293.333686,8807.752882
1121.297871,9803.411904,-689.302399,9267.287815
1121.298171,10416.125148,1838.139732,9956.590215
1121.298470,5973.954129,3216.744531,10262.946837
1121.298770,-1914.728887,1838.139732,11794.729947
1121.299088,-8118.450483,-229.767466,11641.551636
1121.299384,-11718.140791,-2986.977064,11488.373325
1121.299680,-8731.163727,-4825.116796,9420.466126
1121.299976,-3369.922842,-7199.380617,9420.466126
1121.300272,3140.155375,-7658.915550,10416.125148
1121.300568,9267.287815,-3906.046930,10109.768526
1121.300864,8041.861327,-0.000000,10262.946837
1121.301161,3906.046930,2604.031287,10952.249236
1121.301478,-2910.387909,3829.457775,11335.195014
1121.301772,-8271.628794,3829.457775,11182.016703
1121.302067,-11105.427547,459.534933,10722.481770
1121.302361,-9343.876971,-1914.728887,10109.768526
1121.302656,-2450.852976,-4825.116796,10109.768526
1121.302950,7735.504705,-4901.705952,9650.233593
1121.303245,13403.102212,-2527.442131,9114.109504
1121.303539,15011.474478,2144.496354,9420.466126
1121.303839,8041.861327,2450.852976,10109.768526
1121.304139,-1148.837332,3676.279464,11335.195014
1121.304439,-6663.256528,2297.674665,10722.481770
1121.304739,-11564.962480,-2067.907198,11028.838392
1121.305039,-11105.427547,-5973.954129,11028.838392
1121.305339,-5437.830040,-7965.272172,10722.481770
1121.305639,3140.155375,-6280.310751,10416.125148
1121.305939,9267.287815,-1302.015643,9803.411904
1121.306269,8654.574571,1838.139732,9956.590215
1121.306565,1838.139732,3063.566220,11794.729947
1121.306861,-4135.814397,4288.992708,11794.729947
1121.307156,-8884.342038,3982.636086,11794.729947
1121.307452,-11411.784169,765.891555,11641.551636
1121.307747,-9037.520349,-2221.085509,11028.838392
1121.308043,1225.426488,-3599.690308,9420.466126
1121.308338,9956.590215,-3446.511997,8807.752882
1121.308645,13709.458834,-1302.015643,9650.233593
1121.308947,10722.481770,1378.604799,10722.481770
1121.309248,4671.938485,2604.031287,11335.195014
1121.309549,-2450.852976,2604.031287,11488.373325
1121.309851,-7505.737239,2450.852976,9956.590215
1121.310152,-10339.535992,153.178311,10645.892614
1121.310453,-7122.791461,-1455.193954,9573.644437
1121.310755,-0.000000,-3446.511997,9956.590215
1121.311037,5514.419196,-4671.938485,11028.838392
1121.311342,8501.396260,-1914.728887,10109.768526
1121.311648,6739.845684,1072.248177,11105.427547
1121.311953,1072.248177,1838.139732,10569.303459
1121.312259,-4748.527641,1838.139732,11335.195014
1121.312564,-8118.450483,1072.248177,11488.373325
1121.312870,-7352.558928,-689.302399,9956.590215
1121.313175,-4442.171019,-2986.977064,9114.109504
1121.313457,1378.604799,-6586.667373,9573.644437
1121.313753,7735.504705,-5208.062574,9803.411904
1121.314049,11028.838392,-2527.442131,9573.644437
1121.314346,7275.969772,765.891555,10109.768526
1121.314642,1838.139732,2604.031287,10109.768526
1121.314938,-3369.922842,3063.566220,10875.660081
1121.315234,-9726.822748,306.356622,11028.838392
1121.315531,-9726.822748,-1148.837332,10875.660081
1121.315842,-6816.434839,-2986.977064,10109.768526
1121.316141,-1302.015643,-5667.597507,9420.466126
1121.316441,4901.705952,-5667.597507,10186.357681
1121.316740,7122.791461,-2221.085509,11641.551636
1121.317039,6893.023995,306.356622,11182.016703
1121.317338,612.713244,2450.852976,10875.660081
1121.317637,-4595.349330,1991.318043,11411.784169
1121.317936,-7352.558928,-536.124088,11488.373325
1121.318245,-6510.078217,-2680.620442,9956.590215
1121.318544,-2067.907198,-4212.403552,9803.411904
1121.318842,4748.527641,-6127.132440,8501.396260
1121.319141,11182.016703,-3599.690308,8960.931193
1121.319439,12024.497413,-382.945777,9573.644437
1121.319738,6586.667373,612.713244,10875.660081
1121.320036,-2757.209598,1378.604799,13249.923901
1121.320335,-8424.807105,2144.496354,12560.621502
1121.320642,-11105.427547,1378.604799,10416.125148
1121.320942,-11564.962480,-1608.372265,10722.481770
1121.321241,-7352.558928,-3752.868619,10416.125148
1121.321541,1378.604799,-3752.868619,9956.590215
1121.321841,9497.055282,-2986.977064,9956.590215
1121.322141,10569.303459,-229.767466,10569.303459
1121.322440,5208.062574,919.069866,12254.264880
1121.322740,-689.302399,2757.209598,11641.551636
1121.323037,-5437.830040,3523.101153,10722.481770
1121.323336,-8731.163727,2144.496354,10722.481770
1121.323636,-8731.163727,-0.000000,10569.303459
1121.323935,-2450.852976,-689.302399,9573.644437
1121.324235,7046.202306,-1302.015643,8731.163727
1121.324535,13096.745590,306.356622,9267.287815
1121.324834,14015.815456,3063.566220,9573.644437
1121.325134,9267.287815,4595.349330,10109.768526
1121.325429,1531.783110,5591.008351,10033.179370
1121.325728,-6356.899906,3982.636086,10875.660081
1121.326028,-12254.264880,-229.767466,11335.195014
1121.326327,-12254.264880,-3140.155375,10033.179370
1121.326627,-7199.380617,-5973.954129,10262.946837
1121.326927,-689.302399,-7352.558928,9880.001059
1121.327226,5208.062574,-6127.132440,11488.373325
1121.327526,7582.326394,-1608.372265,11947.908258
1121.327838,5208.062574,1072.248177,10109.768526
1121.328138,-689.302399,3523.101153,10033.179370
1121.328439,-7505.737239,1684.961421,10569.303459
1121.328740,-11105.427547,-1455.193954,12101.086569
1121.329041,-7965.272172,-2680.620442,10109.768526
1121.329341,612.713244,-4059.225241,8654.574571
1121.329642,8807.752882,-5514.419196,8731.163727
1121.329943,14245.582923,-2067.907198,8884.342038
1121.330252,14015.815456,2450.852976,9956.590215
1121.330547,6586.667373,3063.566220,9956.590215
1121.330843,-3982.636086,3063.566220,12101.086569
1121.331138,-11718.140791,765.891555,11028.838392
1121.331433,-13939.226301,-3140.155375,10875.660081
1121.331729,-12407.443191,-6893.023995,11335.195014
1121.332024,-4288.992708,-8271.628794,10416.125148
1121.332319,5054.884263,-7658.915550,10109.768526
1121.332626,11871.319102,-3293.333686,9267.287815
1121.332925,10109.768526,-536.124088,10569.303459
1121.333224,1531.783110,-842.480710,12407.443191
1121.333523,-4825.116796,1225.426488,11641.551636
1121.333822,-9497.055282,1225.426488,11488.373325
1121.334121,-10033.179370,-689.302399,10262.946837
1121.334420,-5131.473418,-2221.085509,10109.768526
1121.334719,2986.977064,-3140.155375,9803.411904
1121.335035,13249.923901,-995.659021,8654.574571
1121.335336,15930.544344,2910.387909,9267.287815
1121.335637,10416.125148,4595.349330,10186.357681
1121.335938,1225.426488,5284.651729,11794.729947
1121.336239,-7199.380617,5284.651729,11488.373325
1121.336540,-11564.962480,4442.171019,11028.838392
1121.336841,-11411.784169,765.891555,10569.303459
1121.337142,-8424.807105,-2527.442131,10875.660081
1121.337457,1684.961421,-4901.705952,9726.822748
1121.337753,8807.752882,-4671.938485,9114.109504
1121.338049,10262.946837,-1914.728887,10875.660081
1121.338346,5820.775818,-689.302399,10722.481770
1121.338642,-3829.457775,-76.589155,12790.388968
1121.338938,-9497.055282,1838.139732,12560.621502
1121.339234,-11258.605858,765.891555,10262.946837
1121.339531,-10645.892614,-1148.837332,10109.768526
1121.339819,-2604.031287,-1455.193954,8960.931193
1121.340119,7735.504705,-2527.442131,8501.396260
1121.340418,14705.117856,-1148.837332,8041.861327
1121.340718,15164.652789,612.713244,9420.466126
1121.341018,8807.752882,1072.248177,10416.125148
1121.341318,612.713244,3369.922842,10492.714303
1121.341618,-4978.295107,2910.387909,9573.644437
1121.341918,-12713.799813,-1148.837332,11641.551636
1121.342216,-13786.047990,-7199.380617,12254.264880
1121.342517,-6969.613150,-8118.450483,9573.644437
1121.342819,2374.263820,-7812.093861,9420.466126
1121.343120,8348.217949,-7199.380617,10262.946837
1121.343422,8654.574571,-4212.403552,10033.179370
1121.343723,5667.597507,-76.589155,11947.908258
1121.344025,-3369.922842,2450.852976,11335.195014
1121.344326,-10033.179370,3369.922842,12254.264880
1121.344634,-12101.086569,1684.961421,12101.086569
1121.344933,-9190.698660,-1148.837332,10262.946837
1121.345232,-536.124088,-3599.690308,9956.590215
1121.345531,8960.931193,-4212.403552,8884.342038
1121.345830,16083.722655,-1761.550576,8654.574571
1121.346130,17079.381676,1225.426488,9956.590215
1121.346429,10722.481770,2604.031287,10262.946837
1121.346728,306.356622,3982.636086,10722.481770
1121.347032,-10645.892614,1838.139732,12101.086569
1121.347332,-16619.846743,-1148.837332,13403.102212
1121.347633,-12713.799813,-2221.085509,11564.962480
1121.347933,-6356.899906,-3140.155375,11028.838392
1121.348233,3140.155375,-3446.511997,9573.644437
1121.348533,9497.055282,-0.000000,9573.644437
1121.348834,9420.466126,2604.031287,11641.551636
1121.349134,2680.620442,2604.031287,12407.443191
1121.349453,-7122.791461,3829.457775,13709.458834
1121.349746,-10799.070925,5437.830040,11182.016703
1121.350040,-9190.698660,2910.387909,8807.752882
1121.350333,-5897.364973,-0.000000,9650.233593
1121.350627,2680.620442,-2221.085509,9497.055282
1121.350921,13096.745590,-2986.977064,7582.326394
1121.351214,19606.823808,-229.767466,6510.078217
1121.351508,16619.846743,1225.426488,8041.861327
1121.351825,4365.581863,-536.124088,11488.373325
1121.352124,-5591.008351,612.713244,12560.621502
1121.352422,-10186.357681,765.891555,10262.946837
1121.352721,-15547.598566,-3140.155375,11488.373325
1121.353019,-14781.707011,-5973.954129,11488.373325
1121.353318,-5897.364973,-5208.062574,9880.001059
1121.353616,5208.062574,-2833.798753,9114.109504
1121.353915,9267.287815,-2527.442131,8807.752882
1121.354215,6127.132440,-1608.372265,11335.195014
1121.354516,1378.604799,1378.604799,11641.551636
1121.354816,-4135.814397,612.713244,11182.016703
1121.355117,-10033.179370,-2374.263820,11794.729947
1121.355418,-10186.357681,-4671.938485,10722.481770
1121.355719,-4135.814397,-4365.581863,9343.876971
1121.356019,5361.240885,-5361.240885,8501.396260
1121.356320,13096.745590,-6127.132440,8807.752882
1121.356627,15777.366033,-2067.907198,9956.590215
1121.356924,12484.032346,2757.209598,10492.714303
1121.357221,4518.760174,3369.922842,9956.590215
1121.357518,-5437.830040,3369.922842,11488.373325
1121.357815,-14092.404612,1684.961421,12560.621502
1121.358112,-16849.614210,-2067.907198,12254.264880
1121.358409,-13786.047990,-5820.775818,12101.086569
1121.358706,-3063.566220,-6433.489062,11182.016703
1121.359013,6739.845684,-6739.845684,10186.357681
1121.359316,11794.729947,-2986.977064,9343.876971
1121.359619,10569.303459,-229.767466,9956.590215
1121.359922,3293.333686,1838.139732,10875.660081
1121.360224,-2450.852976,3523.101153,10492.714303
1121.360527,-8577.985416,1838.139732,10569.303459
1121.360830,-10799.070925,-2067.907198,10875.660081
1121.361133,-5897.364973,-2680.620442,9650.233593
1121.361451,3599.690308,-2374.263820,9190.698660
1121.361747,11794.729947,-1608.372265,8577.985416
1121.362043,15317.831100,1838.139732,8501.396260
1121.362339,10875.660081,5284.651729,10262.946837
1121.362635,1072.248177,5131.473418,12101.086569
1121.362931,-7122.791461,6050.543284,12101.086569
1121.363227,-11947.908258,4748.527641,11488.373325
1121.363523,-12407.443191,1378.604799,10033.179370
1121.363840,-9573.644437,-2680.620442,10569.303459
1121.364137,-76.589155,-3752.868619,10569.303459
1121.364434,8960.931193,-4671.938485,9267.287815
1121.364731,11871.319102,-1761.550576,10109.768526
1121.365027,7429.148083,-995.659021,10262.946837
1121.365324,-3216.744531,-689.302399,11794.729947
1121.365621,-9343.876971,-229.767466,12713.799813
1121.365917,-13786.047990,-382.945777,12101.086569
1121.366207,-10033.179370,-995.659021,10722.481770
1121.366506,-1761.550576,-995.659021,8960.931193
1121.366805,8501.396260,-2221.085509,8041.861327
1121.367104,16236.900966,-1148.837332,9114.109504
1121.367404,17232.559987,1072.248177,9114.109504
1121.367703,10262.946837,1225.426488,10416.125148
1121.368002,-1914.728887,306.356622,12790.388968
1121.368301,-10492.714303,-76.589155,11641.551636
1121.368615,-16619.846743,-1302.015643,10875.660081
1121.368914,-16313.490121,-5208.062574,11335.195014
1121.369212,-10799.070925,-6586.667373,10492.714303
1121.369511,459.534933,-7658.915550,9650.233593
1121.369810,10109.768526,-6586.667373,9114.109504
1121.370108,11871.319102,-5973.954129,10109.768526
1121.370407,8041.861327,-3140.155375,10875.660081
1121.370706,2297.674665,-536.124088,9956.590215
1121.371013,-3676.279464,765.891555,9650.233593
1121.371310,-7812.093861,-382.945777,10262.946837
1121.371607,-8424.807105,-2374.263820,10569.303459
1121.371904,-2067.907198,-1455.193954,8807.752882
1121.372202,7429.148083,-1608.372265,8960.931193
1121.372499,10416.125148,-689.302399,9803.411904
1121.372796,11488.373325,2604.031287,9956.590215
1121.373093,5361.240885,5437.830040,11028.838392
1121.373390,-3676.279464,5897.364973,11488.373325
1121.373691,-11564.962480,4288.992708,12943.567279
1121.373992,-16160.311810,2604.031287,13020.156435
1121.374293,-10952.249236,1378.604799,10875.660081
1121.374594,-3523.101153,-995.659021,9956.590215
1121.374895,3906.046930,-3140.155375,10109.768526
1121.375196,10875.660081,-2833.798753,10033.179370
1121.375497,11641.551636,-382.945777,10722.481770
1121.375825,7735.504705,459.534933,9956.590215
1121.376121,-1455.193954,765.891555,10262.946837
1121.376417,-7505.737239,1225.426488,12254.264880
1121.376714,-8424.807105,919.069866,10262.946837
1121.377010,-7199.380617,-536.124088,10875.660081
1121.377306,-1148.837332,-1608.372265,11335.195014
1121.377602,8348.217949,-1455.193954,8960.931193
1121.377898,15164.652789,2144.496354,8195.039638
1121.378210,14015.815456,4595.349330,8807.752882
1121.378508,3906.046930,3369.922842,11028.838392
1121.378805,-4978.295107,4442.171019,12101.086569
1121.379102,-11947.908258,3063.566220,10875.660081
1121.379400,-17768.684076,-1914.728887,12407.443191
1121.379697,-14628.528700,-4059.225241,12330.854035
1121.379995,-4288.992708,-4901.705952,9956.590215
1121.380292,5973.954129,-6280.310751,8807.752882
1121.380606,10262.946837,-7658.915550,9573.644437
1121.380904,10416.125148,-4901.705952,9803.411904
1121.381202,5667.597507,-2221.085509,10416.125148
1121.381499,-3063.566220,-2221.085509,11182.016703
1121.381797,-9037.520349,-1914.728887,11947.908258
1121.382095,-9190.698660,-76.589155,10262.946837
1121.382393,-4978.295107,-689.302399,9267.287815
1121.382691,2527.442131,-1302.015643,9420.466126
1121.382998,10109.768526,-382.945777,9267.287815
1121.383297,14705.117856,1991.318043,9114.109504
1121.383597,12330.854035,4748.527641,9573.644437
1121.383897,2680.620442,3216.744531,11028.838392
1121.384196,-9343.876971,1072.248177,14322.172078
1121.384496,-15394.420255,-229.767466,13403.102212
1121.384796,-14245.582923,-995.659021,11028.838392
1121.385095,-9573.644437,-3599.690308,10109.768526
1121.385392,-1761.550576,-5514.419196,9573.644437
1121.385695,7735.504705,-5667.597507,9956.590215
1121.385998,14015.815456,-1914.728887,9420.466126
1121.386301,11871.319102,765.891555,9650.233593
1121.386603,919.069866,765.891555,11488.373325
1121.386906,-6356.899906,2910.387909,11641.551636
1121.387209,-10492.714303,2604.031287,11182.016703
1121.387512,-12560.621502,-382.945777,11488.373325
1121.387772,-7122.791461,-1302.015643,11182.016703
1121.388074,4365.581863,153.178311,9650.233593
1121.388376,15930.544344,1991.318043,6816.434839
1121.388678,19453.645497,4442.171019,7429.148083
1121.388979,11488.373325,2910.387909,9956.590215
1121.389281,153.178311,1838.139732,11947.908258
1121.389583,-9343.876971,1684.961421,11794.729947
1121.389885,-17615.505765,-1302.015643,12407.443191
1121.390197,-18381.397320,-5208.062574,13096.745590
1121.390496,-11105.427547,-5514.419196,11182.016703
1121.390796,1378.604799,-4671.938485,8501.396260
1121.391096,9267.287815,-5514.419196,8807.752882
1121.391396,10109.768526,-3140.155375,11028.838392
1121.391696,8807.752882,459.534933,10416.125148
1121.391996,3906.046930,3829.457775,9650.233593
1121.392296,-4442.171019,2450.852976,11488.373325
1121.392596,-9190.698660,459.534933,11335.195014
1121.392895,-7658.915550,-76.589155,9880.001059
1121.393194,306.356622,-842.480710,8501.396260
1121.393494,8041.861327,-2833.798753,8654.574571
1121.393793,13249.923901,-2067.907198,9956.590215
1121.394092,13709.458834,-76.589155,8960.931193
1121.394391,7046.202306,-229.767466,10569.303459
1121.394690,-6203.721595,-1148.837332,13556.280523
1121.394997,-15394.420255,-1148.837332,13862.637145
1121.395294,-16849.614210,-2221.085509,12407.443191
1121.395591,-12866.978124,-3293.333686,11488.373325
1121.395887,-5897.364973,-5208.062574,10186.357681
1121.396184,5054.884263,-4518.760174,9420.466126
1121.396481,15317.831100,-1761.550576,7888.683016
1121.396777,15930.544344,459.534933,9420.466126
1121.397074,8195.039638,1225.426488,10109.768526
1121.397394,-2757.209598,1684.961421,11182.016703
1121.397691,-10033.179370,1531.783110,12101.086569
1121.397988,-13326.513057,-1148.837332,11488.373325
1121.398285,-11105.427547,-2067.907198,11182.016703
1121.398582,-382.945777,-2527.442131,8348.217949
1121.398879,11028.838392,-2833.798753,7429.148083
1121.399176,16926.203365,-1761.550576,8041.861327
1121.399473,14705.117856,612.713244,9803.411904
1121.399821,5361.240885,1072.248177,12101.086569
1121.400116,-5437.830040,3063.566220,12866.978124
1121.400411,-14475.350389,1531.783110,13249.923901
1121.400706,-19070.699719,306.356622,13096.745590
1121.401001,-14092.404612,-536.124088,10416.125148
1121.401295,-3829.457775,-689.302399,9956.590215
1121.401590,6893.023995,-1455.193954,8807.752882
1121.401885,14551.939545,-229.767466,8807.752882
1121.402198,14015.815456,2450.852976,10262.946837
1121.402497,7888.683016,3369.922842,10262.946837
1121.402795,-2221.085509,1378.604799,11564.962480
1121.403094,-8884.342038,459.534933,11488.373325
1121.403392,-9880.001059,-995.659021,10109.768526
1121.403690,-6203.721595,-3599.690308,9803.411904
1121.403989,3140.155375,-3599.690308,9114.109504
1121.404287,12484.032346,-4212.403552,8041.861327
1121.404587,15164.652789,-2221.085509,9573.644437
1121.404887,10262.946837,1072.248177,11488.373325
1121.405187,-536.124088,2144.496354,11947.908258
1121.405487,-11564.962480,2604.031287,14168.993767
1121.405787,-17768.684076,1225.426488,12943.567279
1121.406087,-17309.149143,765.891555,11182.016703
1121.406387,-10033.179370,-382.945777,9803.411904
1121.406687,1225.426488,-2221.085509,8501.396260
1121.406995,11794.729947,-2986.977064,8654.574571
1121.407291,16926.203365,-1455.193954,8960.931193
1121.407588,13862.637145,-842.480710,9420.466126
1121.407885,3446.511997,-382.945777,10722.481770
1121.408182,-6510.078217,-1455.193954,11488.373325
1121.408479,-13786.047990,-3599.690308,11488.373325
1121.408776,-14781.707011,-5054.884263,11641.551636
1121.409072,-7505.737239,-5667.597507,10875.660081
1121.409386,3599.690308,-4518.760174,8807.752882
1121.409689,14015.815456,-3599.690308,8501.396260
1121.409992,17385.738298,-76.589155,8731.163727
1121.410295,12330.854035,2757.209598,10262.946837
1121.410598,153.178311,3369.922842,10875.660081
1121.410900,-11105.427547,2757.209598,12943.567279
1121.411203,-18075.040698,919.069866,13403.102212
1121.411506,-15241.241944,306.356622,10875.660081
1121.411773,-7505.737239,-995.659021,9650.233593
1121.412074,3599.690308,-3293.333686,8348.217949
1121.412375,12943.567279,-4671.938485,9650.233593
1121.412676,16390.079277,-2221.085509,9573.644437
1121.412977,12637.210657,459.534933,9343.876971
1121.413278,-689.302399,-536.124088,12101.086569
1121.413578,-10033.179370,-76.589155,12407.443191
1121.413879,-14245.582923,-229.767466,11335.195014
1121.414197,-12407.443191,-1302.015643,11028.838392
1121.414494,-6510.078217,-3599.690308,10875.660081
1121.414792,2680.620442,-3140.155375,11794.729947
1121.415090,15930.544344,-1148.837332,8960.931193
1121.415388,18304.808164,4135.814397,7582.326394
1121.415686,9956.590215,4978.295107,10109.768526
1121.415984,-2450.852976,4442.171019,12254.264880
1121.416282,-11258.605858,4825.116796,11794.729947
1121.416581,-15088.063633,3982.636086,11794.729947
1121.416878,-13939.226301,-382.945777,10722.481770
1121.417176,-5591.008351,-4059.225241,9956.590215
1121.417473,7888.683016,-4212.403552,8960.931193
1121.417771,17232.559987,-4671.938485,7888.683016
1121.418068,17232.559987,-1914.728887,9650.233593
1121.418366,9114.109504,-2374.263820,10416.125148
1121.418663,-2604.031287,-995.659021,11564.962480
1121.418993,-11718.140791,-1148.837332,12254.264880
1121.419290,-17002.792521,-1455.193954,12407.443191
1121.419587,-15394.420255,-2986.977064,12101.086569
1121.419884,-5284.651729,-1302.015643,9956.590215
1121.420181,8195.039638,-689.302399,8195.039638
1121.420478,14551.939545,459.534933,8348.217949
1121.420775,15624.187722,4135.814397,9573.644437
1121.421072,8960.931193,4442.171019,10645.892614
1121.421379,-1455.193954,3982.636086,12407.443191
1121.421679,-10339.535992,2297.674665,12407.443191
1121.421979,-15700.776877,-995.659021,12713.799813
1121.422279,-11947.908258,-4365.581863,10416.125148
1121.422579,-3216.744531,-5514.419196,9267.287815
1121.422878,6433.489062,-6739.845684,7888.683016
1121.423178,11335.195014,-6433.489062,9650.233593
1121.423478,9956.590215,-4365.581863,10875.660081
1121.423760,4212.403552,-3140.155375,11641.551636
1121.424064,-4978.295107,-1302.015643,12713.799813
1121.424368,-10799.070925,612.713244,12943.567279
1121.424672,-10492.714303,1072.248177,10875.660081
1121.424977,-5744.186662,1531.783110,9267.287815
1121.425281,2527.442131,306.356622,8195.039638
1121.425585,11794.729947,-842.480710,8807.752882
1121.425889,16773.025054,459.534933,8654.574571
1121.426161,13709.458834,2450.852976,8807.752882
1121.426464,2374.263820,1531.783110,11794.729947
1121.426768,-10186.357681,153.178311,13632.869679
1121.427071,-16160.311810,-0.000000,13709.458834
1121.427374,-16849.614210,-842.480710,12713.799813
1121.427677,-10492.714303,-2067.907198,10109.768526
1121.427980,-0.000000,-1914.728887,8501.396260
1121.428283,9803.411904,-1914.728887,8960.931193
1121.428538,14705.117856,-689.302399,9420.466126
1121.428843,12790.388968,1838.139732,9573.644437
1121.429147,4671.938485,1684.961421,11028.838392
1121.429451,-5437.830040,612.713244,12560.621502
1121.429755,-12713.799813,-536.124088,12790.388968
1121.430059,-11718.140791,153.178311,11182.016703
1121.430363,-4442.171019,1072.248177,8041.861327
1121.430667,4365.581863,-229.767466,8195.039638
1121.430953,12330.854035,-1455.193954,8654.574571
1121.431256,15164.652789,612.713244,9267.287815
1121.431559,11488.373325,1072.248177,10416.125148
1121.431861,306.356622,-382.945777,12560.621502
1121.432164,-8424.807105,-689.302399,13403.102212
1121.432467,-13479.691368,-995.659021,11488.373325
1121.432769,-12254.264880,-2680.620442,10109.768526
1121.433072,-8271.628794,-3752.868619,9573.644437
1121.433379,-76.589155,-5054.884263,10262.946837
1121.433675,8501.396260,-5667.597507,9650.233593
1121.433970,12484.032346,-1608.372265,9726.822748
1121.434266,8654.574571,-76.589155,11182.016703
1121.434561,-382.945777,306.356622,11564.962480
1121.434857,-6969.613150,2910.387909,11641.551636
1121.435152,-11258.605858,3829.457775,11028.838392
1121.435448,-12407.443191,-76.589155,10799.070925
1121.435778,-8731.163727,-2374.263820,10416.125148
1121.436076,2833.798753,-2986.977064,9573.644437
1121.436375,13556.280523,-2680.620442,8348.217949
1121.436674,16773.025054,-995.659021,9420.466126
1121.436973,13096.745590,-76.589155,10186.357681
1121.437272,4671.938485,765.891555,9650.233593
1121.437571,-5591.008351,-76.589155,11028.838392
1121.437870,-14322.172078,-2680.620442,12254.264880
1121.438165,-16160.311810,-5054.884263,12560.621502
1121.438466,-10799.070925,-4901.705952,10875.660081
1121.438767,306.356622,-3140.155375,8501.396260
1121.439068,8501.396260,-3599.690308,9267.287815
1121.439368,12024.497413,-0.000000,10416.125148
1121.439669,10875.660081,3676.279464,9956.590215
1121.439970,919.069866,3523.101153,10492.714303
1121.440271,-9190.698660,2297.674665,13403.102212
1121.440559,-14934.885322,1684.961421,13403.102212
1121.440860,-12254.264880,765.891555,11641.551636
1121.441161,-3829.457775,612.713244,9420.466126
1121.441462,4212.403552,-1148.837332,9267.287815
1121.441762,12330.854035,-1302.015643,9343.876971
1121.442063,18304.808164,2450.852976,8807.752882
1121.442364,14245.582923,3523.101153,8501.396260
1121.442665,2680.620442,1838.139732,11182.016703
1121.442974,-9190.698660,1225.426488,12866.978124
1121.443270,-13173.334746,-0.000000,12101.086569
1121.443565,-12713.799813,1378.604799,10569.303459
1121.443860,-6969.613150,-1914.728887,10569.303459
1121.444156,612.713244,-2680.620442,11028.838392
1121.444451,10109.768526,-1455.193954,9803.411904
1121.444746,12637.210657,1531.783110,8731.163727
1121.445042,7735.504705,2144.496354,10109.768526
1121.445349,-2910.387909,612.713244,12101.086569
1121.445648,-9880.001059,153.178311,12254.264880
1121.445947,-13173.334746,-995.659021,12254.264880
1121.446245,-12407.443191,-3599.690308,10109.768526
1121.446544,-3982.636086,-5361.240885,9573.644437
1121.446843,7735.504705,-4671.938485,8654.574571
1121.447142,18151.629853,-2067.907198,6510.078217
1121.447441,18611.164786,765.891555,7888.683016
1121.447757,9956.590215,-76.589155,10722.481770
1121.448055,-1608.372265,459.534933,12943.567279
1121.448353,-9573.644437,1072.248177,11794.729947
1121.448650,-15853.955188,153.178311,10569.303459
1121.448948,-14934.885322,-3140.155375,10722.481770
1121.449246,-9343.876971,-4825.116796,10492.714303
1121.449544,1838.139732,-4901.705952,9803.411904
1121.449841,9650.233593,-3906.046930,9803.411904
1121.450156,11335.195014,-2833.798753,10569.303459
1121.450454,6433.489062,-1761.550576,11182.016703
1121.450753,-1914.728887,-1608.372265,11488.373325
1121.451052,-7505.737239,-536.124088,11794.729947
1121.451350,-9343.876971,-1761.550576,10722.481770
1121.451649,-6663.256528,-3140.155375,9267.287815
1121.451948,1225.426488,-3140.155375,8960.931193
1121.452246,11641.551636,-2680.620442,7429.148083
1121.452558,17079.381676,-1148.837332,8884.342038
1121.452857,12484.032346,612.713244,10722.481770
1121.453156,3293.333686,1378.604799,12101.086569
1121.453456,-7199.380617,3523.101153,12637.210657
1121.453755,-14628.528700,3829.457775,11794.729947
1121.454054,-19070.699719,1991.318043,12713.799813
1121.454353,-13632.869679,1378.604799,12101.086569
1121.454652,-1302.015643,1991.318043,9573.644437
1121.454951,8195.039638,-229.767466,8654.574571
1121.455251,12177.675724,-229.767466,9956.590215
1121.455550,10722.481770,153.178311,10645.892614
1121.455849,3140.155375,153.178311,11182.016703
1121.456148,-4978.295107,612.713244,11641.551636
1121.456448,-11871.319102,-842.480710,11794.729947
1121.456747,-11411.784169,-1761.550576,12101.086569
1121.457046,-5744.186662,-1302.015643,10262.946837
1121.457353,5361.240885,-76.589155,8041.861327
1121.457652,15011.474478,-382.945777,7888.683016
1121.457952,18611.164786,1072.248177,8501.396260
1121.458251,14551.939545,3216.744531,9573.644437
1121.458550,3599.690308,1684.961421,11028.838392
1121.458849,-8118.450483,919.069866,12943.567279
1121.459149,-14934.885322,-689.302399,12790.388968
1121.459448,-14628.528700,-1302.015643,11488.373325
1121.459752,-8424.807105,-2067.907198,8807.752882
1121.460052,-0.000000,-3906.046930,9573.644437
1121.460352,7888.683016,-4671.938485,10722.481770
1121.460652,12024.497413,-1761.550576,10262.946837
1121.460953,8501.396260,-229.767466,10262.946837
1121.461253,-2374.263820,459.534933,11335.195014
1121.461553,-11411.784169,-1608.372265,12407.443191
1121.461854,-17462.327454,-4059.225241,13556.280523
1121.462172,-14934.885322,-4365.581863,12254.264880
1121.462470,-4825.116796,-4212.403552,9650.233593
1121.462769,6586.667373,-4059.225241,8960.931193
1121.463067,19913.180430,-2067.907198,7275.969772
1121.463365,22593.800872,2910.387909,7352.558928
1121.463663,14551.939545,3063.566220,9420.466126
1121.463962,1531.783110,2297.674665,11028.838392
1121.464260,-10339.535992,1378.604799,12330.854035
1121.464573,-16619.846743,-1608.372265,11641.551636
1121.464868,-18840.932253,-4518.760174,11641.551636
1121.465163,-11105.427547,-5973.954129,11182.016703
1121.465459,919.069866,-6127.132440,9573.644437
1121.465754,11182.016703,-4901.705952,9573.644437
1121.466049,14705.117856,-1302.015643,9803.411904
1121.466345,9803.411904,1838.139732,10799.070925
1121.466640,-689.302399,2144.496354,11182.016703
1121.466940,-8577.985416,3369.922842,12943.567279
1121.467240,-13632.869679,2757.209598,11794.729947
1121.467541,-10799.070925,1072.248177,10416.125148
1121.467842,-3982.636086,-536.124088,10722.481770
1121.468143,8501.396260,-536.124088,8960.931193
1121.468443,16926.203365,2297.674665,7735.504705
1121.468744,18457.986475,5437.830040,8041.861327
1121.469045,8501.396260,4748.527641,10416.125148
1121.469352,-3369.922842,4595.349330,12713.799813
1121.469648,-12866.978124,4288.992708,12790.388968
1121.469944,-16619.846743,1991.318043,11794.729947
1121.470241,-13020.156435,-689.302399,11335.195014
1121.470537,-3982.636086,-3906.046930,9880.001059
1121.470833,8654.574571,-4825.116796,7735.504705
1121.471129,16390.079277,-4365.581863,8501.396260
1121.471425,14245.582923,-2986.977064,9803.411904
1121.471733,4671.938485,-4059.225241,12177.675724
1121.472032,-7352.558928,-2374.263820,13096.745590
1121.472331,-14781.707011,-382.945777,12560.621502
1121.472630,-16696.435899,-689.302399,11411.784169
1121.472929,-11258.605858,-229.767466,10569.303459
1121.473228,1225.426488,153.178311,8501.396260
1121.473527,14245.582923,153.178311,7275.969772
1121.473826,21138.606918,1991.318043,7658.915550
1121.474142,19300.467186,2910.387909,7735.504705
1121.474441,7888.683016,765.891555,10492.714303
1121.474739,-5131.473418,-536.124088,12407.443191
1121.475038,-16696.435899,-3446.511997,12713.799813
1121.475336,-19989.769585,-5361.240885,12407.443191
1121.475634,-16007.133499,-7352.558928,11718.140791
1121.475933,-6969.613150,-8884.342038,10416.125148
1121.476231,5820.775818,-7199.380617,9190.698660
1121.476548,15164.652789,-4059.225241,7888.683016
1121.476846,15471.009411,-689.302399,8654.574571
1121.477144,6739.845684,-689.302399,10952.249236
1121.477442,-5897.364973,-0.000000,12790.388968
1121.477739,-12713.799813,306.356622,12407.443191
1121.478037,-12407.443191,153.178311,10875.660081
1121.478335,-7122.791461,-842.480710,10109.768526
1121.478633,2986.977064,-842.480710,9114.109504
1121.478933,13403.102212,-382.945777,9267.287815
1121.479233,18994.110564,2910.387909,9037.520349
1121.479533,16773.025054,6050.543284,9420.466126
1121.479833,4671.938485,5591.008351,11411.784169
1121.480133,-9573.644437,4288.992708,12407.443191
1121.480433,-20142.947896,1531.783110,14015.815456
1121.480733,-22517.211717,-689.302399,13786.047990
1121.481033,-14934.885322,-1914.728887,11335.195014
1121.481324,-3063.566220,-3446.511997,10645.892614
1121.481625,9650.233593,-3293.333686,9573.644437
1121.481926,18304.808164,1072.248177,8271.628794
1121.482227,16236.900966,4442.171019,8807.752882
1121.482529,4748.527641,2604.031287,11488.373325
1121.482830,-4978.295107,1838.139732,11794.729947
1121.483131,-10645.892614,1378.604799,10722.481770
1121.483432,-11258.605858,-1455.193954,10262.946837
1121.483739,-6050.543284,-3446.511997,9956.590215
1121.484037,5054.884263,-3752.868619,9343.876971
1121.484334,14858.296167,-2986.977064,7812.093861
1121.484631,17845.273231,-1302.015643,8501.396260
1121.484928,11488.373325,612.713244,10109.768526
1121.485226,-1761.550576,765.891555,12254.264880
1121.485523,-13632.869679,919.069866,13096.745590
1121.485820,-18994.110564,459.534933,13096.745590
1121.486117,-16849.614210,-1455.193954,10492.714303
1121.486418,-8731.163727,-3446.511997,9803.411904
1121.486719,1991.318043,-3446.511997,9956.590215
1121.487020,12790.388968,-2680.620442,7275.969772
1121.487321,16543.257588,306.356622,8271.628794
1121.487622,10109.768526,-842.480710,10109.768526
1121.487923,-842.480710,-1761.550576,11488.373325
1121.488224,-10186.357681,-2374.263820,12943.567279
1121.488519,-13173.334746,-3140.155375,11182.016703
1121.488820,-9497.055282,-5054.884263,10416.125148
1121.489120,-1302.015643,-5514.419196,9420.466126
1121.489421,9114.109504,-5054.884263,7275.969772
1121.489722,15930.544344,-3599.690308,7735.504705
1121.490023,14168.993767,-1608.372265,10109.768526
1121.490324,4365.581863,-1302.015643,12790.388968
1121.490625,-6356.899906,765.891555,13403.102212
1121.490913,-15241.241944,1838.139732,12943.567279
1121.491213,-18687.753942,1684.961421,12407.443191
1121.491513,-14475.350389,-382.945777,11028.838392
1121.491813,-3369.922842,-0.000000,9803.411904
1121.492113,10875.660081,-0.000000,7275.969772
1121.492413,17692.094920,919.069866,8041.861327
1121.492713,16773.025054,1838.139732,9114.109504
1121.493013,8960.931193,1838.139732,10875.660081
1121.493327,-4135.814397,2604.031287,12484.032346
1121.493625,-13326.513057,1531.783110,12254.264880
1121.493923,-18687.753942,-1914.728887,12943.567279
1121.494221,-13939.226301,-2374.263820,12790.388968
1121.494519,-3523.101153,-2221.085509,10109.768526
1121.494816,8807.752882,-1761.550576,8501.396260
1121.495114,17692.094920,1378.604799,7658.915550
1121.495412,19300.467186,5284.651729,7429.148083
1121.495719,9803.411904,4825.116796,10262.946837
1121.496019,-3982.636086,3982.636086,12713.799813
1121.496318,-12407.443191,3676.279464,12101.086569
1121.496618,-13632.869679,2450.852976,10569.303459
1121.496918,-10492.714303,-536.124088,10875.660081
1121.497217,-3063.566220,-2221.085509,10416.125148
1121.497517,6280.310751,-4059.225241,9267.287815
1121.497817,11488.373325,-3140.155375,9420.466126
1121.498113,10109.768526,-1608.372265,11335.195014
1121.498416,2833.798753,-842.480710,11718.140791
1121.498719,-7199.380617,-382.945777,11105.427547
1121.499022,-13326.513057,-842.480710,12407.443191
1121.499325,-13786.047990,-2680.620442,12101.086569
1121.499628,-9343.876971,-3293.333686,11335.195014
1121.499930,612.713244,-3446.511997,10339.535992
1121.500233,14015.815456,-1761.550576,7275.969772
1121.500528,20372.715363,612.713244,6969.613150
1121.500825,17998.451542,2757.209598,7505.737239
1121.501122,5361.240885,1225.426488,11641.551636
1121.501419,-6969.613150,765.891555,12560.621502
1121.501716,-14322.172078,-1148.837332,12254.264880
1121.502012,-17615.505765,-3446.511997,12330.854035
1121.502309,-14092.404612,-6739.845684,12101.086569
1121.502606,-3523.101153,-6433.489062,9803.411904
1121.502918,6280.310751,-5973.954129,7582.326394
1121.503218,11028.838392,-5208.062574,9343.876971
1121.503519,9114.109504,-3140.155375,11794.729947
1121.503820,1991.318043,-1148.837332,10952.249236
1121.504121,-5131.473418,-842.480710,11335.195014
1121.504421,-10339.535992,-1914.728887,12254.264880
1121.504722,-8731.163727,-1148.837332,11028.838392
1121.505023,-1148.837332,-536.124088,9420.466126
1121.505332,6739.845684,153.178311,8501.396260
