#time,accel_x,accel_y,accel_z
1131.324419,-229.767466,-995.659021,10416.125148
1131.324713,-0.000000,-842.480710,10339.535992
1131.325007,-0.000000,-689.302399,10569.303459
1131.325300,2833.798753,-536.124088,10109.768526
1131.325602,5208.062574,-689.302399,9880.001059
1131.325903,9267.287815,-229.767466,9573.644437
1131.326205,12943.567279,-536.124088,9803.411904
1131.326506,18457.986475,459.534933,8807.752882
1131.326808,19760.002119,306.356622,8807.752882
1131.327109,20985.428607,-0.000000,8960.931193
1131.327411,19913.180430,612.713244,9650.233593
1131.327712,18151.629853,1378.604799,10033.179370
1131.328025,18304.808164,1684.961421,9190.698660
1131.328321,15777.366033,1531.783110,9573.644437
1131.328617,15624.187722,1225.426488,10033.179370
1131.328913,16543.257588,-0.000000,10569.303459
1131.329210,21674.731006,612.713244,10109.768526
1131.329506,27035.971891,1225.426488,9497.055282
1131.329802,29410.235712,-689.302399,8348.217949
1131.330098,24355.351449,-2527.442131,10109.768526
1131.330397,16773.025054,-4671.938485,14475.350389
1131.330698,11794.729947,-4671.938485,15394.420255
1131.330999,7429.148083,-1761.550576,14781.707011
1131.331300,5208.062574,459.534933,14322.172078
1131.331600,2527.442131,306.356622,14858.296167
1131.331901,2527.442131,3063.566220,15624.187722
1131.332202,6893.023995,4978.295107,14322.172078
1131.332503,12177.675724,6510.078217,11794.729947
1131.332810,18764.343097,6510.078217,9956.590215
1131.333107,22287.444250,4288.992708,8348.217949
1131.333404,25121.243004,-689.302399,7122.791461
1131.333701,24968.064693,-4059.225241,7429.148083
1131.333998,24355.351449,-8271.628794,7352.558928
1131.334295,20985.428607,-10645.892614,7735.504705
1131.334591,14168.993767,-9650.233593,9956.590215
1131.334888,5667.597507,-5973.954129,11028.838392
1131.335202,-3982.636086,-2374.263820,12943.567279
1131.335505,-10033.179370,1838.139732,15317.831100
1131.335808,-12254.264880,5897.364973,13709.458834
1131.336111,-14092.404612,8348.217949,11794.729947
1131.336413,-9880.001059,6356.899906,9650.233593
1131.336716,-536.124088,1225.426488,7965.272172
1131.337019,11028.838392,-3446.511997,6127.132440
1131.337322,17232.559987,-6127.132440,4748.527641
1131.337640,15317.831100,-7812.093861,7275.969772
1131.337936,9114.109504,-5973.954129,9956.590215
1131.338232,2527.442131,-842.480710,12560.621502
1131.338529,-7122.791461,2757.209598,13709.458834
1131.338825,-17309.149143,4442.171019,14781.707011
1131.339121,-23742.638205,4135.814397,16083.722655
1131.339417,-23436.281583,1378.604799,16236.900966
1131.339713,-15700.776877,-5054.884263,14168.993767
1131.339985,919.069866,-8884.342038,9114.109504
1131.340286,19606.823808,-11564.962480,4288.992708
1131.340587,33699.228420,-12024.497413,3140.155375
1131.340888,40668.841570,-9497.055282,3676.279464
1131.341189,38294.577750,-3446.511997,5361.240885
1131.341490,25580.777937,3523.101153,7658.915550
1131.341791,5208.062574,6510.078217,12790.388968
1131.342092,-14475.350389,8041.861327,15241.241944
1131.342391,-28720.933312,9650.233593,14934.885322
1131.342691,-38217.988594,7429.148083,16083.722655
1131.342991,-40209.306637,-536.124088,17462.327454
1131.343291,-29333.646556,-8271.628794,17155.970832
1131.343591,-10186.357681,-6739.845684,13403.102212
1131.343891,9114.109504,-2680.620442,6969.613150
1131.344191,20985.428607,-2680.620442,4288.992708
1131.344491,25274.421315,-2221.085509,5054.884263
1131.344782,25733.956248,612.713244,4595.349330
1131.345085,17845.273231,2144.496354,4748.527641
1131.345387,5973.954129,1531.783110,7275.969772
1131.345690,-689.302399,612.713244,9420.466126
1131.345993,-3982.636086,1838.139732,10262.946837
1131.346295,-8577.985416,4288.992708,12943.567279
1131.346598,-14475.350389,2757.209598,14092.404612
1131.346901,-14628.528700,2604.031287,13786.047990
1131.347208,-10492.714303,1684.961421,12024.497413
1131.347508,-4748.527641,-1761.550576,9956.590215
1131.347808,1991.318043,-4518.760174,10569.303459
1131.348108,12943.567279,-6127.132440,9573.644437
1131.348408,23666.049049,-1608.372265,7275.969772
1131.348708,25580.777937,3216.744531,6510.078217
1131.349007,16236.900966,5131.473418,8577.985416
1131.349307,919.069866,5284.651729,12560.621502
1131.349591,-11105.427547,4825.116796,13403.102212
1131.349893,-21444.963540,1072.248177,13786.047990
1131.350196,-28567.755001,-4825.116796,15700.776877
1131.350499,-23819.227360,-9497.055282,16543.257588
1131.350802,-9343.876971,-7658.915550,13862.637145
1131.351105,9267.287815,-2067.907198,9880.001059
1131.351408,18764.343097,-536.124088,8501.396260
1131.351711,18994.110564,1225.426488,10569.303459
1131.351992,16083.722655,2450.852976,9650.233593
1131.352295,9420.466126,2910.387909,8807.752882
1131.352598,-536.124088,-0.000000,7888.683016
1131.352900,-7812.093861,-5667.597507,9267.287815
1131.353203,-8577.985416,-6127.132440,12254.264880
1131.353506,-5897.364973,-2833.798753,11028.838392
1131.353808,-3829.457775,2757.209598,11182.016703
1131.354111,-4978.295107,5437.830040,12101.086569
1131.354401,-6050.543284,5591.008351,12713.799813
1131.354700,-4978.295107,4442.171019,11182.016703
1131.354999,-3982.636086,1531.783110,9650.233593
1131.355298,612.713244,-3752.868619,7199.380617
1131.355597,7888.683016,-8731.163727,6816.434839
1131.355897,13403.102212,-9343.876971,7582.326394
1131.356196,13249.923901,-7812.093861,8348.217949
1131.356495,5973.954129,-3906.046930,10262.946837
1131.356832,-1148.837332,-229.767466,11488.373325
1131.357126,-6969.613150,3063.566220,11182.016703
1131.357419,-12713.799813,3982.636086,10569.303459
1131.357713,-15700.776877,4288.992708,10875.660081
1131.358007,-10952.249236,3063.566220,11488.373325
1131.358301,-1302.015643,3063.566220,10262.946837
1131.358595,9650.233593,5437.830040,10416.125148
1131.358888,14015.815456,7429.148083,10416.125148
1131.359196,10875.660081,4748.527641,11488.373325
1131.359495,7275.969772,1838.139732,11641.551636
1131.359795,3752.868619,-842.480710,8654.574571
1131.360095,-3523.101153,-6739.845684,8501.396260
1131.360395,-9726.822748,-13862.637145,9880.001059
1131.360694,-10952.249236,-16543.257588,13326.513057
1131.360994,-5897.364973,-11871.319102,12790.388968
1131.361294,-2604.031287,-4059.225241,11182.016703
1131.361590,-3523.101153,306.356622,12790.388968
1131.361889,-3523.101153,4135.814397,12943.567279
1131.362188,-2604.031287,6663.256528,11182.016703
1131.362487,-76.589155,7275.969772,8501.396260
1131.362786,2297.674665,4135.814397,7352.558928
1131.363085,4518.760174,-1914.728887,8501.396260
1131.363383,10569.303459,-3446.511997,8960.931193
1131.363682,14015.815456,-1761.550576,8348.217949
1131.363977,10416.125148,-995.659021,9420.466126
1131.364277,2374.263820,-2986.977064,11028.838392
1131.364577,-3982.636086,-3906.046930,10569.303459
1131.364877,-11105.427547,-5208.062574,9573.644437
1131.365178,-17002.792521,-8271.628794,9956.590215
1131.365478,-17002.792521,-12637.210657,12790.388968
1131.365778,-11258.605858,-12484.032346,14628.528700
1131.366078,-0.000000,-3446.511997,13096.745590
1131.366366,8041.861327,5437.830040,9573.644437
1131.366666,10875.660081,10875.660081,8960.931193
1131.366966,9497.055282,11335.195014,9420.466126
1131.367266,6280.310751,9420.466126,8731.163727
1131.367566,1838.139732,5897.364973,8960.931193
1131.367866,-1148.837332,-995.659021,8195.039638
1131.368166,-2604.031287,-7352.558928,11488.373325
1131.368466,1378.604799,-6893.023995,12790.388968
1131.368766,4365.581863,-689.302399,12560.621502
1131.369066,3599.690308,3676.279464,12407.443191
1131.369366,919.069866,4825.116796,12330.854035
1131.369666,-1761.550576,5897.364973,12101.086569
1131.369966,-4288.992708,6510.078217,9420.466126
1131.370266,-3982.636086,2757.209598,8960.931193
1131.370566,-3676.279464,-2221.085509,10569.303459
1131.370866,306.356622,-4365.581863,11947.908258
1131.371173,4518.760174,-1761.550576,11794.729947
1131.371472,4365.581863,1991.318043,11182.016703
1131.371771,1378.604799,1838.139732,11182.016703
1131.372070,-2604.031287,765.891555,10262.946837
1131.372369,-5744.186662,-689.302399,8654.574571
1131.372668,-7658.915550,-4518.760174,8501.396260
1131.372967,-5744.186662,-9497.055282,9114.109504
1131.373266,459.534933,-10033.179370,9803.411904
1131.373582,8654.574571,-5820.775818,8960.931193
1131.373879,10569.303459,-382.945777,9114.109504
1131.374176,7735.504705,1072.248177,9956.590215
1131.374473,2986.977064,2297.674665,11028.838392
1131.374770,-536.124088,2297.674665,8807.752882
1131.375067,-5897.364973,-0.000000,7888.683016
1131.375364,-10492.714303,-5054.884263,9420.466126
1131.375661,-8731.163727,-9343.876971,11794.729947
1131.375980,-1455.193954,-7812.093861,12560.621502
1131.376279,1225.426488,-5054.884263,12560.621502
1131.376579,153.178311,-3752.868619,13556.280523
1131.376878,-842.480710,-842.480710,13096.745590
1131.377178,-842.480710,612.713244,9956.590215
1131.377477,-2221.085509,919.069866,7888.683016
1131.377777,-2374.263820,-995.659021,8654.574571
1131.378077,-0.000000,-3446.511997,10416.125148
1131.378367,6433.489062,-536.124088,11488.373325
1131.378667,10262.946837,4288.992708,11105.427547
1131.378967,8960.931193,7735.504705,10875.660081
1131.379267,4212.403552,7888.683016,11718.140791
1131.379567,-2067.907198,5284.651729,12254.264880
1131.379867,-8118.450483,2757.209598,11182.016703
1131.380167,-13632.869679,-2067.907198,11641.551636
1131.380467,-10492.714303,-6739.845684,11794.729947
1131.380766,-3369.922842,-8271.628794,11947.908258
1131.381066,5514.419196,-3599.690308,10722.481770
1131.381365,9956.590215,1225.426488,9956.590215
1131.381664,6739.845684,3216.744531,11947.908258
1131.381964,3906.046930,4288.992708,11028.838392
1131.382263,2527.442131,6510.078217,8501.396260
1131.382562,-1148.837332,5131.473418,6739.845684
1131.382861,-3982.636086,-842.480710,7429.148083
1131.383168,-2604.031287,-3293.333686,9803.411904
1131.383472,2680.620442,-2221.085509,10262.946837
1131.383775,1378.604799,-689.302399,11488.373325
1131.384078,-2450.852976,-1914.728887,13403.102212
1131.384382,-3982.636086,-536.124088,12790.388968
1131.384685,-1914.728887,-0.000000,8501.396260
1131.384988,-3063.566220,-1455.193954,6356.899906
1131.385291,-3982.636086,-5208.062574,7275.969772
1131.385612,-1761.550576,-9037.520349,9803.411904
1131.385909,3140.155375,-9037.520349,10569.303459
1131.386206,7582.326394,-5054.884263,10799.070925
1131.386503,5514.419196,-1761.550576,11105.427547
1131.386800,459.534933,-995.659021,12101.086569
1131.387097,-2221.085509,-76.589155,11411.784169
1131.387394,-5131.473418,306.356622,10262.946837
1131.387691,-6356.899906,-1302.015643,9956.590215
1131.387964,-5591.008351,-4365.581863,10722.481770
1131.388264,306.356622,-3906.046930,11335.195014
1131.388564,6893.023995,765.891555,11641.551636
1131.388864,9267.287815,4595.349330,10722.481770
1131.389164,6586.667373,5437.830040,11182.016703
1131.389464,459.534933,3676.279464,12713.799813
1131.389765,-2604.031287,2910.387909,10645.892614
1131.390065,-6969.613150,-382.945777,9497.055282
1131.390382,-8884.342038,-6127.132440,9726.822748
1131.390680,-5744.186662,-9726.822748,12101.086569
1131.390979,-995.659021,-7046.202306,13096.745590
1131.391278,3293.333686,-1148.837332,11564.962480
1131.391576,3293.333686,2604.031287,10416.125148
1131.391875,2527.442131,4978.295107,11335.195014
1131.392174,765.891555,5437.830040,9573.644437
1131.392472,-995.659021,4748.527641,7122.791461
1131.392772,-2221.085509,1838.139732,8118.450483
1131.393070,-689.302399,-1761.550576,8807.752882
1131.393369,5973.954129,-0.000000,9573.644437
1131.393668,10416.125148,2910.387909,9573.644437
1131.393966,6127.132440,5437.830040,11182.016703
1131.394265,153.178311,5131.473418,12407.443191
1131.394564,-3523.101153,4442.171019,11488.373325
1131.394862,-7965.272172,1838.139732,9880.001059
1131.395202,-10952.249236,-3752.868619,10416.125148
1131.395497,-8577.985416,-7352.558928,10569.303459
1131.395791,-1455.193954,-8271.628794,9880.001059
1131.396086,5667.597507,-5361.240885,10875.660081
1131.396380,8501.396260,-1761.550576,10875.660081
1131.396674,5973.954129,1072.248177,11794.729947
1131.396969,3446.511997,919.069866,10416.125148
1131.397263,-229.767466,1684.961421,9420.466126
1131.397571,-4442.171019,-0.000000,8501.396260
1131.397868,-5284.651729,-4059.225241,9114.109504
1131.398164,-2757.209598,-7046.202306,11182.016703
1131.398461,2833.798753,-4518.760174,12101.086569
1131.398757,5054.884263,-1148.837332,11718.140791
1131.399054,3293.333686,1378.604799,11718.140791
1131.399350,1531.783110,2450.852976,11488.373325
1131.399647,-689.302399,919.069866,10186.357681
1131.399963,-4978.295107,-1914.728887,9803.411904
1131.400266,-5591.008351,-6280.310751,9037.520349
1131.400568,-2910.387909,-9497.055282,8731.163727
1131.400871,2297.674665,-9037.520349,10109.768526
1131.401173,3293.333686,-6586.667373,11794.729947
1131.401476,-689.302399,-3140.155375,13862.637145
1131.401778,-1761.550576,1072.248177,12254.264880
1131.402081,-1302.015643,5131.473418,8960.931193
1131.402398,-4288.992708,4595.349330,7888.683016
1131.402692,-5131.473418,2604.031287,9420.466126
1131.402987,-842.480710,306.356622,8195.039638
1131.403281,5514.419196,-0.000000,8041.861327
1131.403576,9803.411904,-536.124088,9956.590215
1131.403870,8501.396260,459.534933,11794.729947
1131.404165,4901.705952,3676.279464,11947.908258
1131.404459,765.891555,4442.171019,10569.303459
1131.404759,-4288.992708,3063.566220,9956.590215
1131.405059,-9573.644437,612.713244,10109.768526
1131.405358,-10645.892614,-2986.977064,11411.784169
1131.405657,-6510.078217,-4059.225241,10722.481770
1131.405956,-1148.837332,-1761.550576,11641.551636
1131.406255,1838.139732,2144.496354,12943.567279
1131.406554,1991.318043,4288.992708,13556.280523
1131.406853,2144.496354,7122.791461,12407.443191
1131.407167,1378.604799,6510.078217,10262.946837
1131.407466,919.069866,4288.992708,7429.148083
1131.407765,2986.977064,612.713244,6433.489062
1131.408063,4059.225241,-4365.581863,8884.342038
1131.408362,6280.310751,-6433.489062,11028.838392
1131.408661,7122.791461,-4825.116796,11488.373325
1131.408960,5361.240885,-1302.015643,11641.551636
1131.409258,-229.767466,-842.480710,12407.443191
1131.409565,-2910.387909,-382.945777,10645.892614
1131.409863,-9343.876971,-229.767466,8884.342038
1131.410160,-13020.156435,-3293.333686,9803.411904
1131.410457,-13020.156435,-6739.845684,12943.567279
1131.410754,-8271.628794,-7352.558928,12407.443191
1131.411051,3752.868619,-2374.263820,10416.125148
1131.411348,7275.969772,-76.589155,10109.768526
1131.411646,5361.240885,-536.124088,9956.590215
1131.411942,3446.511997,-1302.015643,10569.303459
1131.412243,4212.403552,-229.767466,7275.969772
1131.412544,2986.977064,-3140.155375,4901.705952
1131.412845,-995.659021,-8271.628794,6893.023995
1131.413146,-689.302399,-10033.179370,10262.946837
1131.413447,3293.333686,-6586.667373,10875.660081
1131.413749,5054.884263,-0.000000,10262.946837
1131.414050,1531.783110,1684.961421,12637.210657
1131.414344,-3829.457775,4288.992708,13709.458834
1131.414645,-6356.899906,5437.830040,11335.195014
1131.414946,-7658.915550,4825.116796,8807.752882
1131.415247,-9343.876971,459.534933,9956.590215
1131.415548,-8271.628794,-4212.403552,13249.923901
1131.415849,765.891555,-4212.403552,12713.799813
1131.416150,8654.574571,459.534933,11335.195014
1131.416451,8654.574571,3063.566220,10722.481770
1131.416739,4748.527641,2450.852976,12101.086569
1131.417040,3446.511997,3369.922842,11028.838392
1131.417340,1838.139732,3063.566220,7888.683016
1131.417641,-2067.907198,765.891555,8195.039638
1131.417942,-3369.922842,-3140.155375,9650.233593
1131.418243,1225.426488,-3599.690308,10262.946837
1131.418544,6893.023995,153.178311,10875.660081
1131.418845,4901.705952,3523.101153,11794.729947
1131.419177,-995.659021,4288.992708,13249.923901
1131.419472,-6816.434839,3829.457775,14015.815456
1131.419766,-6050.543284,4978.295107,10569.303459
1131.420060,-8424.807105,2910.387909,8960.931193
1131.420355,-8577.985416,-1455.193954,9420.466126
1131.420649,-4825.116796,-5514.419196,10569.303459
1131.420944,4212.403552,-4212.403552,10416.125148
1131.421238,9803.411904,-2680.620442,9114.109504
1131.421579,8807.752882,-2833.798753,8960.931193
1131.421874,2680.620442,-4365.581863,11105.427547
1131.422169,306.356622,-4825.116796,9420.466126
1131.422464,-536.124088,-3599.690308,6433.489062
1131.422758,-2374.263820,-4901.705952,6663.256528
1131.423053,-2604.031287,-6433.489062,9267.287815
1131.423348,153.178311,-5667.597507,11028.838392
1131.423643,5667.597507,459.534933,10722.481770
1131.423939,2833.798753,4595.349330,10722.481770
1131.424242,-2757.209598,4442.171019,12254.264880
1131.424545,-8577.985416,2450.852976,13173.334746
1131.424848,-12407.443191,919.069866,12790.388968
1131.425151,-10339.535992,-1148.837332,10109.768526
1131.425454,-4978.295107,-4518.760174,9573.644437
1131.425757,1684.961421,-7505.737239,9956.590215
1131.426060,8348.217949,-6127.132440,11182.016703
1131.426354,10262.946837,-2374.263820,11182.016703
1131.426651,9650.233593,1072.248177,9650.233593
1131.426948,6127.132440,612.713244,10339.535992
1131.427245,-76.589155,-76.589155,9420.466126
1131.427542,-6050.543284,-1608.372265,9956.590215
1131.427838,-8271.628794,-2833.798753,10875.660081
1131.428135,-4135.814397,-2221.085509,11028.838392
1131.428432,1225.426488,1378.604799,12177.675724
1131.428744,2680.620442,5897.364973,12790.388968
1131.429043,1072.248177,8960.931193,13556.280523
1131.429342,-689.302399,10262.946837,12407.443191
1131.429641,-2450.852976,7888.683016,9267.287815
1131.429940,-6663.256528,2604.031287,8807.752882
1131.430239,-9497.055282,-4365.581863,9880.001059
1131.430538,-4595.349330,-8424.807105,10875.660081
1131.430837,5667.597507,-7505.737239,9267.287815
1131.431125,10722.481770,-4671.938485,9114.109504
1131.431427,8654.574571,-2067.907198,11182.016703
1131.431729,6739.845684,612.713244,11182.016703
1131.432030,4518.760174,4135.814397,9420.466126
1131.432332,-536.124088,4288.992708,7429.148083
1131.432634,-6356.899906,1684.961421,8041.861327
1131.432935,-6816.434839,-995.659021,8960.931193
1131.433237,-4288.992708,-3293.333686,11794.729947
1131.433544,-536.124088,-2221.085509,13403.102212
1131.433845,-382.945777,765.891555,12866.978124
1131.434147,153.178311,3676.279464,11794.729947
1131.434448,-1148.837332,3676.279464,11641.551636
1131.434750,-2450.852976,1991.318043,9956.590215
1131.435051,-4135.814397,-2067.907198,8041.861327
1131.435352,-3369.922842,-6739.845684,8654.574571
1131.435654,2297.674665,-10492.714303,9420.466126
1131.435970,6586.667373,-9726.822748,9956.590215
1131.436264,7582.326394,-7352.558928,10722.481770
1131.436557,5054.884263,-4212.403552,12254.264880
1131.436851,-1302.015643,-2986.977064,13709.458834
1131.437145,-3829.457775,-0.000000,11028.838392
1131.437439,-7122.791461,2297.674665,10109.768526
1131.437732,-7122.791461,1684.961421,8501.396260
1131.438026,-2450.852976,-229.767466,8807.752882
1131.438345,2527.442131,-0.000000,10109.768526
1131.438643,9114.109504,1684.961421,10722.481770
1131.438941,5820.775818,2144.496354,12101.086569
1131.439239,3140.155375,459.534933,12560.621502
1131.439537,-1914.728887,-1608.372265,11488.373325
1131.439836,-6050.543284,-1914.728887,9573.644437
1131.440134,-6663.256528,-3906.046930,8501.396260
1131.440432,-5744.186662,-6893.023995,9114.109504
1131.440745,-2450.852976,-8577.985416,11335.195014
1131.441043,2144.496354,-4901.705952,12790.388968
1131.441342,7046.202306,1991.318043,11335.195014
1131.441640,5208.062574,5591.008351,9956.590215
1131.441939,2144.496354,7582.326394,10722.481770
1131.442237,-1455.193954,7275.969772,9803.411904
1131.442536,-4825.116796,5744.186662,9267.287815
1131.442834,-3063.566220,3063.566220,8501.396260
1131.443122,-229.767466,-382.945777,9420.466126
1131.443425,3293.333686,-689.302399,12254.264880
1131.443727,5973.954129,-536.124088,12407.443191
1131.444029,5820.775818,2757.209598,11947.908258
1131.444332,3293.333686,3216.744531,11488.373325
1131.444634,-1148.837332,1225.426488,9956.590215
1131.444936,-5591.008351,-842.480710,9956.590215
1131.445239,-6203.721595,-3599.690308,9497.055282
1131.445546,-4135.814397,-5514.419196,9573.644437
1131.445842,612.713244,-6433.489062,10875.660081
1131.446139,4518.760174,-2833.798753,12101.086569
1131.446436,3140.155375,153.178311,12560.621502
1131.446733,1072.248177,2144.496354,12713.799813
1131.447030,-1302.015643,3369.922842,10645.892614
1131.447327,-3523.101153,2604.031287,8654.574571
1131.447624,-5131.473418,-229.767466,8501.396260
1131.447938,-3982.636086,-4059.225241,8960.931193
1131.448237,2144.496354,-5514.419196,10033.179370
1131.448537,9114.109504,-5054.884263,10109.768526
1131.448836,9420.466126,-2221.085509,10722.481770
1131.449136,5667.597507,-1302.015643,10416.125148
1131.449435,-1608.372265,-2067.907198,11488.373325
1131.449734,-5284.651729,-2374.263820,10722.481770
1131.450034,-10186.357681,-3906.046930,9343.876971
1131.450352,-10492.714303,-6739.845684,9956.590215
1131.450648,-6203.721595,-6893.023995,10875.660081
1131.450943,1838.139732,-3906.046930,11182.016703
1131.451238,5973.954129,-382.945777,10492.714303
1131.451533,7046.202306,2144.496354,11794.729947
1131.451828,5820.775818,5131.473418,10875.660081
1131.452124,3906.046930,5284.651729,7812.093861
1131.452419,-229.767466,2910.387909,6586.667373
1131.452736,-5437.830040,-2680.620442,9267.287815
1131.453034,-4442.171019,-6586.667373,11335.195014
1131.453332,1531.783110,-5973.954129,11182.016703
1131.453630,6280.310751,-536.124088,11564.962480
1131.453927,4518.760174,3063.566220,12407.443191
1131.454225,765.891555,4748.527641,10492.714303
1131.454523,-2450.852976,6510.078217,11258.605858
1131.454821,-7965.272172,3829.457775,10722.481770
1131.455109,-13326.513057,-1148.837332,12177.675724
1131.455411,-10799.070925,-3752.868619,12407.443191
1131.455712,-1302.015643,-2986.977064,10875.660081
1131.456014,7429.148083,-689.302399,9803.411904
1131.456316,12024.497413,2757.209598,9880.001059
1131.456617,8501.396260,2604.031287,11641.551636
1131.456919,5820.775818,3369.922842,11028.838392
1131.457221,3293.333686,3369.922842,8424.807105
1131.457511,-2374.263820,459.534933,7199.380617
1131.457814,-3063.566220,-3752.868619,8807.752882
1131.458117,-689.302399,-5667.597507,11335.195014
1131.458419,4518.760174,-2527.442131,10875.660081
1131.458722,3599.690308,306.356622,11028.838392
1131.459024,-0.000000,2144.496354,12713.799813
1131.459327,-4825.116796,3676.279464,12790.388968
1131.459630,-7352.558928,3216.744531,10875.660081
1131.459972,-11258.605858,1225.426488,9956.590215
1131.460266,-10799.070925,-2680.620442,9267.287815
1131.460560,-5131.473418,-5973.954129,10416.125148
1131.460854,2986.977064,-7812.093861,10416.125148
1131.461148,8501.396260,-5820.775818,9956.590215
1131.461442,8654.574571,-4212.403552,10416.125148
1131.461736,5973.954129,-3140.155375,9573.644437
1131.462030,3906.046930,-1761.550576,9420.466126
1131.462313,-0.000000,-1302.015643,8195.039638
1131.462616,-1761.550576,-1608.372265,6739.845684
1131.462919,-689.302399,-4212.403552,8348.217949
1131.463222,1225.426488,-4059.225241,10722.481770
1131.463525,3906.046930,-1608.372265,11718.140791
1131.463828,1378.604799,2910.387909,12943.567279
1131.464130,-3369.922842,4978.295107,13939.226301
1131.464433,-7812.093861,4978.295107,13709.458834
1131.464715,-9880.001059,4748.527641,12101.086569
1131.465017,-12101.086569,2144.496354,10262.946837
1131.465319,-9726.822748,-2833.798753,10722.481770
1131.465621,-1302.015643,-7658.915550,11182.016703
1131.465923,8041.861327,-6280.310751,10262.946837
1131.466225,12790.388968,-4825.116796,9267.287815
1131.466527,10875.660081,-1914.728887,10722.481770
1131.466829,6893.023995,153.178311,10416.125148
1131.467107,3906.046930,3063.566220,8424.807105
1131.467408,-995.659021,3216.744531,7582.326394
1131.467710,-4595.349330,1531.783110,9420.466126
1131.468012,-2757.209598,-0.000000,10262.946837
1131.468314,765.891555,306.356622,11182.016703
1131.468615,2374.263820,3676.279464,12330.854035
1131.468917,-995.659021,5744.186662,13096.745590
1131.469219,-5437.830040,6816.434839,14015.815456
1131.469504,-6510.078217,6663.256528,11641.551636
1131.469806,-6969.613150,4442.171019,8807.752882
1131.470108,-7352.558928,-689.302399,9267.287815
1131.470410,-3829.457775,-6280.310751,9650.233593
1131.470712,4748.527641,-8577.985416,9114.109504
1131.471014,13096.745590,-8424.807105,8960.931193
1131.471315,11028.838392,-5973.954129,10722.481770
1131.471617,6127.132440,-3906.046930,10722.481770
1131.471924,3293.333686,-76.589155,9573.644437
1131.472224,-842.480710,1684.961421,6969.613150
1131.472524,-6969.613150,459.534933,7812.093861
1131.472823,-10952.249236,-3140.155375,10875.660081
1131.473123,-5744.186662,-4825.116796,12407.443191
1131.473423,2527.442131,-995.659021,11411.784169
1131.473723,5054.884263,2757.209598,10722.481770
1131.474022,1684.961421,2910.387909,12101.086569
1131.474319,-2757.209598,2910.387909,13020.156435
1131.474618,-3063.566220,2297.674665,10262.946837
1131.474917,-6203.721595,-842.480710,9114.109504
1131.475216,-9343.876971,-7965.272172,9956.590215
1131.475514,-3523.101153,-12637.210657,10722.481770
1131.475813,6127.132440,-12024.497413,10875.660081
1131.476112,11794.729947,-7965.272172,9267.287815
1131.476411,8654.574571,-5208.062574,10262.946837
1131.476706,4059.225241,-1608.372265,12101.086569
1131.477006,-229.767466,2604.031287,11028.838392
1131.477306,-4135.814397,5284.651729,8654.574571
1131.477606,-7505.737239,4978.295107,8654.574571
1131.477906,-7122.791461,2297.674665,10722.481770
1131.478206,-536.124088,1531.783110,11488.373325
1131.478507,4748.527641,4135.814397,11411.784169
1131.478807,4748.527641,6510.078217,11488.373325
1131.479095,-0.000000,5131.473418,12790.388968
1131.479396,-2067.907198,4288.992708,12254.264880
1131.479696,-3216.744531,2757.209598,10262.946837
1131.479997,-5131.473418,-76.589155,8041.861327
1131.480298,-5437.830040,-5514.419196,9114.109504
1131.480599,459.534933,-9650.233593,9880.001059
1131.480900,7429.148083,-6280.310751,10109.768526
1131.481200,9114.109504,-3140.155375,10109.768526
1131.481509,4518.760174,-536.124088,11641.551636
1131.481809,-0.000000,2297.674665,12407.443191
1131.482108,-689.302399,6510.078217,10416.125148
1131.482408,-3676.279464,7735.504705,7888.683016
1131.482707,-6356.899906,5437.830040,8807.752882
1131.483006,-2910.387909,2450.852976,11105.427547
1131.483306,4748.527641,306.356622,10109.768526
1131.483605,8041.861327,1838.139732,10569.303459
1131.483912,2527.442131,-0.000000,12254.264880
1131.484210,-2067.907198,-1914.728887,12943.567279
1131.484509,-2757.209598,-2374.263820,11335.195014
1131.484807,-5131.473418,-3446.511997,8960.931193
1131.485105,-8424.807105,-6893.023995,9803.411904
1131.485403,-8118.450483,-10492.714303,10569.303459
1131.485701,1225.426488,-9726.822748,9956.590215
1131.485999,8348.217949,-7658.915550,9420.466126
1131.486315,7582.326394,-3906.046930,10645.892614
1131.486614,2833.798753,-2374.263820,12101.086569
1131.486912,1378.604799,919.069866,10645.892614
1131.487211,-76.589155,3676.279464,8884.342038
1131.487509,-4442.171019,2297.674665,8654.574571
1131.487807,-5437.830040,-689.302399,9650.233593
1131.488106,-382.945777,-2680.620442,10722.481770
1131.488404,5054.884263,-1455.193954,11105.427547
1131.488719,6280.310751,-229.767466,11182.016703
1131.489017,3293.333686,1531.783110,12101.086569
1131.489316,-229.767466,2450.852976,11947.908258
1131.489615,-1148.837332,1378.604799,9803.411904
1131.489913,-4442.171019,-689.302399,8195.039638
1131.490212,-7352.558928,-4212.403552,9420.466126
1131.490511,-5131.473418,-6586.667373,11488.373325
1131.490809,-229.767466,-7199.380617,12101.086569
1131.491097,4518.760174,-2833.798753,11947.908258
1131.491397,3293.333686,765.891555,11258.605858
1131.491697,306.356622,4288.992708,12101.086569
1131.491997,-1608.372265,4825.116796,10262.946837
1131.492297,-2910.387909,6510.078217,9114.109504
1131.492597,-4825.116796,4135.814397,9420.466126
1131.492897,-2604.031287,-0.000000,9803.411904
1131.493197,4212.403552,-1302.015643,11182.016703
1131.493497,10722.481770,612.713244,10722.481770
1131.493795,11488.373325,4288.992708,10109.768526
1131.494094,6127.132440,4825.116796,10722.481770
1131.494393,1531.783110,3982.636086,11794.729947
1131.494692,-3216.744531,1838.139732,10722.481770
1131.494990,-9190.698660,-689.302399,9650.233593
1131.495289,-10339.535992,-3446.511997,11182.016703
1131.495588,-7199.380617,-7199.380617,11335.195014
1131.495895,-995.659021,-6127.132440,12713.799813
1131.496195,2680.620442,-3446.511997,12560.621502
1131.496495,1991.318043,-995.659021,12101.086569
1131.496795,153.178311,-229.767466,10875.660081
1131.497095,612.713244,1991.318043,9114.109504
1131.497395,-0.000000,1072.248177,7429.148083
1131.497695,-382.945777,-1608.372265,7582.326394
1131.497995,2680.620442,-4901.705952,8960.931193
1131.498316,7582.326394,-5514.419196,9114.109504
1131.498616,8501.396260,-2833.798753,9956.590215
1131.498916,5054.884263,-995.659021,10875.660081
1131.499217,-689.302399,-229.767466,11641.551636
1131.499517,-4595.349330,765.891555,11028.838392
1131.499817,-7965.272172,-0.000000,9956.590215
1131.500118,-11258.605858,-1914.728887,9803.411904
1131.500418,-11947.908258,-7046.202306,12177.675724
1131.500736,-4595.349330,-7352.558928,12943.567279
1131.501030,5054.884263,-4671.938485,10569.303459
1131.501324,8348.217949,-689.302399,10722.481770
1131.501617,3446.511997,-2221.085509,11335.195014
1131.501911,1991.318043,-382.945777,11335.195014
1131.502204,3140.155375,612.713244,8807.752882
1131.502498,1072.248177,-382.945777,6816.434839
1131.502791,-1761.550576,-1608.372265,9497.055282
1131.503109,1684.961421,-2221.085509,10416.125148
1131.503405,6586.667373,-229.767466,10416.125148
1131.503701,7888.683016,3063.566220,11028.838392
1131.503997,2986.977064,5437.830040,12254.264880
1131.504293,-4825.116796,5744.186662,12713.799813
1131.504589,-6050.543284,5591.008351,12024.497413
1131.504885,-7812.093861,5897.364973,10262.946837
1131.505181,-10186.357681,1378.604799,9956.590215
1131.505480,-8271.628794,-4212.403552,12407.443191
1131.505781,-536.124088,-4825.116796,12943.567279
1131.506082,8348.217949,-2221.085509,10569.303459
1131.506383,8195.039638,-689.302399,10416.125148
1131.506683,5820.775818,1072.248177,9803.411904
1131.506984,2680.620442,459.534933,9573.644437
1131.507285,-229.767466,459.534933,9267.287815
1131.507586,-2374.263820,612.713244,7965.272172
1131.507893,-2374.263820,-842.480710,9267.287815
1131.508194,2680.620442,-2986.977064,9803.411904
1131.508495,7429.148083,919.069866,10262.946837
1131.508796,7582.326394,4825.116796,9956.590215
1131.509097,1838.139732,3063.566220,10569.303459
1131.509397,-3216.744531,1378.604799,12024.497413
1131.509698,-5744.186662,306.356622,9956.590215
1131.509999,-10952.249236,-2986.977064,9650.233593
1131.510279,-9880.001059,-6739.845684,9650.233593
1131.510578,-5284.651729,-9497.055282,10722.481770
1131.510877,919.069866,-9880.001059,11871.319102
1131.511176,3752.868619,-6739.845684,11335.195014
1131.511475,3293.333686,-2374.263820,10416.125148
1131.511774,1991.318043,-1914.728887,10109.768526
1131.512073,-229.767466,-382.945777,9803.411904
1131.512372,-689.302399,459.534933,8807.752882
1131.512688,-1302.015643,-0.000000,8501.396260
1131.512988,1684.961421,-2833.798753,9650.233593
1131.513287,5820.775818,-2833.798753,10186.357681
1131.513586,8501.396260,1684.961421,11335.195014
1131.513885,6739.845684,4288.992708,12101.086569
1131.514184,2374.263820,4825.116796,11488.373325
1131.514484,-3523.101153,3982.636086,11182.016703
1131.514783,-7965.272172,1991.318043,10569.303459
1131.515100,-12407.443191,-2374.263820,11564.962480
1131.515398,-11947.908258,-6127.132440,11335.195014
1131.515696,-6969.613150,-8577.985416,12943.567279
1131.515994,459.534933,-6280.310751,12790.388968
1131.516291,5208.062574,-995.659021,10875.660081
1131.516589,6127.132440,1531.783110,10262.946837
1131.516887,3446.511997,4135.814397,11335.195014
1131.517185,-76.589155,4825.116796,10262.946837
1131.517485,-229.767466,5284.651729,6816.434839
1131.517785,-1148.837332,3063.566220,7275.969772
1131.518085,-995.659021,-842.480710,9573.644437
1131.518385,3599.690308,153.178311,11641.551636
1131.518685,8195.039638,3063.566220,10799.070925
1131.518985,8501.396260,5897.364973,9880.001059
1131.519285,1531.783110,4748.527641,11488.373325
1131.519585,-2910.387909,2910.387909,11488.373325
1131.519876,-5437.830040,919.069866,9650.233593
1131.520174,-7352.558928,-2221.085509,9114.109504
1131.520473,-5897.364973,-6280.310751,10262.946837
1131.520772,-1608.372265,-8424.807105,11488.373325
1131.521070,2680.620442,-4901.705952,12101.086569
1131.521369,4212.403552,-2680.620442,11488.373325
1131.521668,919.069866,-382.945777,10722.481770
1131.521966,-3216.744531,-76.589155,10262.946837
1131.522273,-5897.364973,306.356622,10569.303459
1131.522577,-6663.256528,-382.945777,8654.574571
1131.522881,-3829.457775,-1761.550576,8960.931193
1131.523185,2374.263820,-3752.868619,9880.001059
1131.523489,8807.752882,-2680.620442,9803.411904
1131.523793,10109.768526,612.713244,10569.303459
1131.524096,6586.667373,153.178311,10645.892614
1131.524400,919.069866,-229.767466,11641.551636
1131.524717,-2910.387909,-995.659021,10186.357681
1131.525011,-5744.186662,-2527.442131,8807.752882
1131.525305,-7122.791461,-5667.597507,9267.287815
1131.525599,-3369.922842,-8424.807105,11182.016703
1131.525893,2680.620442,-6739.845684,11335.195014
1131.526188,7275.969772,-3293.333686,10569.303459
1131.526482,3599.690308,919.069866,11488.373325
1131.526776,-1608.372265,1378.604799,11182.016703
1131.527103,-5744.186662,2757.209598,11028.838392
1131.527399,-7505.737239,2144.496354,9650.233593
1131.527696,-9037.520349,-995.659021,10569.303459
1131.527992,-5131.473418,-4059.225241,11335.195014
1131.528288,2986.977064,-2986.977064,10109.768526
1131.528584,9956.590215,765.891555,10416.125148
1131.528880,10722.481770,4595.349330,9956.590215
1131.529177,4518.760174,4442.171019,10109.768526
1131.529465,-1455.193954,3829.457775,10952.249236
1131.529766,-4748.527641,2757.209598,10109.768526
1131.530066,-7505.737239,-229.767466,9803.411904
1131.530367,-6203.721595,-2527.442131,10722.481770
1131.530668,-382.945777,-5667.597507,11335.195014
1131.530969,5973.954129,-2527.442131,11641.551636
1131.531269,7735.504705,1531.783110,11335.195014
1131.531570,2833.798753,2910.387909,11641.551636
1131.531879,-1914.728887,3982.636086,12101.086569
1131.532179,-4135.814397,4135.814397,10416.125148
1131.532478,-5131.473418,3523.101153,8654.574571
1131.532778,-3676.279464,612.713244,8654.574571
1131.533077,-382.945777,-3906.046930,11105.427547
1131.533376,5514.419196,-3293.333686,11488.373325
1131.533676,9420.466126,-229.767466,11335.195014
1131.533975,5054.884263,1684.961421,11335.195014
1131.534282,-382.945777,1991.318043,11947.908258
1131.534582,-4135.814397,612.713244,10875.660081
1131.534881,-6663.256528,1225.426488,9114.109504
1131.535181,-7965.272172,-1761.550576,8501.396260
1131.535481,-5744.186662,-6127.132440,9267.287815
1131.535780,-1455.193954,-8424.807105,11794.729947
1131.536080,4365.581863,-5973.954129,11794.729947
1131.536380,7046.202306,-1761.550576,10799.070925
1131.536676,2527.442131,919.069866,10262.946837
1131.536975,-1302.015643,-229.767466,10722.481770
1131.537274,-4135.814397,612.713244,9650.233593
1131.537573,-4748.527641,-1455.193954,8654.574571
1131.537871,-3216.744531,-4901.705952,9573.644437
1131.538170,2527.442131,-6586.667373,8960.931193
1131.538469,8348.217949,-3599.690308,9650.233593
1131.538768,9267.287815,-229.767466,10569.303459
1131.539063,4212.403552,612.713244,11335.195014
1131.539362,-382.945777,1838.139732,12101.086569
1131.539661,-3829.457775,2450.852976,9803.411904
1131.539961,-7658.915550,1072.248177,9114.109504
1131.540260,-6510.078217,-1455.193954,9650.233593
1131.540559,-3216.744531,-4671.938485,9956.590215
1131.540858,2680.620442,-5054.884263,11105.427547
1131.541158,5208.062574,-3906.046930,11718.140791
1131.541469,1531.783110,-689.302399,13096.745590
1131.541769,-1608.372265,-0.000000,11947.908258
1131.542069,-4595.349330,1684.961421,11947.908258
1131.542369,-5284.651729,2297.674665,9190.698660
1131.542669,-4978.295107,1225.426488,9420.466126
1131.542969,-1302.015643,-229.767466,10109.768526
1131.543269,4518.760174,-76.589155,10492.714303
1131.543569,9650.233593,3063.566220,11028.838392
1131.543869,8654.574571,4825.116796,10875.660081
1131.544168,3140.155375,6050.543284,10492.714303
1131.544467,-2221.085509,4442.171019,11641.551636
1131.544766,-4748.527641,2757.209598,10109.768526
1131.545066,-5131.473418,153.178311,9420.466126
1131.545365,-4135.814397,-2986.977064,9726.822748
1131.545664,1225.426488,-5667.597507,11182.016703
1131.545963,6586.667373,-3752.868619,10722.481770
1131.546270,6893.023995,153.178311,10033.179370
1131.546567,2144.496354,-382.945777,10645.892614
1131.546864,-3982.636086,-1148.837332,11641.551636
1131.547160,-7505.737239,-3140.155375,11335.195014
1131.547457,-9190.698660,-2986.977064,9650.233593
1131.547753,-5284.651729,-4365.581863,9114.109504
1131.548050,-0.000000,-3752.868619,8807.752882
1131.548347,7275.969772,-1914.728887,8960.931193
1131.548667,9420.466126,1684.961421,9956.590215
1131.548964,6280.310751,3982.636086,10416.125148
1131.549261,-229.767466,2297.674665,11641.551636
1131.549558,-3829.457775,306.356622,10722.481770
1131.549855,-5591.008351,-1148.837332,9267.287815
1131.550152,-5437.830040,-4825.116796,8960.931193
1131.550449,-1455.193954,-8271.628794,9803.411904
1131.550746,3446.511997,-8884.342038,10875.660081
1131.551065,7046.202306,-5208.062574,11794.729947
1131.551363,5361.240885,-2527.442131,11794.729947
1131.551661,306.356622,1225.426488,11028.838392
1131.551960,-3063.566220,1684.961421,10875.660081
1131.552258,-5744.186662,1531.783110,9803.411904
1131.552556,-6969.613150,-0.000000,9650.233593
1131.552854,-4135.814397,-1148.837332,10416.125148
1131.553152,1225.426488,-1148.837332,10722.481770
1131.553465,6893.023995,765.891555,11718.140791
1131.553764,8348.217949,5897.364973,11488.373325
1131.554062,5054.884263,6816.434839,11105.427547
1131.554361,-2067.907198,5131.473418,11488.373325
1131.554659,-6969.613150,2604.031287,10875.660081
1131.554958,-10033.179370,-1302.015643,10875.660081
1131.555256,-7352.558928,-4671.938485,10416.125148
1131.555555,-1761.550576,-7352.558928,10722.481770
1131.555854,5514.419196,-5820.775818,10569.303459
1131.556155,8041.861327,-2833.798753,11641.551636
1131.556456,5820.775818,1378.604799,11794.729947
1131.556757,1531.783110,3523.101153,11488.373325
1131.557057,-2374.263820,4825.116796,10875.660081
1131.557358,-4288.992708,4442.171019,8348.217949
1131.557659,-5131.473418,3523.101153,7965.272172
1131.557960,-1914.728887,-229.767466,9420.466126
1131.558267,3140.155375,-2680.620442,10569.303459
1131.558564,7582.326394,-382.945777,10875.660081
1131.558860,6586.667373,919.069866,10722.481770
1131.559157,-0.000000,-76.589155,11411.784169
1131.559454,-3216.744531,-995.659021,11182.016703
1131.559751,-4288.992708,-2527.442131,9956.590215
1131.560048,-7199.380617,-5361.240885,8271.628794
1131.560345,-4825.116796,-7965.272172,9190.698660
1131.560659,306.356622,-9497.055282,10569.303459
1131.560962,6739.845684,-7352.558928,10799.070925
1131.561264,7429.148083,-2680.620442,11028.838392
1131.561567,3140.155375,306.356622,11335.195014
1131.561870,-1148.837332,1531.783110,11182.016703
1131.562173,-4978.295107,2757.209598,9650.233593
1131.562475,-5744.186662,2757.209598,8884.342038
1131.562778,-6356.899906,-842.480710,9420.466126
1131.563051,-1302.015643,-2680.620442,9880.001059
1131.563354,5361.240885,-1761.550576,9956.590215
1131.563656,9497.055282,-842.480710,9956.590215
1131.563959,7275.969772,2450.852976,10569.303459
1131.564262,2374.263820,919.069866,11182.016703
1131.564564,-3829.457775,-2527.442131,12713.799813
1131.564867,-7199.380617,-3752.868619,10722.481770
1131.565169,-7505.737239,-4825.116796,9497.055282
1131.565487,-3676.279464,-6433.489062,8195.039638
1131.565782,-229.767466,-6280.310751,11335.195014
1131.566077,2527.442131,-2986.977064,12177.675724
1131.566372,3752.868619,2757.209598,12254.264880
1131.566668,306.356622,5284.651729,11718.140791
1131.566963,-2910.387909,4825.116796,10722.481770
1131.567258,-4288.992708,5131.473418,10262.946837
1131.567553,-4748.527641,4748.527641,9420.466126
1131.567853,-1302.015643,1991.318043,9114.109504
1131.568151,3446.511997,-1302.015643,10109.768526
1131.568448,7582.326394,-995.659021,11182.016703
1131.568746,8041.861327,1225.426488,11335.195014
1131.569043,3906.046930,1838.139732,11335.195014
1131.569340,-229.767466,153.178311,11564.962480
1131.569638,-2067.907198,-76.589155,9880.001059
1131.569935,-4135.814397,-689.302399,9190.698660
1131.570266,-3829.457775,-2221.085509,9114.109504
1131.570563,-3063.566220,-4365.581863,10722.481770
1131.570859,1838.139732,-3293.333686,11947.908258
1131.571156,5667.597507,765.891555,11718.140791
1131.571453,1991.318043,3829.457775,12637.210657
1131.571750,-1455.193954,4825.116796,10799.070925
1131.572047,-3982.636086,4135.814397,9573.644437
1131.572344,-7352.558928,1225.426488,10109.768526
1131.572652,-5591.008351,-1914.728887,8960.931193
1131.572952,-1455.193954,-4212.403552,9573.644437
1131.573252,4518.760174,-4365.581863,9497.055282
1131.573552,7582.326394,-3599.690308,10262.946837
1131.573851,7046.202306,-689.302399,10875.660081
1131.574151,3446.511997,459.534933,10262.946837
1131.574451,-2221.085509,-1455.193954,11335.195014
1131.574751,-5131.473418,-2527.442131,9114.109504
1131.575034,-6510.078217,-3906.046930,8654.574571
1131.575339,-4288.992708,-6280.310751,9114.109504
1131.575644,-689.302399,-8118.450483,10875.660081
1131.575948,3599.690308,-5361.240885,12713.799813
1131.576253,6127.132440,-76.589155,10722.481770
1131.576558,2986.977064,1378.604799,10875.660081
1131.576862,-1148.837332,2450.852976,11641.551636
1131.577167,-4442.171019,1684.961421,10569.303459
1131.577484,-5897.364973,765.891555,9573.644437
1131.577782,-4748.527641,-1455.193954,9114.109504
1131.578079,-842.480710,-4365.581863,10262.946837
1131.578377,3906.046930,-4671.938485,11411.784169
1131.578674,7122.791461,-995.659021,10875.660081
1131.578972,6127.132440,2757.209598,11488.373325
1131.579269,1991.318043,3523.101153,11488.373325
1131.579566,-995.659021,2144.496354,10109.768526
1131.579856,-5744.186662,1072.248177,9650.233593
1131.580152,-7658.915550,-1761.550576,10569.303459
1131.580448,-4825.116796,-4518.760174,11182.016703
1131.580744,-1455.193954,-4518.760174,11335.195014
1131.581039,4212.403552,-1455.193954,11794.729947
1131.581335,4748.527641,2604.031287,12637.210657
1131.581631,2527.442131,5131.473418,10645.892614
1131.581927,919.069866,5284.651729,10416.125148
1131.582241,-382.945777,3982.636086,9650.233593
1131.582539,-4748.527641,-536.124088,9037.520349
1131.582837,-2910.387909,-3446.511997,9956.590215
1131.583134,2680.620442,-4671.938485,9803.411904
1131.583432,7735.504705,-2986.977064,9497.055282
1131.583730,8195.039638,-0.000000,9573.644437
1131.584028,1991.318043,1225.426488,10799.070925
1131.584326,919.069866,3216.744531,10645.892614
1131.584633,-2757.209598,1225.426488,9803.411904
1131.584933,-7199.380617,-842.480710,8960.931193
1131.585234,-9343.876971,-4059.225241,9573.644437
1131.585534,-5897.364973,-6739.845684,10875.660081
1131.585835,1225.426488,-7046.202306,11182.016703
1131.586135,5361.240885,-4059.225241,11488.373325
1131.586436,2374.263820,-1148.837332,12560.621502
1131.586737,-229.767466,1378.604799,11258.605858
1131.587033,-0.000000,1991.318043,11182.016703
1131.587333,-1148.837332,2757.209598,9343.876971
1131.587634,-995.659021,1684.961421,8195.039638
1131.587934,459.534933,-1914.728887,8731.163727
1131.588234,3906.046930,-3293.333686,10416.125148
1131.588535,8195.039638,-1761.550576,11182.016703
1131.588835,6586.667373,765.891555,10569.303459
1131.589135,612.713244,1991.318043,11488.373325
1131.589430,-4978.295107,612.713244,11794.729947
1131.589731,-7658.915550,306.356622,11028.838392
1131.590031,-8731.163727,-689.302399,9956.590215
1131.590331,-7812.093861,-4365.581863,11105.427547
1131.590631,-2374.263820,-6893.023995,11641.551636
1131.590931,5361.240885,-2833.798753,9956.590215
1131.591231,7582.326394,153.178311,9956.590215
1131.591531,2374.263820,-995.659021,12101.086569
1131.591819,-1608.372265,-689.302399,13709.458834
1131.592120,-1608.372265,1072.248177,10722.481770
1131.592421,-1761.550576,1838.139732,7888.683016
1131.592722,-995.659021,459.534933,7812.093861
1131.593023,1225.426488,-0.000000,9573.644437
1131.593324,5361.240885,612.713244,10109.768526
1131.593624,6586.667373,3063.566220,11335.195014
1131.593925,2144.496354,5437.830040,11488.373325
1131.594234,-2374.263820,4288.992708,11028.838392
1131.594533,-4135.814397,3216.744531,11182.016703
1131.594832,-4442.171019,919.069866,9803.411904
1131.595131,-4288.992708,-1914.728887,9573.644437
1131.595430,-1761.550576,-5054.884263,9267.287815
1131.595729,2297.674665,-6127.132440,9956.590215
1131.596028,5208.062574,-4901.705952,11488.373325
1131.596326,4212.403552,-2833.798753,12713.799813
1131.596633,-536.124088,-1302.015643,11794.729947
1131.596932,-2910.387909,-229.767466,11182.016703
1131.597230,-3676.279464,-0.000000,9650.233593
1131.597528,-4135.814397,-229.767466,8654.574571
1131.597826,-1761.550576,306.356622,8501.396260
1131.598124,1991.318043,-842.480710,10416.125148
1131.598422,6280.310751,765.891555,11028.838392
1131.598720,7735.504705,4595.349330,10416.125148
1131.599036,3906.046930,3982.636086,10569.303459
1131.599335,-1608.372265,919.069866,12024.497413
1131.599633,-3216.744531,-1761.550576,10186.357681
1131.599932,-4825.116796,-4825.116796,8654.574571
1131.600230,-5284.651729,-8577.985416,8041.861327
1131.600528,-3982.636086,-12790.388968,11182.016703
1131.600827,-1302.015643,-13709.458834,13709.458834
1131.601125,1838.139732,-8118.450483,12713.799813
1131.601440,3293.333686,-2374.263820,10569.303459
1131.601738,306.356622,1072.248177,10262.946837
1131.602037,-1302.015643,1991.318043,10109.768526
1131.602336,-2374.263820,4595.349330,8807.752882
1131.602634,-2374.263820,4442.171019,8807.752882
1131.602933,-536.124088,919.069866,9573.644437
1131.603232,2680.620442,-0.000000,10416.125148
1131.603531,7429.148083,1531.783110,11028.838392
1131.603819,8041.861327,4288.992708,9956.590215
1131.604119,1378.604799,2910.387909,10722.481770
1131.604419,-4135.814397,612.713244,12254.264880
1131.604719,-6816.434839,-1302.015643,11182.016703
1131.605018,-6510.078217,-2680.620442,9420.466126
1131.605318,-5437.830040,-5514.419196,9573.644437
1131.605618,-2067.907198,-7046.202306,11258.605858
1131.605918,2680.620442,-4059.225241,12790.388968
1131.606218,6280.310751,919.069866,11182.016703
1131.606517,5667.597507,5131.473418,10416.125148
1131.606816,1531.783110,6050.543284,11028.838392
1131.607116,-1302.015643,5284.651729,9803.411904
1131.607415,-2604.031287,5744.186662,9267.287815
1131.607714,-1914.728887,4135.814397,9803.411904
1131.608013,1072.248177,1072.248177,9343.876971
1131.608313,5514.419196,459.534933,9803.411904
1131.608620,6127.132440,1072.248177,10262.946837
1131.608919,2144.496354,1378.604799,11488.373325
1131.609218,-2221.085509,-229.767466,12713.799813
1131.609517,-3829.457775,-2067.907198,11182.016703
1131.609817,-5131.473418,-4212.403552,9190.698660
1131.610116,-7199.380617,-5820.775818,9114.109504
1131.610415,-5437.830040,-7352.558928,10416.125148
1131.610714,-229.767466,-7658.915550,10569.303459
1131.611035,3906.046930,-4671.938485,12407.443191
1131.611335,4748.527641,-689.302399,11488.373325
1131.611636,1072.248177,1838.139732,9880.001059
1131.611936,-1302.015643,2144.496354,10722.481770
1131.612236,-2604.031287,765.891555,9420.466126
1131.612537,-3523.101153,-1608.372265,9037.520349
1131.612837,-2604.031287,-3140.155375,9803.411904
1131.613137,3293.333686,-4825.116796,9573.644437
1131.613410,8807.752882,-3906.046930,10262.946837
1131.613711,9420.466126,-1455.193954,10569.303459
1131.614011,6127.132440,153.178311,10875.660081
1131.614311,459.534933,919.069866,10186.357681
1131.614611,-4595.349330,-229.767466,9956.590215
1131.614911,-10339.535992,-3906.046930,10416.125148
1131.615211,-11947.908258,-5054.884263,10799.070925
1131.615511,-6816.434839,-6280.310751,12024.497413
1131.615828,-76.589155,-4212.403552,11488.373325
1131.616127,4901.705952,-76.589155,11182.016703
1131.616427,3599.690308,4135.814397,11641.551636
1131.616726,1684.961421,4442.171019,12101.086569
1131.617026,-995.659021,4135.814397,10875.660081
1131.617325,-1608.372265,3829.457775,8041.861327
1131.617624,-2757.209598,1838.139732,8041.861327
1131.617924,-1148.837332,-3140.155375,9650.233593
1131.618223,2527.442131,-5054.884263,12407.443191
1131.618521,7735.504705,-2374.263820,12254.264880
1131.618818,9497.055282,3523.101153,9573.644437
1131.619115,4748.527641,5591.008351,10033.179370
1131.619413,-76.589155,4595.349330,10569.303459
1131.619710,-4135.814397,4825.116796,10416.125148
1131.620008,-6663.256528,3829.457775,9114.109504
1131.620305,-9190.698660,-1608.372265,10416.125148
1131.620612,-7122.791461,-5973.954129,12254.264880
1131.620913,306.356622,-3446.511997,12790.388968
1131.621214,5208.062574,-1148.837332,10875.660081
1131.621515,4671.938485,1225.426488,10109.768526
1131.621816,-382.945777,-0.000000,10875.660081
1131.622117,-3063.566220,-995.659021,10109.768526
1131.622418,-4442.171019,-1148.837332,9420.466126
1131.622719,-3676.279464,-3140.155375,8424.807105
1131.622999,-382.945777,-5820.775818,9573.644437
1131.623304,5820.775818,-5054.884263,9880.001059
1131.623609,10109.768526,459.534933,10722.481770
1131.623914,9267.287815,3369.922842,10416.125148
1131.624219,2680.620442,3063.566220,10109.768526
1131.624525,-2221.085509,2757.209598,11028.838392
1131.624830,-6663.256528,919.069866,9267.287815
1131.625135,-9573.644437,-2374.263820,9573.644437
1131.625454,-9037.520349,-7812.093861,11335.195014
1131.625746,-4442.171019,-9880.001059,13020.156435
1131.626039,3140.155375,-7812.093861,11947.908258
1131.626332,4212.403552,-3752.868619,10722.481770
1131.626624,1072.248177,-2680.620442,11335.195014
1131.626917,-1761.550576,-2067.907198,11947.908258
1131.627209,-2067.907198,-842.480710,10952.249236
1131.627502,-3063.566220,-229.767466,8195.039638
1131.627819,-1302.015643,-1455.193954,8348.217949
1131.628117,2374.263820,-2374.263820,9956.590215
1131.628415,9956.590215,306.356622,10416.125148
1131.628713,10722.481770,4442.171019,11028.838392
1131.629011,6893.023995,6816.434839,10262.946837
1131.629308,-536.124088,7122.791461,11182.016703
1131.629606,-4978.295107,5437.830040,10722.481770
1131.629904,-8424.807105,2757.209598,9956.590215
1131.630169,-10186.357681,-1608.372265,10262.946837
1131.630474,-8118.450483,-7046.202306,12254.264880
1131.630779,-1608.372265,-8271.628794,12866.978124
1131.631084,5361.240885,-3906.046930,11028.838392
1131.631389,5973.954129,-1455.193954,12177.675724
1131.631694,2374.263820,1072.248177,11335.195014
1131.631999,765.891555,2604.031287,9803.411904
1131.632304,-842.480710,3982.636086,8654.574571
1131.632594,-1761.550576,2757.209598,7582.326394
1131.632896,-1455.193954,-0.000000,9650.233593
1131.633197,2680.620442,-76.589155,10339.535992
1131.633498,8501.396260,3063.566220,10109.768526
1131.633800,7582.326394,5591.008351,10416.125148
1131.634101,1531.783110,6050.543284,11182.016703
1131.634402,-3982.636086,2757.209598,12101.086569
1131.634703,-6816.434839,1378.604799,9803.411904
1131.635010,-9037.520349,-1761.550576,9114.109504
1131.635308,-9497.055282,-7199.380617,9267.287815
1131.635605,-6356.899906,-11564.962480,12101.086569
1131.635902,612.713244,-11258.605858,13249.923901
1131.636199,4748.527641,-8118.450483,11641.551636
1131.636496,3906.046930,-4059.225241,11335.195014
1131.636794,2833.798753,-1302.015643,9650.233593
1131.637091,1072.248177,1378.604799,9803.411904
1131.637421,1225.426488,2910.387909,6893.023995
1131.637717,1531.783110,1378.604799,6663.256528
1131.638013,1378.604799,-1148.837332,9343.876971
1131.638310,4365.581863,-3906.046930,11335.195014
1131.638606,5973.954129,-1761.550576,12866.978124
1131.638903,5208.062574,2604.031287,11335.195014
1131.639199,-689.302399,2604.031287,11335.195014
1131.639495,-6050.543284,1531.783110,11488.373325
1131.639790,-9343.876971,153.178311,11335.195014
1131.640091,-9573.644437,-2374.263820,9650.233593
1131.640392,-8271.628794,-5514.419196,10799.070925
1131.640693,-4442.171019,-7812.093861,13632.869679
1131.640994,3906.046930,-5208.062574,11564.962480
1131.641294,7888.683016,765.891555,10109.768526
1131.641595,6127.132440,2297.674665,9573.644437
1131.641896,2374.263820,3216.744531,10875.660081
1131.642208,-0.000000,2910.387909,9650.233593
1131.642505,-0.000000,3829.457775,7275.969772
1131.642802,1531.783110,1838.139732,7582.326394
1131.643098,3140.155375,-1914.728887,9956.590215
1131.643395,6127.132440,-689.302399,12101.086569
1131.643692,6280.310751,3523.101153,10722.481770
1131.643988,2527.442131,5131.473418,11335.195014
1131.644285,-4748.527641,3982.636086,12101.086569
1131.644599,-9880.001059,2604.031287,12560.621502
1131.644897,-11411.784169,919.069866,10875.660081
1131.645194,-10033.179370,-1761.550576,10492.714303
1131.645492,-6050.543284,-5973.954129,12254.264880
1131.645790,3446.511997,-5514.419196,11794.729947
1131.646088,9803.411904,-1608.372265,10109.768526
1131.646386,9497.055282,1531.783110,9956.590215
1131.646684,4365.581863,1531.783110,10262.946837
1131.646991,1072.248177,1838.139732,9650.233593
1131.647290,-995.659021,459.534933,6969.613150
1131.647590,-2757.209598,-2527.442131,7888.683016
1131.647890,-2604.031287,-6127.132440,9956.590215
1131.648189,2144.496354,-6739.845684,11182.016703
1131.648489,7046.202306,-5054.884263,11258.605858
1131.648789,4901.705952,-689.302399,12101.086569
1131.649088,-382.945777,1378.604799,11488.373325
1131.649385,-5591.008351,1991.318043,11718.140791
1131.649688,-7965.272172,2297.674665,10722.481770
1131.649991,-10645.892614,-536.124088,8960.931193
1131.650293,-9497.055282,-4518.760174,10186.357681
1131.650596,-2450.852976,-8577.985416,10722.481770
1131.650899,5820.775818,-7352.558928,10569.303459
1131.651202,11182.016703,-3752.868619,10339.535992
1131.651505,8041.861327,-842.480710,9803.411904
1131.651800,3140.155375,459.534933,10262.946837
1131.652100,-689.302399,1838.139732,9956.590215
1131.652400,-3063.566220,1072.248177,7582.326394
1131.652700,-4825.116796,-1148.837332,8041.861327
1131.653000,-4288.992708,-4059.225241,9880.001059
1131.653301,2144.496354,-4825.116796,11335.195014
1131.653601,4901.705952,-2067.907198,13249.923901
1131.653901,3446.511997,1684.961421,12713.799813
1131.654213,306.356622,5131.473418,11641.551636
1131.654510,-3369.922842,5897.364973,10875.660081
1131.654807,-4288.992708,4442.171019,9037.520349
1131.655105,-5131.473418,1838.139732,8654.574571
1131.655402,-3982.636086,-1761.550576,10109.768526
1131.655700,-76.589155,-5820.775818,10875.660081
1131.655997,5514.419196,-4365.581863,12330.854035
1131.656295,7275.969772,153.178311,11794.729947
1131.656604,3446.511997,2450.852976,10186.357681
1131.656900,-1914.728887,2604.031287,11947.908258
1131.657196,-4135.814397,2757.209598,10033.179370
1131.657492,-6203.721595,2910.387909,8654.574571
1131.657788,-3982.636086,-0.000000,9803.411904
1131.658084,2374.263820,-2527.442131,10569.303459
1131.658380,9114.109504,-1148.837332,11028.838392
1131.658676,9803.411904,1225.426488,10416.125148
1131.658983,5361.240885,3523.101153,10875.660081
1131.659286,-2604.031287,2297.674665,11947.908258
1131.659588,-6663.256528,919.069866,10875.660081
1131.659890,-10186.357681,-76.589155,9880.001059
1131.660192,-9880.001059,-2221.085509,8348.217949
1131.660494,-4442.171019,-5514.419196,9956.590215
1131.660797,919.069866,-7352.558928,11794.729947
1131.661099,7735.504705,-4365.581863,10875.660081
1131.661415,7122.791461,-1148.837332,10416.125148
1131.661714,2680.620442,-536.124088,10416.125148
1131.662012,-1302.015643,-2067.907198,11182.016703
1131.662310,-4748.527641,-1914.728887,9497.055282
1131.662609,-4748.527641,-3446.511997,8501.396260
1131.662907,-1455.193954,-6433.489062,8348.217949
1131.663206,4212.403552,-5208.062574,9956.590215
1131.663504,9650.233593,-2986.977064,10109.768526
1131.663818,8195.039638,612.713244,11335.195014
1131.664113,919.069866,1838.139732,12407.443191
1131.664408,-4288.992708,3369.922842,11335.195014
1131.664703,-8118.450483,3676.279464,10722.481770
1131.664998,-10492.714303,1838.139732,9037.520349
1131.665293,-9497.055282,-2374.263820,10416.125148
1131.665588,-3523.101153,-5973.954129,12101.086569
1131.665883,5973.954129,-5208.062574,11182.016703
1131.666232,9420.466126,-2833.798753,11028.838392
1131.666525,6127.132440,-689.302399,11182.016703
1131.666818,459.534933,306.356622,12560.621502
1131.667112,-2604.031287,2604.031287,10875.660081
1131.667405,-4825.116796,1838.139732,7965.272172
1131.667698,-5284.651729,1072.248177,8807.752882
1131.667992,-2221.085509,-2067.907198,9956.590215
1131.668285,5054.884263,-2221.085509,11488.373325
1131.668584,10875.660081,2910.387909,10875.660081
1131.668884,7735.504705,6203.721595,11028.838392
1131.669183,2297.674665,7429.148083,11335.195014
1131.669482,-2067.907198,8501.396260,11028.838392
1131.669781,-4825.116796,7582.326394,9573.644437
1131.670081,-7658.915550,3523.101153,8807.752882
1131.670380,-8424.807105,-2527.442131,9956.590215
1131.670679,-3523.101153,-7199.380617,11794.729947
1131.670986,1378.604799,-9037.520349,13249.923901
1131.671289,2833.798753,-6586.667373,12943.567279
1131.671591,1378.604799,-3446.511997,10645.892614
1131.671894,-382.945777,-1608.372265,9956.590215
1131.672196,-1302.015643,-76.589155,9267.287815
1131.672499,-3523.101153,612.713244,8041.861327
1131.672801,-1455.193954,-689.302399,7735.504705
1131.673104,3446.511997,-2833.798753,8501.396260
1131.673425,8807.752882,-2067.907198,9956.590215
1131.673722,10569.303459,765.891555,10722.481770
1131.674019,5208.062574,3063.566220,10722.481770
1131.674316,-382.945777,3676.279464,11564.962480
1131.674613,-6356.899906,1991.318043,10416.125148
1131.674910,-11105.427547,-536.124088,10109.768526
1131.675207,-13326.513057,-5514.419196,11335.195014
1131.675504,-9343.876971,-9650.233593,11947.908258
1131.675777,919.069866,-10492.714303,11794.729947
1131.676077,6586.667373,-7352.558928,11028.838392
1131.676377,7046.202306,-4825.116796,11028.838392
1131.676677,3140.155375,-1608.372265,11488.373325
1131.676977,612.713244,612.713244,10722.481770
1131.677277,-1148.837332,2144.496354,8501.396260
1131.677577,-3829.457775,1838.139732,7658.915550
1131.677877,-2450.852976,306.356622,9420.466126
1131.678223,4365.581863,-689.302399,10262.946837
1131.678515,10569.303459,1684.961421,11488.373325
1131.678807,10416.125148,4978.295107,9880.001059
1131.679099,2833.798753,5744.186662,10262.946837
1131.679391,-5284.651729,3063.566220,12407.443191
1131.679683,-8731.163727,1991.318043,11794.729947
1131.679975,-13479.691368,-689.302399,10875.660081
1131.680267,-13020.156435,-4518.760174,11028.838392
1131.680566,-5897.364973,-6433.489062,11028.838392
1131.680867,4748.527641,-5208.062574,11641.551636
1131.681168,9803.411904,-1148.837332,11335.195014
1131.681469,8960.931193,1531.783110,10722.481770
1131.681769,4365.581863,4978.295107,10416.125148
1131.682070,1684.961421,7122.791461,9956.590215
1131.682371,-2604.031287,7275.969772,7735.504705
1131.682672,-4978.295107,4748.527641,8195.039638
1131.682979,-3676.279464,306.356622,9803.411904
1131.683276,2986.977064,-2374.263820,10722.481770
1131.683573,5820.775818,-995.659021,11794.729947
1131.683870,5514.419196,612.713244,11028.838392
1131.684166,-229.767466,153.178311,11105.427547
1131.684463,-4135.814397,-995.659021,11641.551636
1131.684760,-7199.380617,-2067.907198,10416.125148
1131.685057,-8884.342038,-4365.581863,8731.163727
1131.685365,-6969.613150,-7046.202306,9497.055282
1131.685665,-229.767466,-9726.822748,11182.016703
1131.685965,6586.667373,-8118.450483,11794.729947
1131.686265,10722.481770,-1455.193954,10109.768526
1131.686564,6280.310751,919.069866,9803.411904
1131.686864,919.069866,1072.248177,10569.303459
1131.687164,-4748.527641,2144.496354,11028.838392
1131.687464,-8118.450483,2297.674665,9343.876971
1131.687781,-6510.078217,-689.302399,8501.396260
1131.688080,-1608.372265,-4212.403552,9726.822748
1131.688379,4748.527641,-5667.597507,11028.838392
1131.688678,9420.466126,-3446.511997,11947.908258
1131.688977,7429.148083,-995.659021,10952.249236
1131.689276,3140.155375,-382.945777,10569.303459
1131.689576,-2604.031287,-995.659021,10262.946837
1131.689875,-9037.520349,-689.302399,9803.411904
1131.690192,-9880.001059,-2833.798753,9114.109504
1131.690490,-7965.272172,-6127.132440,11028.838392
1131.690788,-2374.263820,-8118.450483,12637.210657
1131.691085,5820.775818,-2680.620442,11028.838392
1131.691383,8348.217949,1838.139732,11105.427547
1131.691681,4901.705952,4595.349330,10339.535992
1131.691979,-1148.837332,4748.527641,12254.264880
1131.692276,-4595.349330,5897.364973,10416.125148
1131.692553,-5897.364973,5437.830040,9267.287815
1131.692856,-2910.387909,2910.387909,9267.287815
1131.693158,2374.263820,-2221.085509,10262.946837
1131.693461,9420.466126,-995.659021,11028.838392
1131.693763,11028.838392,459.534933,11028.838392
1131.694066,6280.310751,2144.496354,10416.125148
1131.694368,919.069866,1991.318043,11335.195014
1131.694671,-6050.543284,1684.961421,11335.195014
1131.694957,-10186.357681,1072.248177,9650.233593
1131.695259,-10033.179370,-842.480710,10109.768526
1131.695561,-4978.295107,-3599.690308,11028.838392
1131.695863,4059.225241,-4059.225241,11028.838392
1131.696165,10875.660081,-382.945777,9650.233593
1131.696468,8348.217949,2297.674665,9267.287815
1131.696770,459.534933,765.891555,11641.551636
1131.697072,-4135.814397,-76.589155,11794.729947
1131.697379,-7658.915550,-0.000000,9803.411904
1131.697676,-8271.628794,-995.659021,9267.287815
1131.697973,-5744.186662,-4518.760174,9267.287815
1131.698271,2680.620442,-5514.419196,9956.590215
1131.698568,9420.466126,-3293.333686,10262.946837
1131.698865,10109.768526,-1302.015643,9803.411904
1131.699162,4901.705952,-536.124088,9956.590215
1131.699459,-2221.085509,-1455.193954,11182.016703
1131.699756,-7352.558928,-2680.620442,10339.535992
1131.700057,-10033.179370,-3140.155375,9573.644437
1131.700358,-7352.558928,-3752.868619,9573.644437
1131.700659,-1914.728887,-8118.450483,10875.660081
1131.700960,5054.884263,-5208.062574,11182.016703
1131.701261,8348.217949,-1761.550576,11641.551636
1131.701562,5054.884263,-229.767466,11335.195014
1131.701863,153.178311,1072.248177,11335.195014
1131.702158,-4595.349330,1838.139732,10416.125148
1131.702459,-7199.380617,2297.674665,9650.233593
1131.702760,-5897.364973,765.891555,10186.357681
1131.703061,1225.426488,-2986.977064,9497.055282
1131.703362,7429.148083,-3140.155375,10492.714303
1131.703663,11488.373325,-76.589155,10645.892614
1131.703964,7888.683016,3216.744531,10262.946837
1131.704264,1378.604799,2757.209598,12177.675724
1131.704553,-5591.008351,2450.852976,12407.443191
1131.704853,-11105.427547,4748.527641,10952.249236
1131.705154,-11105.427547,3216.744531,8807.752882
1131.705455,-7965.272172,-382.945777,9573.644437
1131.705756,-2910.387909,-4901.705952,12254.264880
1131.706057,2527.442131,-4825.116796,13709.458834
1131.706357,7122.791461,919.069866,12943.567279
1131.706658,6739.845684,3063.566220,10109.768526
1131.706967,2527.442131,3063.566220,9880.001059
1131.707267,-536.124088,3216.744531,9650.233593
1131.707566,-2604.031287,3063.566220,7965.272172
1131.707866,-536.124088,-0.000000,8501.396260
1131.708165,2680.620442,-4365.581863,9956.590215
1131.708464,8960.931193,-2527.442131,11105.427547
1131.708764,10416.125148,1378.604799,9650.233593
1131.709063,5667.597507,2604.031287,9956.590215
1131.709370,-3216.744531,1531.783110,11794.729947
1131.709670,-9037.520349,919.069866,10722.481770
1131.709970,-14322.172078,-0.000000,10416.125148
1131.710269,-14092.404612,-3140.155375,10569.303459
1131.710569,-7199.380617,-7965.272172,11182.016703
1131.710869,3446.511997,-8118.450483,10875.660081
1131.711168,11871.319102,-3293.333686,10722.481770
1131.711468,10722.481770,-1302.015643,9420.466126
1131.711765,5054.884263,-1302.015643,11182.016703
1131.712063,-1148.837332,-1608.372265,11794.729947
1131.712361,-5897.364973,-536.124088,9573.644437
1131.712659,-9037.520349,-2067.907198,8577.985416
1131.712957,-4978.295107,-5208.062574,9420.466126
1131.713255,4365.581863,-5973.954129,10492.714303
1131.713553,13096.745590,-229.767466,9573.644437
1131.713851,14168.993767,4288.992708,8577.985416
1131.714166,4671.938485,3829.457775,10262.946837
1131.714464,-4135.814397,3676.279464,12790.388968
1131.714763,-10186.357681,3216.744531,11488.373325
1131.715062,-14322.172078,1225.426488,10416.125148
1131.715360,-14092.404612,-3446.511997,11028.838392
1131.715659,-6356.899906,-7352.558928,11564.962480
1131.715958,4212.403552,-5820.775818,12330.854035
1131.716256,10109.768526,-2680.620442,10799.070925
1131.716545,7582.326394,-0.000000,11641.551636
1131.716845,919.069866,765.891555,11947.908258
1131.717145,-2221.085509,3216.744531,9803.411904
1131.717445,-5284.651729,5131.473418,8807.752882
1131.717745,-5591.008351,2910.387909,8654.574571
1131.718045,153.178311,-229.767466,10416.125148
1131.718345,10109.768526,765.891555,9420.466126
1131.718645,15777.366033,4978.295107,9037.520349
1131.718944,11488.373325,6356.899906,9956.590215
1131.719244,1991.318043,4748.527641,12254.264880
1131.719545,-5591.008351,3829.457775,12254.264880
1131.719845,-11411.784169,3829.457775,10416.125148
1131.720145,-15088.063633,153.178311,9650.233593
1131.720445,-12407.443191,-5820.775818,11182.016703
1131.720745,-3982.636086,-8884.342038,12560.621502
1131.721045,4748.527641,-8118.450483,12254.264880
1131.721352,8041.861327,-3293.333686,11182.016703
1131.721651,6127.132440,-1761.550576,10262.946837
1131.721950,1991.318043,-229.767466,10416.125148
1131.722250,-689.302399,1684.961421,9726.822748
1131.722549,-3829.457775,2604.031287,7582.326394
1131.722848,-2604.031287,1072.248177,8348.217949
1131.723147,2986.977064,-2374.263820,9420.466126
1131.723446,10416.125148,-995.659021,9420.466126
1131.723750,11488.373325,1072.248177,9803.411904
1131.724050,4059.225241,-76.589155,10569.303459
1131.724351,-4825.116796,-1608.372265,12866.978124
1131.724651,-10339.535992,-3752.868619,12254.264880
1131.724951,-13632.869679,-4825.116796,10109.768526
1131.725252,-13020.156435,-7046.202306,10569.303459
1131.725552,-7122.791461,-9880.001059,9956.590215
1131.725852,4365.581863,-9497.055282,11028.838392
1131.726171,11182.016703,-5054.884263,10262.946837
1131.726469,9650.233593,-1455.193954,10492.714303
1131.726767,3293.333686,-229.767466,12101.086569
1131.727065,-2067.907198,1378.604799,10262.946837
1131.727364,-4825.116796,4978.295107,9420.466126
1131.727662,-7352.558928,4595.349330,8731.163727
1131.727960,-2450.852976,1225.426488,9267.287815
1131.728258,5208.062574,1225.426488,10262.946837
1131.728571,11641.551636,2604.031287,9573.644437
1131.728867,8807.752882,3829.457775,11182.016703
1131.729163,2374.263820,2910.387909,12790.388968
1131.729459,-3676.279464,1225.426488,13096.745590
1131.729756,-7965.272172,919.069866,11182.016703
1131.730052,-11564.962480,459.534933,9497.055282
1131.730348,-10799.070925,-1914.728887,10262.946837
1131.730644,-2374.263820,-5667.597507,11335.195014
1131.730943,4901.705952,-3752.868619,11794.729947
1131.731244,9267.287815,-0.000000,10569.303459
1131.731545,5361.240885,3369.922842,12024.497413
1131.731846,3140.155375,4442.171019,11794.729947
1131.732146,1991.318043,7429.148083,8960.931193
1131.732447,-689.302399,7735.504705,7275.969772
1131.732748,-3829.457775,3216.744531,7658.915550
1131.733049,-995.659021,-1302.015643,9956.590215
1131.733356,5514.419196,-3293.333686,10875.660081
1131.733653,7735.504705,-2680.620442,11028.838392
1131.733949,3752.868619,-1455.193954,12101.086569
1131.734246,-3063.566220,-689.302399,11641.551636
1131.734543,-7352.558928,306.356622,11488.373325
1131.734840,-12254.264880,-2374.263820,10952.249236
1131.735137,-13786.047990,-4212.403552,10645.892614
1131.735434,-8271.628794,-7352.558928,10262.946837
1131.735748,1684.961421,-8731.163727,9497.055282
1131.736047,9803.411904,-7505.737239,9726.822748
1131.736347,11871.319102,-2833.798753,10416.125148
1131.736646,7888.683016,-1608.372265,10416.125148
1131.736946,3293.333686,153.178311,9726.822748
1131.737245,-1148.837332,1531.783110,9114.109504
1131.737544,-5591.008351,765.891555,8960.931193
1131.737844,-5131.473418,-1302.015643,9267.287815
1131.738163,765.891555,-4901.705952,10109.768526
1131.738458,6893.023995,-4212.403552,10875.660081
1131.738753,7122.791461,-1455.193954,11947.908258
1131.739048,2374.263820,612.713244,12560.621502
1131.739343,-3523.101153,-0.000000,12713.799813
1131.739639,-8271.628794,1838.139732,12254.264880
1131.739934,-10645.892614,3063.566220,10109.768526
1131.740229,-8424.807105,1378.604799,8501.396260
1131.740546,-2374.263820,-1608.372265,9267.287815
1131.740844,4901.705952,-5054.884263,11335.195014
1131.741142,11641.551636,-536.124088,10569.303459
1131.741440,10109.768526,765.891555,9267.287815
1131.741737,3140.155375,612.713244,11564.962480
1131.742035,-4288.992708,-1608.372265,12790.388968
1131.742333,-8118.450483,612.713244,12024.497413
1131.742631,-7505.737239,2604.031287,9114.109504
1131.742931,-2067.907198,306.356622,7888.683016
1131.743231,4901.705952,-382.945777,9726.822748
1131.743531,10569.303459,1531.783110,9956.590215
1131.743831,9650.233593,4748.527641,10952.249236
1131.744131,1838.139732,4442.171019,12713.799813
1131.744431,-4442.171019,4135.814397,12713.799813
1131.744731,-7352.558928,4978.295107,10416.125148
1131.745031,-10033.179370,4288.992708,8501.396260
1131.745322,-8731.163727,-689.302399,9880.001059
1131.745624,-2374.263820,-6127.132440,10875.660081
1131.745927,6739.845684,-6127.132440,10722.481770
1131.746229,9497.055282,-4518.760174,11335.195014
1131.746532,5667.597507,-2986.977064,11028.838392
1131.746835,459.534933,-2680.620442,10645.892614
1131.747137,-4442.171019,-842.480710,9956.590215
1131.747440,-7352.558928,-995.659021,9420.466126
1131.747748,-6356.899906,-1761.550576,9190.698660
1131.748048,1225.426488,-3446.511997,9420.466126
1131.748347,10262.946837,-4059.225241,8884.342038
1131.748647,13709.458834,-536.124088,9956.590215
1131.748947,7888.683016,1378.604799,11641.551636
1131.749247,-842.480710,1838.139732,12790.388968
1131.749547,-6969.613150,2757.209598,11794.729947
1131.749846,-12101.086569,2757.209598,9420.466126
1131.750130,-16466.668432,-1148.837332,9803.411904
1131.750433,-13173.334746,-6127.132440,11488.373325
1131.750735,-2374.263820,-8731.163727,12101.086569
1131.751038,8807.752882,-7812.093861,11411.784169
1131.751341,12484.032346,-3293.333686,10569.303459
1131.751644,8807.752882,-2067.907198,9267.287815
1131.751947,3752.868619,-536.124088,10262.946837
1131.752250,-1608.372265,-382.945777,10569.303459
1131.752531,-5437.830040,306.356622,8807.752882
1131.752834,-4748.527641,-229.767466,8195.039638
1131.753137,1378.604799,-2833.798753,9956.590215
1131.753439,8654.574571,-1302.015643,10109.768526
1131.753742,9650.233593,1684.961421,10875.660081
1131.754045,3906.046930,4748.527641,11488.373325
1131.754347,-3982.636086,4748.527641,12101.086569
1131.754650,-9343.876971,5437.830040,12101.086569
1131.754940,-12407.443191,5744.186662,10416.125148
1131.755236,-12407.443191,1684.961421,10416.125148
1131.755532,-6356.899906,-3446.511997,11794.729947
1131.755827,5054.884263,-6127.132440,10875.660081
1131.756123,12177.675724,-2833.798753,10033.179370
1131.756419,10262.946837,-1455.193954,11182.016703
1131.756715,4901.705952,-842.480710,11794.729947
1131.757011,153.178311,-229.767466,10722.481770
1131.757324,-3369.922842,2450.852976,9420.466126
1131.757622,-6050.543284,2450.852976,8195.039638
1131.757920,-2757.209598,-995.659021,9420.466126
1131.758218,4901.705952,-1148.837332,10109.768526
1131.758516,12943.567279,2604.031287,10109.768526
1131.758814,11488.373325,6050.543284,9420.466126
1131.759112,3446.511997,5437.830040,11335.195014
1131.759409,-7812.093861,3063.566220,13249.923901
1131.759716,-14781.707011,612.713244,12790.388968
1131.760016,-18075.040698,-1608.372265,10569.303459
1131.760316,-13632.869679,-4825.116796,9573.644437
1131.760615,-4978.295107,-11871.319102,10492.714303
1131.760915,5361.240885,-11258.605858,9880.001059
1131.761215,13709.458834,-8118.450483,10262.946837
1131.761514,12790.388968,-4825.116796,10262.946837
1131.761814,6586.667373,-4365.581863,9420.466126
1131.762144,-76.589155,-1148.837332,9956.590215
1131.762438,-4595.349330,1072.248177,7352.558928
1131.762733,-6816.434839,306.356622,8195.039638
1131.763028,-2450.852976,-2067.907198,9803.411904
1131.763323,4748.527641,-2527.442131,9956.590215
1131.763618,9267.287815,1378.604799,10722.481770
1131.763913,7046.202306,4442.171019,11488.373325
1131.764207,-1608.372265,4135.814397,12713.799813
1131.764535,-7122.791461,4978.295107,13403.102212
1131.764834,-11718.140791,4748.527641,10875.660081
1131.765132,-12254.264880,2450.852976,9956.590215
1131.765431,-8577.985416,-3140.155375,10416.125148
1131.765730,-382.945777,-7965.272172,11182.016703
1131.766029,10569.303459,-7352.558928,10109.768526
1131.766328,12943.567279,-3293.333686,9880.001059
1131.766626,7046.202306,-2986.977064,11182.016703
1131.766915,765.891555,-229.767466,12254.264880
1131.767215,-4825.116796,2757.209598,10569.303459
1131.767516,-7199.380617,6050.543284,9267.287815
1131.767817,-7199.380617,4825.116796,8960.931193
1131.768118,-995.659021,1225.426488,10109.768526
1131.768419,7582.326394,2604.031287,11335.195014
1131.768719,11335.195014,5131.473418,11028.838392
1131.769020,7888.683016,6969.613150,10722.481770
1131.769329,459.534933,7122.791461,11641.551636
1131.769626,-6356.899906,4288.992708,11794.729947
1131.769922,-11947.908258,1991.318043,11028.838392
1131.770218,-12254.264880,-2067.907198,10262.946837
1131.770514,-7965.272172,-7505.737239,9573.644437
1131.770810,919.069866,-11105.427547,11641.551636
1131.771106,9267.287815,-9037.520349,11028.838392
1131.771402,11871.319102,-5054.884263,9114.109504
1131.771709,7122.791461,-2680.620442,10492.714303
1131.772008,1225.426488,-2221.085509,9803.411904
1131.772307,-2604.031287,2450.852976,8960.931193
1131.772606,-5744.186662,3982.636086,7275.969772
1131.772905,-3829.457775,1684.961421,7429.148083
1131.773204,612.713244,-1148.837332,10262.946837
1131.773503,7122.791461,-995.659021,10875.660081
1131.773801,7122.791461,306.356622,10799.070925
1131.774118,-229.767466,-689.302399,12943.567279
1131.774419,-6663.256528,-2374.263820,13786.047990
1131.774721,-9037.520349,-1608.372265,10875.660081
1131.775023,-11411.784169,-2221.085509,10109.768526
1131.775325,-7505.737239,-4518.760174,9420.466126
1131.775626,-76.589155,-7352.558928,9803.411904
1131.775928,8807.752882,-7812.093861,10262.946837
1131.776230,14398.761234,-3906.046930,8807.752882
1131.776544,8654.574571,-689.302399,10033.179370
1131.776840,1531.783110,-76.589155,11182.016703
1131.777136,-4825.116796,2450.852976,11182.016703
1131.777433,-9190.698660,3369.922842,9956.590215
1131.777729,-11105.427547,2604.031287,10033.179370
1131.778025,-6356.899906,-1914.728887,10799.070925
1131.778321,4518.760174,-2680.620442,11335.195014
1131.778618,12330.854035,1378.604799,9956.590215
1131.778906,10416.125148,2910.387909,9420.466126
1131.779206,3140.155375,2450.852976,11794.729947
1131.779506,-3063.566220,2910.387909,12407.443191
1131.779806,-8271.628794,2450.852976,9880.001059
1131.780106,-11871.319102,153.178311,10033.179370
1131.780405,-10339.535992,-2986.977064,10109.768526
1131.780705,-382.945777,-5820.775818,11182.016703
1131.781005,9114.109504,-2833.798753,11028.838392
1131.781305,10109.768526,765.891555,10262.946837
1131.781604,4748.527641,2450.852976,11182.016703
1131.781903,-536.124088,3523.101153,11947.908258
1131.782203,-4825.116796,3369.922842,10875.660081
1131.782502,-7965.272172,4135.814397,9420.466126
1131.782801,-6203.721595,1378.604799,8884.342038
1131.783100,2527.442131,-3752.868619,9114.109504
1131.783400,11794.729947,-3446.511997,9497.055282
1131.783707,13556.280523,-1914.728887,9956.590215
1131.784009,8654.574571,-382.945777,10262.946837
1131.784312,306.356622,-1148.837332,11794.729947
1131.784614,-7122.791461,-1608.372265,11564.962480
1131.784917,-12407.443191,-382.945777,10722.481770
1131.785219,-13173.334746,-842.480710,9114.109504
1131.785522,-6356.899906,-3599.690308,9190.698660
1131.785824,-689.302399,-7352.558928,10875.660081
1131.786099,4365.581863,-4901.705952,12254.264880
1131.786402,5820.775818,-1455.193954,11871.319102
1131.786706,3293.333686,-382.945777,10186.357681
1131.787009,-1455.193954,-1455.193954,10722.481770
1131.787313,-6050.543284,-382.945777,10109.768526
1131.787617,-5131.473418,-1608.372265,8807.752882
1131.787920,153.178311,-4825.116796,8731.163727
1131.788224,5820.775818,-8118.450483,10262.946837
1131.788543,12790.388968,-4901.705952,9267.287815
1131.788836,13556.280523,1225.426488,9037.520349
1131.789130,7275.969772,1531.783110,9803.411904
1131.789423,-2067.907198,1072.248177,11488.373325
1131.789717,-11258.605858,3523.101153,12790.388968
1131.790010,-13632.869679,3676.279464,9803.411904
1131.790304,-12407.443191,306.356622,9956.590215
1131.790598,-7505.737239,-4901.705952,12560.621502
1131.790915,1531.783110,-5208.062574,12790.388968
1131.791213,9650.233593,153.178311,11335.195014
1131.791512,8654.574571,3523.101153,9956.590215
1131.791811,-0.000000,306.356622,11794.729947
1131.792109,-6356.899906,459.534933,12101.086569
1131.792408,-6969.613150,2757.209598,9497.055282
1131.792707,-4825.116796,1072.248177,7429.148083
1131.793005,-2450.852976,-4825.116796,9573.644437
1131.793305,7582.326394,-3906.046930,10109.768526
1131.793602,15624.187722,919.069866,10109.768526
1131.793900,13403.102212,3676.279464,9650.233593
1131.794197,5973.954129,4595.349330,10875.660081
1131.794495,-2757.209598,5437.830040,11947.908258
1131.794792,-5897.364973,6663.256528,8654.574571
1131.795090,-10799.070925,3676.279464,9343.876971
1131.795387,-10799.070925,-3140.155375,11488.373325
1131.795694,-4748.527641,-7352.558928,12101.086569
1131.795995,5361.240885,-6586.667373,10875.660081
1131.796296,8041.861327,-4825.116796,10722.481770
1131.796598,1991.318043,-4825.116796,12177.675724
1131.796899,-3369.922842,-3752.868619,11488.373325
1131.797200,-4442.171019,-229.767466,9650.233593
1131.797501,-7199.380617,1378.604799,8501.396260
1131.797802,-6816.434839,-1455.193954,10875.660081
1131.798116,-0.000000,-2986.977064,9726.822748
1131.798417,10109.768526,-1455.193954,8960.931193
1131.798717,14168.993767,153.178311,9650.233593
1131.799017,8501.396260,1531.783110,10262.946837
1131.799318,612.713244,1378.604799,11641.551636
1131.799618,-4825.116796,1072.248177,11182.016703
1131.799918,-9573.644437,459.534933,10569.303459
1131.800219,-10186.357681,-2067.907198,10416.125148
1131.800537,-6969.613150,-5973.954129,10416.125148
1131.800833,2297.674665,-8424.807105,11182.016703
1131.801129,7582.326394,-6433.489062,10799.070925
1131.801425,7122.791461,-4365.581863,11488.373325
1131.801721,2297.674665,-1608.372265,11028.838392
1131.802017,-2450.852976,-76.589155,10875.660081
1131.802313,-6510.078217,1225.426488,10416.125148
1131.802609,-7352.558928,1378.604799,9267.287815
1131.802881,-4978.295107,612.713244,9650.233593
1131.803184,3446.511997,-1455.193954,9037.520349
1131.803487,10722.481770,-76.589155,9726.822748
1131.803791,11641.551636,3369.922842,10875.660081
1131.804094,6127.132440,4442.171019,10109.768526
1131.804397,-2450.852976,2450.852976,10492.714303
1131.804700,-9343.876971,1991.318043,11794.729947
1131.805003,-13020.156435,765.891555,10722.481770
1131.805293,-11258.605858,-1302.015643,11028.838392
1131.805592,-4748.527641,-4901.705952,11335.195014
1131.805892,5361.240885,-5667.597507,11182.016703
1131.806191,10875.660081,-1608.372265,11641.551636
1131.806490,10262.946837,1684.961421,10109.768526
1131.806789,4748.527641,2910.387909,10645.892614
1131.807088,-2221.085509,3829.457775,11488.373325
1131.807387,-4595.349330,5284.651729,9497.055282
1131.807701,-5591.008351,5131.473418,8654.574571
1131.808000,-3063.566220,1072.248177,9573.644437
1131.808299,3293.333686,-1148.837332,10952.249236
1131.808597,8195.039638,459.534933,10339.535992
1131.808896,8041.861327,1225.426488,10416.125148
1131.809195,1991.318043,-229.767466,10645.892614
1131.809494,-4825.116796,-2374.263820,11488.373325
1131.809792,-7965.272172,-1914.728887,10722.481770
1131.810099,-9880.001059,-3906.046930,9573.644437
1131.810397,-7199.380617,-6127.132440,9956.590215
1131.810694,-842.480710,-9343.876971,10416.125148
1131.810991,6893.023995,-8118.450483,10416.125148
1131.811288,9267.287815,-4059.225241,11182.016703
1131.811585,6739.845684,153.178311,9267.287815
1131.811883,765.891555,1684.961421,10262.946837
1131.812180,-6050.543284,2604.031287,10875.660081
1131.812476,-9037.520349,3523.101153,9420.466126
1131.812777,-8884.342038,2144.496354,9956.590215
1131.813078,-3523.101153,-2067.907198,9803.411904
1131.813380,4212.403552,-4901.705952,11488.373325
1131.813681,9650.233593,-3906.046930,11947.908258
1131.813982,11871.319102,612.713244,9420.466126
1131.814283,7046.202306,-0.000000,9114.109504
1131.814584,306.356622,-1455.193954,10339.535992
1131.814879,-5744.186662,-689.302399,10416.125148
1131.815180,-8577.985416,-1761.550576,10033.179370
1131.815480,-7352.558928,-5208.062574,10492.714303
1131.815781,-1761.550576,-6586.667373,12101.086569
1131.816082,2986.977064,-3446.511997,12713.799813
1131.816383,5820.775818,1684.961421,11028.838392
1131.816684,1991.318043,4595.349330,11411.784169
1131.816985,-4442.171019,4135.814397,13096.745590
1131.817273,-7658.915550,6203.721595,11182.016703
1131.817574,-8118.450483,6356.899906,9267.287815
1131.817875,-4748.527641,3369.922842,9420.466126
1131.818175,919.069866,-3446.511997,10109.768526
1131.818476,8960.931193,-3752.868619,11488.373325
1131.818777,14015.815456,153.178311,10109.768526
1131.819078,10875.660081,153.178311,9114.109504
1131.819379,3293.333686,-1302.015643,10262.946837
1131.819692,-2757.209598,-382.945777,10569.303459
1131.819991,-8118.450483,-229.767466,9803.411904
1131.820290,-10645.892614,-2221.085509,10033.179370
1131.820588,-6816.434839,-4365.581863,11028.838392
1131.820887,1531.783110,-3446.511997,11641.551636
1131.821186,9803.411904,1225.426488,10569.303459
1131.821485,9803.411904,4135.814397,8807.752882
1131.821783,3140.155375,3216.744531,10262.946837
1131.822090,-4135.814397,2450.852976,12254.264880
1131.822390,-10645.892614,919.069866,10722.481770
1131.822690,-10339.535992,-0.000000,9956.590215
1131.822989,-5744.186662,-3140.155375,10569.303459
1131.823289,2297.674665,-5973.954129,10722.481770
1131.823589,10875.660081,-3293.333686,9267.287815
1131.823888,12484.032346,-536.124088,9956.590215
1131.824188,5054.884263,-1302.015643,10645.892614
1131.824485,-2221.085509,-1608.372265,11488.373325
1131.824782,-8271.628794,-1148.837332,10569.303459
1131.825079,-10799.070925,-1302.015643,8807.752882
1131.825377,-9190.698660,-3752.868619,9803.411904
1131.825674,-2910.387909,-6280.310751,11028.838392
1131.825971,6739.845684,-4365.581863,10722.481770
1131.826269,11488.373325,-229.767466,10109.768526
1131.826566,8195.039638,1531.783110,10262.946837
1131.826880,-0.000000,-382.945777,11794.729947
1131.827179,-6510.078217,153.178311,11488.373325
1131.827478,-10645.892614,459.534933,9803.411904
1131.827776,-8271.628794,-1148.837332,9037.520349
1131.828075,-2757.209598,-4671.938485,10109.768526
1131.828374,7122.791461,-4901.705952,9956.590215
1131.828672,13862.637145,-536.124088,9956.590215
1131.828971,11335.195014,1684.961421,9956.590215
1131.829283,3140.155375,1838.139732,11028.838392
1131.829583,-5437.830040,1225.426488,11794.729947
1131.829883,-10645.892614,2910.387909,10569.303459
1131.830183,-12254.264880,1531.783110,9880.001059
1131.830483,-8271.628794,-2067.907198,9880.001059
1131.830783,-1302.015643,-5361.240885,11794.729947
1131.831083,6586.667373,-3906.046930,12484.032346
1131.831382,10262.946837,765.891555,11488.373325
1131.831682,7122.791461,3216.744531,10109.768526
1131.831981,153.178311,1531.783110,10722.481770
1131.832281,-5437.830040,3829.457775,10109.768526
1131.832580,-7199.380617,3523.101153,9267.287815
1131.832879,-5131.473418,612.713244,9803.411904
1131.833178,1991.318043,-3906.046930,9803.411904
1131.833478,10569.303459,-2374.263820,11028.838392
1131.833777,13096.745590,765.891555,10875.660081
1131.834084,9956.590215,2757.209598,9803.411904
1131.834381,612.713244,3369.922842,11641.551636
1131.834677,-7122.791461,4978.295107,10722.481770
1131.834974,-14092.404612,3982.636086,9420.466126
1131.835271,-14092.404612,1838.139732,9420.466126
1131.835567,-9497.055282,-4671.938485,11028.838392
1131.835864,-995.659021,-9190.698660,12713.799813
1131.836161,6127.132440,-6433.489062,12560.621502
1131.836481,7582.326394,-3446.511997,11028.838392
1131.836778,4059.225241,-3599.690308,10799.070925
1131.837075,-76.589155,-1302.015643,10722.481770
1131.837372,-3982.636086,-0.000000,9497.055282
1131.837669,-6203.721595,1378.604799,8195.039638
1131.837966,-1761.550576,-1302.015643,8041.861327
1131.838263,5820.775818,-3293.333686,9420.466126
1131.838560,12177.675724,-2067.907198,10875.660081
1131.838862,12330.854035,153.178311,8960.931193
1131.839163,6893.023995,1838.139732,8884.342038
1131.839465,-3982.636086,-0.000000,11794.729947
1131.839766,-10952.249236,-689.302399,12713.799813
1131.840068,-14781.707011,-76.589155,10339.535992
1131.840369,-9880.001059,-842.480710,9114.109504
1131.840670,-3829.457775,-6586.667373,10262.946837
1131.840972,5973.954129,-7658.915550,10799.070925
1131.841285,11182.016703,-4365.581863,11488.373325
1131.841581,8807.752882,-1761.550576,10109.768526
1131.841877,306.356622,-3293.333686,11335.195014
1131.842173,-6663.256528,-1914.728887,12484.032346
1131.842469,-9726.822748,2450.852976,10262.946837
1131.842765,-8118.450483,2297.674665,8731.163727
1131.843061,-2450.852976,612.713244,9573.644437
1131.843357,5054.884263,-536.124088,11105.427547
1131.843656,14245.582923,4978.295107,10262.946837
1131.843956,12637.210657,6356.899906,9420.466126
1131.844256,4901.705952,4595.349330,11488.373325
1131.844557,-3216.744531,2604.031287,11794.729947
1131.844857,-8424.807105,3063.566220,10262.946837
1131.845157,-11105.427547,-382.945777,10186.357681
1131.845457,-8271.628794,-5208.062574,11641.551636
1131.845757,-382.945777,-7658.915550,13096.745590
1131.846064,7735.504705,-5054.884263,10875.660081
1131.846367,10109.768526,-1455.193954,10262.946837
1131.846670,3446.511997,-689.302399,11028.838392
1131.846974,-2221.085509,1072.248177,12713.799813
1131.847277,-8271.628794,3063.566220,11028.838392
1131.847580,-9497.055282,5131.473418,8654.574571
1131.847884,-6816.434839,2604.031287,8807.752882
1131.848187,-382.945777,-1148.837332,9956.590215
1131.848426,9114.109504,-382.945777,10262.946837
1131.848734,14168.993767,2297.674665,9420.466126
1131.849042,11028.838392,1684.961421,8501.396260
1131.849350,3140.155375,-995.659021,9114.109504
1131.849657,-5284.651729,-1148.837332,10416.125148
1131.849965,-11871.319102,-4518.760174,10262.946837
1131.850273,-13479.691368,-9880.001059,10569.303459
1131.850581,-9037.520349,-13556.280523,10952.249236
1131.850854,1225.426488,-13556.280523,10875.660081
1131.851156,7735.504705,-10033.179370,11488.373325
1131.851459,11335.195014,-4059.225241,9343.876971
1131.851761,6739.845684,153.178311,8960.931193
1131.852064,-536.124088,1838.139732,10875.660081
1131.852367,-7505.737239,3216.744531,11028.838392
1131.852669,-9573.644437,4978.295107,10109.768526
1131.852972,-5591.008351,3216.744531,10339.535992
1131.853289,1378.604799,459.534933,9956.590215
1131.853584,9420.466126,1991.318043,9880.001059
1131.853878,12790.388968,4825.116796,9956.590215
1131.854173,6280.310751,3676.279464,10262.946837
1131.854467,-2604.031287,612.713244,12560.621502
1131.854762,-9497.055282,-229.767466,12101.086569
1131.855056,-12866.978124,-1455.193954,11028.838392
1131.855351,-10492.714303,-3293.333686,10109.768526
1131.855651,-4978.295107,-7046.202306,12101.086569
1131.855951,5973.954129,-6280.310751,12101.086569
1131.856251,14551.939545,-1914.728887,9803.411904
1131.856551,13096.745590,2297.674665,10186.357681
1131.856851,4671.938485,3676.279464,11105.427547
1131.857151,-3982.636086,5437.830040,11947.908258
1131.857451,-6356.899906,9573.644437,8195.039638
1131.857751,-8884.342038,7122.791461,8424.807105
1131.858081,-8118.450483,3063.566220,12101.086569
1131.858378,1378.604799,-995.659021,11335.195014
1131.858675,11871.319102,1531.783110,10416.125148
1131.858972,12790.388968,2910.387909,9573.644437
1131.859269,4901.705952,612.713244,10492.714303
1131.859566,-3676.279464,-1608.372265,11182.016703
1131.859863,-9037.520349,-229.767466,9803.411904
1131.860160,-13632.869679,-3140.155375,10109.768526
1131.860468,-12254.264880,-6586.667373,10109.768526
1131.860767,-5284.651729,-8424.807105,11641.551636
1131.861067,6586.667373,-7658.915550,11028.838392
1131.861367,12637.210657,-4059.225241,10416.125148
1131.861667,9956.590215,-1148.837332,9267.287815
1131.861967,3293.333686,-536.124088,9267.287815
1131.862266,-5437.830040,306.356622,11028.838392
1131.862566,-10339.535992,765.891555,10569.303459
1131.862850,-9726.822748,-382.945777,10109.768526
1131.863152,-1761.550576,-2374.263820,9650.233593
1131.863455,8654.574571,-3446.511997,8807.752882
1131.863758,14245.582923,-2374.263820,9956.590215
1131.864061,12637.210657,-382.945777,9650.233593
1131.864364,4518.760174,-1455.193954,10569.303459
1131.864667,-5284.651729,-2680.620442,11335.195014
1131.864970,-12560.621502,-2680.620442,10722.481770
1131.865284,-15547.598566,-4059.225241,10569.303459
1131.865578,-10799.070925,-5667.597507,11335.195014
1131.865871,-2450.852976,-7046.202306,12024.497413
1131.866164,7735.504705,-2986.977064,12407.443191
1131.866458,12637.210657,-76.589155,9267.287815
1131.866751,8960.931193,2910.387909,8884.342038
1131.867044,153.178311,1684.961421,10416.125148
1131.867338,-9190.698660,2450.852976,11641.551636
1131.867650,-11718.140791,3063.566220,10799.070925
1131.867949,-6510.078217,1838.139732,8807.752882
1131.868248,919.069866,-382.945777,10109.768526
1131.868547,10109.768526,-842.480710,10416.125148
1131.868847,17845.273231,4978.295107,9114.109504
1131.869146,14551.939545,5437.830040,8195.039638
1131.869445,1838.139732,2450.852976,10952.249236
1131.869744,-8577.985416,1225.426488,12330.854035
1131.870053,-14475.350389,1991.318043,11028.838392
1131.870352,-14628.528700,-536.124088,11028.838392
1131.870650,-9343.876971,-4825.116796,11335.195014
1131.870949,1684.961421,-3752.868619,11794.729947
1131.871247,9956.590215,-2374.263820,10569.303459
1131.871546,11335.195014,1072.248177,9573.644437
1131.871844,4901.705952,1378.604799,11411.784169
1131.872143,-2910.387909,1991.318043,10875.660081
1131.872450,-9190.698660,2604.031287,10569.303459
1131.872750,-11564.962480,765.891555,9956.590215
1131.873049,-6203.721595,-1761.550576,9803.411904
1131.873349,5054.884263,-4212.403552,9497.055282
1131.873649,16390.079277,-995.659021,9420.466126
1131.873949,19300.467186,2604.031287,7735.504705
1131.874249,10569.303459,1991.318043,9573.644437
1131.874548,-2067.907198,-382.945777,12637.210657
1131.874845,-12407.443191,-1608.372265,12407.443191
1131.875144,-19683.412963,-1608.372265,11335.195014
1131.875444,-19377.056341,-5973.954129,11488.373325
1131.875743,-11564.962480,-8271.628794,12943.567279
1131.876043,2986.977064,-8731.163727,12101.086569
1131.876342,13556.280523,-4825.116796,9956.590215
1131.876642,13709.458834,-4212.403552,9803.411904
1131.876941,7888.683016,-2374.263820,10262.946837
1131.877269,919.069866,-842.480710,9573.644437
1131.877564,-6356.899906,765.891555,8960.931193
1131.877860,-8577.985416,-0.000000,8960.931193
1131.878155,-4595.349330,-2374.263820,9956.590215
1131.878451,5054.884263,-2221.085509,10569.303459
1131.878746,14168.993767,459.534933,10109.768526
1131.879042,15317.831100,4825.116796,9573.644437
1131.879337,6739.845684,3216.744531,10262.946837
1131.879649,-5284.651729,2144.496354,12101.086569
1131.879947,-13632.869679,1684.961421,11641.551636
1131.880244,-17921.862387,1684.961421,10875.660081
1131.880542,-14934.885322,-842.480710,10569.303459
1131.880839,-6510.078217,-4059.225241,12713.799813
1131.881136,5514.419196,-3752.868619,12713.799813
1131.881434,13556.280523,-2221.085509,10262.946837
1131.881731,12177.675724,-0.000000,9956.590215
1131.882040,6893.023995,-76.589155,10109.768526
1131.882340,-995.659021,2757.209598,9573.644437
1131.882639,-6203.721595,5131.473418,9190.698660
1131.882939,-6969.613150,2910.387909,8960.931193
1131.883238,-3523.101153,1531.783110,11258.605858
1131.883537,6127.132440,612.713244,10875.660081
1131.883837,14168.993767,3523.101153,9267.287815
1131.884136,11028.838392,3829.457775,9114.109504
1131.884443,2297.674665,1838.139732,11335.195014
1131.884741,-6203.721595,306.356622,12024.497413
1131.885040,-13020.156435,-229.767466,10262.946837
1131.885338,-15547.598566,-3140.155375,10722.481770
1131.885636,-12866.978124,-7352.558928,12101.086569
1131.885934,-2604.031287,-7658.915550,10799.070925
1131.886232,7046.202306,-7965.272172,10416.125148
1131.886530,8348.217949,-7199.380617,11182.016703
1131.886846,5208.062574,-7965.272172,11488.373325
1131.887145,1225.426488,-4825.116796,10875.660081
1131.887443,-1608.372265,-1608.372265,8501.396260
1131.887742,-2374.263820,1378.604799,7275.969772
1131.888040,-842.480710,2144.496354,7735.504705
1131.888339,4748.527641,1225.426488,9650.233593
1131.888637,10875.660081,2144.496354,10109.768526
1131.888935,11028.838392,2910.387909,10109.768526
1131.889293,5054.884263,1225.426488,11028.838392
1131.889585,-2604.031287,-0.000000,11182.016703
1131.889878,-11564.962480,-1914.728887,11641.551636
1131.890170,-17921.862387,-3752.868619,12713.799813
1131.890463,-17002.792521,-6280.310751,12790.388968
1131.890756,-8731.163727,-5054.884263,12254.264880
1131.891048,5208.062574,-3752.868619,11028.838392
1131.891341,10875.660081,-1761.550576,10722.481770
1131.891629,12484.032346,-76.589155,9650.233593
1131.891929,8041.861327,1991.318043,9573.644437
1131.892229,1378.604799,1991.318043,9650.233593
1131.892529,-5591.008351,3523.101153,9803.411904
1131.892829,-7122.791461,4595.349330,10262.946837
1131.893129,-3676.279464,3369.922842,10109.768526
1131.893429,3599.690308,3982.636086,11488.373325
1131.893729,9650.233593,4135.814397,10722.481770
1131.894028,9497.055282,5591.008351,10875.660081
1131.894327,4671.938485,3982.636086,10722.481770
1131.894627,-3982.636086,2450.852976,11488.373325
1131.894926,-10339.535992,765.891555,10645.892614
1131.895225,-15394.420255,-2067.907198,10875.660081
1131.895524,-12866.978124,-4825.116796,11411.784169
1131.895824,-4595.349330,-5973.954129,11947.908258
1131.896123,5361.240885,-5820.775818,12560.621502
1131.896430,11488.373325,-2986.977064,9420.466126
1131.896729,12484.032346,153.178311,8807.752882
1131.897029,5054.884263,-1761.550576,9803.411904
1131.897328,-2374.263820,-382.945777,9420.466126
1131.897628,-8118.450483,459.534933,9573.644437
1131.897927,-7352.558928,-0.000000,7965.272172
1131.898227,-2604.031287,-2833.798753,10569.303459
1131.898526,6586.667373,-2986.977064,11718.140791
1131.898830,12637.210657,612.713244,9573.644437
1131.899130,10416.125148,765.891555,8884.342038
1131.899431,3446.511997,-1761.550576,10952.249236
1131.899731,-5437.830040,-2833.798753,12101.086569
1131.900031,-11871.319102,-2374.263820,10645.892614
1131.900332,-13326.513057,-3599.690308,9726.822748
1131.900632,-12101.086569,-7352.558928,12330.854035
1131.900932,-3216.744531,-8118.450483,13020.156435
1131.901280,6586.667373,-5054.884263,10569.303459
1131.901575,10569.303459,-1608.372265,10109.768526
1131.901870,7429.148083,-995.659021,9956.590215
1131.902164,1991.318043,1225.426488,10569.303459
1131.902459,-2604.031287,2910.387909,9420.466126
1131.902754,-5131.473418,3982.636086,8195.039638
1131.903049,-4825.116796,2450.852976,9573.644437
1131.903344,2680.620442,-0.000000,9573.644437
1131.903657,10262.946837,1072.248177,9497.055282
1131.903952,11335.195014,459.534933,10033.179370
1131.904248,4212.403552,-1455.193954,12713.799813
1131.904543,-4442.171019,-3599.690308,14168.993767
1131.904838,-8884.342038,-689.302399,11335.195014
1131.905134,-12407.443191,459.534933,10033.179370
1131.905429,-11564.962480,-0.000000,9420.466126
1131.905724,-6663.256528,-76.589155,10875.660081
1131.906024,2297.674665,-689.302399,12101.086569
1131.906324,9497.055282,3216.744531,10569.303459
1131.906625,8960.931193,2757.209598,9726.822748
1131.906926,4671.938485,2144.496354,10339.535992
1131.907227,-1455.193954,1225.426488,10416.125148
1131.907528,-3676.279464,3676.279464,8807.752882
1131.907828,-3369.922842,1684.961421,7735.504705
1131.908129,-536.124088,-2067.907198,9726.822748
1131.908436,5973.954129,-2374.263820,11182.016703
1131.908733,14168.993767,-0.000000,9956.590215
1131.909030,12177.675724,153.178311,8195.039638
1131.909327,2374.263820,-1761.550576,10875.660081
1131.909624,-8118.450483,-2374.263820,12713.799813
1131.909921,-16160.311810,-1914.728887,12407.443191
1131.910218,-18075.040698,-1608.372265,11794.729947
1131.910515,-14934.885322,-3752.868619,11488.373325
1131.910823,-4288.992708,-3599.690308,11028.838392
1131.911125,5973.954129,-995.659021,11641.551636
1131.911428,12943.567279,-536.124088,9573.644437
1131.911731,10875.660081,306.356622,9956.590215
1131.912033,5514.419196,-536.124088,10186.357681
1131.912336,-229.767466,153.178311,7888.683016
1131.912639,-4595.349330,-3293.333686,8807.752882
1131.912942,-6050.543284,-6280.310751,9420.466126
1131.913209,-1608.372265,-8424.807105,10109.768526
1131.913509,9420.466126,-5667.597507,10109.768526
1131.913810,14015.815456,-1761.550576,8654.574571
1131.914111,8960.931193,-536.124088,10875.660081
1131.914412,-842.480710,-382.945777,11641.551636
1131.914713,-10339.535992,612.713244,12713.799813
1131.915014,-17921.862387,919.069866,12024.497413
1131.915314,-18840.932253,919.069866,10722.481770
1131.915632,-10952.249236,306.356622,11182.016703
1131.915929,1378.604799,-229.767466,10722.481770
1131.916227,10569.303459,153.178311,11182.016703
1131.916525,13709.458834,1684.961421,9573.644437
1131.916823,10722.481770,-382.945777,9114.109504
1131.917121,3446.511997,-1302.015643,10569.303459
1131.917418,-3676.279464,-1148.837332,9956.590215
1131.917716,-8271.628794,-2221.085509,9114.109504
1131.918016,-5284.651729,-3446.511997,9573.644437
1131.918315,1838.139732,-3599.690308,11182.016703
1131.918614,10416.125148,-76.589155,11028.838392
1131.918913,11488.373325,2757.209598,10262.946837
1131.919213,8960.931193,6356.899906,10109.768526
1131.919512,153.178311,6510.078217,11182.016703
1131.919811,-9343.876971,5897.364973,11641.551636
1131.920110,-15853.955188,5131.473418,12254.264880
1131.920424,-14322.172078,3216.744531,11182.016703
1131.920723,-7505.737239,-842.480710,11182.016703
1131.921021,3140.155375,-3293.333686,11335.195014
1131.921320,10875.660081,-3446.511997,10569.303459
1131.921619,11641.551636,-4059.225241,9497.055282
1131.921917,6739.845684,-4365.581863,9803.411904
1131.922216,-1914.728887,-4825.116796,10339.535992
1131.922515,-7352.558928,-2527.442131,9956.590215
1131.922822,-7122.791461,-536.124088,7429.148083
1131.923119,-5284.651729,-2221.085509,9267.287815
1131.923416,-229.767466,-3293.333686,12943.567279
1131.923713,8195.039638,-1302.015643,11947.908258
1131.924011,11794.729947,2297.674665,8960.931193
1131.924308,8654.574571,2450.852976,8501.396260
1131.924605,-1302.015643,-229.767466,10262.946837
1131.924902,-10033.179370,-229.767466,11335.195014
1131.925199,-13173.334746,-382.945777,9956.590215
1131.925500,-11718.140791,-3446.511997,9803.411904
1131.925801,-7199.380617,-7658.915550,12943.567279
1131.926102,3140.155375,-6586.667373,11794.729947
1131.926403,11871.319102,-4671.938485,8807.752882
1131.926704,10262.946837,-4518.760174,9420.466126
1131.927005,2986.977064,-6280.310751,10645.892614
1131.927306,-3063.566220,-4059.225241,11028.838392
1131.927601,-6816.434839,-689.302399,9956.590215
1131.927902,-4978.295107,1838.139732,8884.342038
1131.928203,-2067.907198,1072.248177,9497.055282
1131.928504,7429.148083,4288.992708,9114.109504
1131.928804,11028.838392,5897.364973,10109.768526
1131.929105,8195.039638,5744.186662,11028.838392
1131.929406,2374.263820,4135.814397,12254.264880
1131.929707,-4825.116796,2910.387909,12713.799813
1131.930019,-8731.163727,2910.387909,11028.838392
1131.930316,-11564.962480,612.713244,9573.644437
1131.930614,-11105.427547,-3140.155375,10492.714303
1131.930911,-4978.295107,-5820.775818,13556.280523
1131.931209,3446.511997,-4212.403552,12943.567279
1131.931506,9803.411904,-382.945777,10109.768526
1131.931803,8960.931193,-995.659021,9803.411904
1131.932101,3906.046930,612.713244,11182.016703
1131.932415,-842.480710,2297.674665,10109.768526
1131.932712,-4825.116796,4978.295107,8807.752882
1131.933010,-4442.171019,3829.457775,8960.931193
1131.933308,1225.426488,2757.209598,10569.303459
1131.933606,5667.597507,2757.209598,10262.946837
1131.933904,9803.411904,2297.674665,9420.466126
1131.934202,6280.310751,306.356622,9880.001059
1131.934500,612.713244,-3140.155375,11641.551636
1131.934807,-4748.527641,-4059.225241,11335.195014
1131.935106,-10339.535992,-4365.581863,9803.411904
1131.935404,-10645.892614,-5973.954129,9420.466126
1131.935703,-7505.737239,-8577.985416,10569.303459
1131.936002,-2374.263820,-7965.272172,12713.799813
1131.936301,5361.240885,-5208.062574,11028.838392
1131.936600,6127.132440,-3446.511997,10722.481770
1131.936899,4365.581863,-995.659021,10109.768526
1131.937195,-1455.193954,-536.124088,10416.125148
1131.937498,-6203.721595,1378.604799,10109.768526
1131.937801,-6203.721595,2604.031287,9420.466126
1131.938104,-2757.209598,765.891555,9420.466126
1131.938407,4059.225241,-842.480710,9956.590215
1131.938710,11871.319102,153.178311,10262.946837
1131.939012,13403.102212,765.891555,9420.466126
1131.939315,8348.217949,-1148.837332,9650.233593
1131.939610,306.356622,-3752.868619,11105.427547
1131.939910,-6203.721595,-3599.690308,10416.125148
1131.940210,-10186.357681,-3906.046930,9420.466126
1131.940511,-10492.714303,-5208.062574,11028.838392
1131.940811,-6816.434839,-5820.775818,12407.443191
1131.941111,-536.124088,-3906.046930,12790.388968
1131.941411,4748.527641,-382.945777,11564.962480
1131.941711,5361.240885,2297.674665,10416.125148
1131.941999,459.534933,3369.922842,11488.373325
1131.942299,-3369.922842,4978.295107,10033.179370
1131.942599,-7122.791461,5744.186662,10109.768526
1131.942899,-5744.186662,6050.543284,9114.109504
1131.943199,-1761.550576,3369.922842,9880.001059
1131.943499,4901.705952,1991.318043,10645.892614
1131.943799,11028.838392,2144.496354,10109.768526
1131.944099,10722.481770,1225.426488,9956.590215
1131.944399,5361.240885,-995.659021,11028.838392
1131.944698,-1608.372265,-2680.620442,11182.016703
1131.944998,-6663.256528,-2680.620442,10875.660081
1131.945297,-9190.698660,-1608.372265,9267.287815
1131.945596,-6663.256528,-2067.907198,9956.590215
1131.945895,-1148.837332,-2527.442131,11641.551636
1131.946194,6433.489062,153.178311,11182.016703
1131.946494,8807.752882,1531.783110,9726.822748
1131.946801,4365.581863,459.534933,10416.125148
1131.947102,-1148.837332,-382.945777,11488.373325
1131.947404,-6969.613150,-689.302399,10722.481770
1131.947705,-8118.450483,-382.945777,9114.109504
1131.948006,-5284.651729,-1148.837332,9956.590215
1131.948308,-842.480710,-1761.550576,10645.892614
1131.948609,6893.023995,-995.659021,9956.590215
1131.948911,8654.574571,-1302.015643,10569.303459
1131.949227,5208.062574,-1148.837332,10722.481770
1131.949521,-229.767466,-2527.442131,11028.838392
1131.949814,-6816.434839,-3906.046930,10875.660081
1131.950108,-10186.357681,-4059.225241,9956.590215
1131.950402,-8884.342038,-3599.690308,10262.946837
1131.950695,-4135.814397,-4365.581863,9803.411904
1131.950989,5208.062574,-2986.977064,10722.481770
1131.951283,8501.396260,-689.302399,11794.729947
1131.951584,8348.217949,612.713244,10109.768526
1131.951886,3906.046930,1225.426488,10416.125148
1131.952187,-2450.852976,459.534933,10109.768526
1131.952489,-6356.899906,459.534933,10186.357681
1131.952790,-7965.272172,-536.124088,10875.660081
1131.953091,-2757.209598,-995.659021,9190.698660
1131.953393,3446.511997,-3446.511997,10416.125148
1131.953694,9420.466126,-1914.728887,11105.427547
1131.954007,9803.411904,153.178311,9880.001059
1131.954303,5820.775818,1531.783110,9956.590215
1131.954599,-2450.852976,459.534933,10109.768526
1131.954895,-10799.070925,153.178311,11794.729947
1131.955191,-12713.799813,459.534933,11411.784169
1131.955487,-9573.644437,1072.248177,10416.125148
1131.955783,-1914.728887,1225.426488,10416.125148
1131.956079,3446.511997,-229.767466,11411.784169
1131.956379,7582.326394,153.178311,11488.373325
1131.956679,6739.845684,1072.248177,10875.660081
1131.956979,1531.783110,-689.302399,11335.195014
1131.957279,-2910.387909,-689.302399,10416.125148
1131.957579,-3829.457775,612.713244,9803.411904
1131.957879,-842.480710,765.891555,8577.985416
1131.958179,4365.581863,-842.480710,8654.574571
1131.958479,8654.574571,-536.124088,11335.195014
1131.958786,10109.768526,-536.124088,11641.551636
1131.959090,8501.396260,1225.426488,10569.303459
1131.959393,1378.604799,1378.604799,9650.233593
1131.959696,-7199.380617,-536.124088,10799.070925
1131.960000,-14781.707011,-2221.085509,11641.551636
1131.960303,-14092.404612,-2374.263820,10952.249236
1131.960606,-9726.822748,-2986.977064,11182.016703
1131.960910,-2067.907198,-4671.938485,10952.249236
1131.961184,6127.132440,-4212.403552,11182.016703
1131.961487,9956.590215,-1608.372265,9267.287815
1131.961791,6893.023995,-2374.263820,9956.590215
1131.962095,-536.124088,-4671.938485,11794.729947
1131.962398,-4825.116796,-4365.581863,10722.481770
1131.962702,-7122.791461,-2986.977064,10109.768526
1131.963006,-3063.566220,-2527.442131,9037.520349
1131.963309,3752.868619,-1302.015643,9573.644437
1131.963628,10109.768526,1225.426488,9420.466126
1131.963924,12024.497413,5131.473418,9650.233593
1131.964220,7582.326394,5591.008351,9497.055282
1131.964516,-1455.193954,3063.566220,10722.481770
1131.964812,-8424.807105,459.534933,12254.264880
1131.965108,-12254.264880,-689.302399,10186.357681
1131.965404,-10033.179370,-3599.690308,10722.481770
1131.965700,-4288.992708,-6127.132440,10875.660081
1131.965972,6127.132440,-4365.581863,10722.481770
1131.966274,10569.303459,-2680.620442,9956.590215
1131.966576,7735.504705,-1761.550576,10416.125148
1131.966878,-1761.550576,-2986.977064,12713.799813
1131.967179,-8118.450483,-1608.372265,12713.799813
1131.967481,-9573.644437,1531.783110,10722.481770
1131.967783,-9037.520349,2910.387909,10262.946837
1131.968084,-2604.031287,2910.387909,9420.466126
1131.968384,7888.683016,3369.922842,9114.109504
1131.968685,14398.761234,7582.326394,9650.233593
1131.968986,12943.567279,7275.969772,9803.411904
1131.969287,3906.046930,5437.830040,11335.195014
1131.969587,-2067.907198,4825.116796,11794.729947
1131.969888,-6816.434839,3369.922842,9650.233593
1131.970189,-10033.179370,-1148.837332,10262.946837
1131.970490,-9343.876971,-4825.116796,11335.195014
1131.970797,-1761.550576,-7658.915550,11564.962480
1131.971094,5208.062574,-8271.628794,10875.660081
1131.971391,8960.931193,-5820.775818,11335.195014
1131.971687,2833.798753,-5208.062574,11947.908258
1131.971984,-2757.209598,-2527.442131,10875.660081
1131.972281,-6203.721595,1378.604799,9956.590215
1131.972578,-8884.342038,2604.031287,10262.946837
1131.972875,-6050.543284,3523.101153,10186.357681
1131.973183,2833.798753,3523.101153,7735.504705
1131.973483,12484.032346,3676.279464,8041.861327
1131.973783,14015.815456,1991.318043,9420.466126
1131.974083,9267.287815,1225.426488,10262.946837
1131.974382,1225.426488,-1914.728887,10875.660081
1131.974682,-7122.791461,-3599.690308,10722.481770
1131.974982,-12866.978124,-5208.062574,11641.551636
1131.975282,-13632.869679,-7199.380617,9650.233593
1131.975565,-7505.737239,-8271.628794,9726.822748
1131.975870,-1302.015643,-10492.714303,12101.086569
1131.976175,3293.333686,-9726.822748,14398.761234
1131.976479,5973.954129,-6586.667373,12560.621502
1131.976784,5514.419196,-1455.193954,9956.590215
1131.977089,1684.961421,1531.783110,9114.109504
1131.977394,-5131.473418,1991.318043,9956.590215
1131.977698,-7122.791461,4595.349330,10109.768526
1131.978016,-229.767466,5591.008351,8501.396260
1131.978313,5820.775818,4442.171019,8807.752882
1131.978611,11641.551636,919.069866,10262.946837
1131.978908,14858.296167,3369.922842,9956.590215
1131.979205,11182.016703,2450.852976,8654.574571
1131.979503,-382.945777,-382.945777,10875.660081
1131.979800,-10186.357681,-4212.403552,12560.621502
1131.980098,-16313.490121,-5208.062574,12713.799813
1131.980388,-14092.404612,-4671.938485,12101.086569
1131.980687,-9573.644437,-4901.705952,11564.962480
1131.980986,-536.124088,-2221.085509,12101.086569
1131.981285,4518.760174,-229.767466,12407.443191
1131.981584,6739.845684,4442.171019,11335.195014
1131.981883,3599.690308,6663.256528,10416.125148
1131.982182,-1302.015643,7275.969772,10569.303459
1131.982482,-4442.171019,5437.830040,9573.644437
1131.982767,-3369.922842,5591.008351,10109.768526
1131.983069,2680.620442,3523.101153,8195.039638
1131.983371,10416.125148,459.534933,9190.698660
1131.983673,15624.187722,306.356622,10416.125148
1131.983975,15164.652789,-0.000000,8960.931193
1131.984277,6280.310751,-2067.907198,8577.985416
1131.984578,-5437.830040,-5208.062574,11641.551636
1131.984880,-15241.241944,-7965.272172,12943.567279
1131.985187,-19377.056341,-7965.272172,12713.799813
1131.985487,-14628.528700,-6127.132440,11488.373325
1131.985787,-4442.171019,-4059.225241,10416.125148
1131.986087,3906.046930,-2374.263820,11028.838392
1131.986386,9267.287815,1838.139732,10569.303459
1131.986686,8348.217949,4442.171019,9420.466126
1131.986986,2680.620442,3216.744531,10109.768526
1131.987286,-3369.922842,1225.426488,9956.590215
1131.987582,-5744.186662,306.356622,9956.590215
1131.987882,-3676.279464,-842.480710,8654.574571
1131.988181,2374.263820,-5361.240885,8195.039638
1131.988481,8960.931193,-5820.775818,10569.303459
1131.988781,11794.729947,-5054.884263,10186.357681
1131.989080,9420.466126,-3752.868619,9956.590215
1131.989380,-536.124088,-4365.581863,11335.195014
1131.989679,-9037.520349,-3752.868619,12024.497413
1131.989974,-14475.350389,-2986.977064,12407.443191
1131.990275,-14475.350389,-995.659021,10339.535992
1131.990576,-9037.520349,-76.589155,10569.303459
1131.990877,153.178311,-1148.837332,10875.660081
1131.991178,9267.287815,1684.961421,10492.714303
1131.991479,12330.854035,3676.279464,9880.001059
1131.991779,8960.931193,3982.636086,9956.590215
1131.992080,1838.139732,2604.031287,10262.946837
1131.992368,-3829.457775,1991.318043,10569.303459
1131.992669,-6969.613150,1838.139732,9573.644437
1131.992970,-4978.295107,-689.302399,9803.411904
1131.993271,-229.767466,-1455.193954,9956.590215
1131.993572,6127.132440,-3906.046930,11641.551636
1131.993872,9650.233593,-1761.550576,11641.551636
1131.994173,8041.861327,1225.426488,9956.590215
1131.994474,919.069866,3063.566220,10569.303459
1131.994783,-6356.899906,2144.496354,11028.838392
1131.995079,-10339.535992,4442.171019,10799.070925
1131.995374,-9190.698660,4748.527641,9803.411904
1131.995669,-6203.721595,1225.426488,9880.001059
1131.995965,-382.945777,-1761.550576,12254.264880
1131.996260,7275.969772,-2067.907198,10569.303459
1131.996555,9114.109504,-1148.837332,9956.590215
1131.996851,4671.938485,-2986.977064,9420.466126
1131.997158,-2757.209598,-5361.240885,10109.768526
1131.997461,-7122.791461,-5054.884263,12101.086569
1131.997764,-5131.473418,-3446.511997,10262.946837
1131.998067,-1302.015643,-2527.442131,9420.466126
1131.998371,7046.202306,-2833.798753,8654.574571
1131.998674,11871.319102,-0.000000,9880.001059
1131.998977,11182.016703,1225.426488,10262.946837
1131.999280,3293.333686,919.069866,10109.768526
1131.999577,-6356.899906,1378.604799,12330.854035
1131.999875,-12713.799813,-0.000000,11871.319102
1132.000173,-15547.598566,-229.767466,11182.016703
1132.000471,-11947.908258,-1761.550576,10722.481770
1132.000769,-4825.116796,-3906.046930,10033.179370
1132.001067,4901.705952,-5208.062574,10339.535992
1132.001365,11794.729947,-4825.116796,11105.427547
1132.001664,11488.373325,-4365.581863,9190.698660
1132.001978,6127.132440,-4901.705952,10186.357681
1132.002277,-995.659021,-5667.597507,9956.590215
1132.002575,-6203.721595,-3906.046930,10569.303459
1132.002874,-7505.737239,-1302.015643,9956.590215
1132.003173,-1914.728887,-689.302399,9573.644437
1132.003471,4901.705952,1531.783110,10569.303459
1132.003770,9956.590215,3829.457775,10109.768526
1132.004069,8807.752882,6969.613150,11335.195014
1132.004357,2297.674665,6663.256528,10875.660081
1132.004657,-5591.008351,6356.899906,11794.729947
1132.004957,-10799.070925,5284.651729,11488.373325
1132.005257,-12254.264880,3982.636086,10109.768526
1132.005557,-9573.644437,-842.480710,11335.195014
1132.005857,-1148.837332,-3599.690308,11182.016703
1132.006157,8807.752882,-3599.690308,10109.768526
1132.006457,10875.660081,-4059.225241,10109.768526
1132.006757,7582.326394,-5054.884263,10722.481770
1132.007056,919.069866,-2986.977064,11028.838392
1132.007355,-4135.814397,-1608.372265,10262.946837
1132.007654,-8118.450483,-536.124088,9650.233593
1132.007954,-6663.256528,153.178311,10569.303459
1132.008253,919.069866,2757.209598,9114.109504
1132.008552,9497.055282,3676.279464,8960.931193
1132.008851,12177.675724,6050.543284,9650.233593
1132.009158,7582.326394,4978.295107,11335.195014
1132.009458,-689.302399,3676.279464,11641.551636
1132.009757,-6663.256528,2757.209598,9956.590215
1132.010056,-13786.047990,-76.589155,10569.303459
1132.010355,-14475.350389,-4365.581863,11335.195014
1132.010655,-9497.055282,-7658.915550,11641.551636
1132.010954,765.891555,-8424.807105,10492.714303
1132.011253,7275.969772,-9343.876971,11488.373325
1132.011573,8348.217949,-6893.023995,11335.195014
1132.011871,8041.861327,-4901.705952,9267.287815
1132.012168,2986.977064,-2221.085509,8807.752882
1132.012465,-1148.837332,-842.480710,8577.985416
1132.012762,-4595.349330,612.713244,9190.698660
1132.013059,-2450.852976,1072.248177,9803.411904
1132.013356,2833.798753,-76.589155,10262.946837
1132.013653,7735.504705,2144.496354,11641.551636
1132.013971,8348.217949,2757.209598,10262.946837
1132.014270,3293.333686,1531.783110,10416.125148
1132.014568,-4442.171019,612.713244,10952.249236
1132.014866,-11871.319102,-2067.907198,11411.784169
1132.015164,-17002.792521,-4518.760174,12790.388968
1132.015462,-12254.264880,-5054.884263,11947.908258
1132.015761,-4748.527641,-5667.597507,9956.590215
1132.016059,5514.419196,-5667.597507,10109.768526
1132.016372,10875.660081,-3140.155375,11182.016703
1132.016668,11488.373325,153.178311,9267.287815
1132.016964,7429.148083,2910.387909,9497.055282
1132.017260,-0.000000,3676.279464,10109.768526
1132.017556,-4748.527641,4825.116796,9956.590215
1132.017852,-4825.116796,4595.349330,10262.946837
1132.018148,-1761.550576,4442.171019,9420.466126
1132.018444,4748.527641,3829.457775,10186.357681
1132.018744,9803.411904,3063.566220,10645.892614
1132.019044,7582.326394,4135.814397,11641.551636
1132.019345,919.069866,1991.318043,10875.660081
1132.019646,-7122.791461,-0.000000,12254.264880
1132.019947,-12407.443191,-689.302399,11641.551636
1132.020247,-13786.047990,-2067.907198,11105.427547
1132.020548,-9726.822748,-4212.403552,10722.481770
1132.020849,612.713244,-4901.705952,10262.946837
1132.021156,10262.946837,-3906.046930,10569.303459
1132.021453,13249.923901,-3752.868619,9573.644437
1132.021750,9803.411904,-1455.193954,9803.411904
1132.022047,4901.705952,-689.302399,9956.590215
1132.022344,-2221.085509,459.534933,9420.466126
1132.022641,-6663.256528,919.069866,9420.466126
1132.022938,-5591.008351,1838.139732,8960.931193
1132.023235,-3676.279464,-0.000000,10339.535992
1132.023543,3293.333686,-1914.728887,10645.892614
1132.023844,5973.954129,-0.000000,11641.551636
1132.024146,2680.620442,-1914.728887,12024.497413
1132.024448,-3369.922842,-3599.690308,11947.908258
1132.024750,-7812.093861,-3293.333686,11335.195014
1132.025052,-10339.535992,-2374.263820,11028.838392
1132.025354,-8118.450483,-3140.155375,9956.590215
1132.025655,-3369.922842,-4671.938485,9803.411904
1132.025974,6433.489062,-3752.868619,8654.574571
1132.026269,11641.551636,-4365.581863,9956.590215
1132.026564,10722.481770,-2680.620442,10416.125148
1132.026860,6127.132440,-3140.155375,9956.590215
1132.027155,-1148.837332,-1761.550576,10875.660081
1132.027450,-5284.651729,-1608.372265,9956.590215
1132.027745,-7658.915550,1072.248177,10109.768526
1132.028040,-5437.830040,306.356622,10339.535992
1132.028357,1838.139732,765.891555,10339.535992
1132.028655,7429.148083,3829.457775,10722.481770
1132.028953,6280.310751,2910.387909,12024.497413
1132.029251,2833.798753,2297.674665,12407.443191
1132.029549,-3523.101153,3063.566220,11335.195014
1132.029847,-9037.520349,765.891555,10569.303459
1132.030144,-12254.264880,-382.945777,11335.195014
1132.030442,-8577.985416,-536.124088,11028.838392
1132.030742,-1608.372265,-842.480710,9573.644437
1132.031042,6127.132440,-1608.372265,10109.768526
1132.031342,9956.590215,-382.945777,11028.838392
1132.031642,9956.590215,-229.767466,10186.357681
1132.031942,5820.775818,919.069866,9803.411904
1132.032242,-689.302399,919.069866,9420.466126
1132.032542,-4595.349330,306.356622,9573.644437
1132.032842,-5897.364973,-1302.015643,10186.357681
1132.033133,-1455.193954,-1761.550576,9956.590215
1132.033435,4518.760174,-995.659021,10262.946837
1132.033738,8041.861327,-382.945777,10722.481770
1132.034040,6127.132440,612.713244,11794.729947
1132.034343,-1148.837332,-76.589155,13096.745590
1132.034646,-8118.450483,919.069866,11641.551636
1132.034948,-10339.535992,1531.783110,9573.644437
1132.035251,-10952.249236,919.069866,9650.233593
1132.035525,-7505.737239,-2527.442131,10722.481770
1132.035830,306.356622,-3752.868619,10262.946837
1132.036134,9650.233593,-1761.550576,9420.466126
1132.036439,12177.675724,-2986.977064,9037.520349
1132.036744,7046.202306,-4212.403552,10722.481770
1132.037048,-229.767466,-4825.116796,10569.303459
1132.037353,-4978.295107,-4059.225241,9267.287815
1132.037657,-8577.985416,-4059.225241,9956.590215
1132.037941,-7658.915550,-5667.597507,10109.768526
1132.038244,-689.302399,-4059.225241,10722.481770
1132.038546,7122.791461,-3140.155375,9650.233593
1132.038849,10262.946837,-382.945777,10262.946837
1132.039152,5054.884263,306.356622,11641.551636
1132.039455,153.178311,2450.852976,11488.373325
1132.039758,-4135.814397,3829.457775,10262.946837
1132.040061,-9190.698660,3216.744531,9956.590215
1132.040342,-9880.001059,765.891555,10645.892614
1132.040645,-3676.279464,-536.124088,9650.233593
1132.040948,5054.884263,-382.945777,9803.411904
1132.041250,9650.233593,-2221.085509,10569.303459
1132.041553,5973.954129,-1761.550576,12560.621502
1132.041856,153.178311,-2680.620442,12254.264880
1132.042158,-5437.830040,-1302.015643,11182.016703
1132.042461,-10033.179370,-842.480710,10722.481770
1132.042751,-10645.892614,-689.302399,11028.838392
1132.043047,-4595.349330,306.356622,9956.590215
1132.043344,6739.845684,1072.248177,9267.287815
1132.043641,13403.102212,2604.031287,9573.644437
1132.043938,15164.652789,3982.636086,9803.411904
1132.044234,9803.411904,4288.992708,9956.590215
1132.044531,1684.961421,3369.922842,9573.644437
1132.044828,-5437.830040,1684.961421,10722.481770
1132.045137,-11105.427547,153.178311,10875.660081
1132.045435,-9190.698660,-1761.550576,9956.590215
1132.045734,-4825.116796,-3446.511997,10262.946837
1132.046032,1838.139732,-5208.062574,10722.481770
1132.046331,2833.798753,-5514.419196,13479.691368
1132.046629,1378.604799,-3906.046930,13096.745590
1132.046928,-2067.907198,-1608.372265,10875.660081
1132.047226,-5744.186662,-689.302399,9956.590215
1132.047533,-8424.807105,153.178311,10262.946837
1132.047832,-5897.364973,306.356622,9573.644437
1132.048131,1991.318043,1072.248177,8041.861327
1132.048430,8807.752882,1072.248177,9420.466126
1132.048729,13403.102212,-689.302399,9956.590215
1132.049028,13556.280523,459.534933,10569.303459
1132.049327,7046.202306,-0.000000,9573.644437
1132.049626,-2450.852976,-1148.837332,9573.644437
1132.049922,-9343.876971,-2067.907198,10722.481770
1132.050225,-11718.140791,-2833.798753,10569.303459
