#time,accel_x,accel_y,accel_z
1103.699861,153.178311,-382.945777,10186.357681
1103.700163,612.713244,-229.767466,10722.481770
1103.700466,4365.581863,-76.589155,10262.946837
1103.700768,5973.954129,-229.767466,10109.768526
1103.701070,11335.195014,-229.767466,9650.233593
1103.701377,14551.939545,-536.124088,9420.466126
1103.701674,19300.467186,-382.945777,9420.466126
1103.701970,21291.785229,-76.589155,9114.109504
1103.702266,19913.180430,306.356622,10262.946837
1103.702562,20525.893674,1225.426488,9726.822748
1103.702859,18304.808164,1684.961421,9956.590215
1103.703155,17538.916609,2297.674665,9650.233593
1103.703451,15317.831100,2757.209598,9267.287815
1103.703759,14168.993767,765.891555,10416.125148
1103.704062,17385.738298,-229.767466,10569.303459
1103.704365,22593.800872,-229.767466,10416.125148
1103.704668,28108.220068,153.178311,9573.644437
1103.704970,29257.057401,-536.124088,8195.039638
1103.705273,24048.994827,-2221.085509,10109.768526
1103.705576,17079.381676,-3906.046930,14551.939545
1103.705879,9956.590215,-3906.046930,15394.420255
1103.706197,6127.132440,-1148.837332,14628.528700
1103.706493,2833.798753,-536.124088,13479.691368
1103.706788,-2374.263820,-689.302399,15241.241944
1103.707084,-5591.008351,153.178311,18840.932253
1103.707379,-382.945777,2604.031287,14628.528700
1103.707675,5973.954129,8041.861327,10109.768526
1103.707970,10262.946837,7888.683016,8348.217949
1103.708266,10416.125148,2757.209598,8041.861327
1103.708583,10875.660081,-1148.837332,8195.039638
1103.708881,15930.544344,-4518.760174,6586.667373
1103.709179,18994.110564,-8271.628794,5820.775818
1103.709476,20985.428607,-9650.233593,5361.240885
1103.709774,19760.002119,-8118.450483,6510.078217
1103.710072,14398.761234,-4518.760174,8041.861327
1103.710370,6893.023995,-1608.372265,11182.016703
1103.710668,-689.302399,919.069866,13786.047990
1103.710968,-9343.876971,1991.318043,14168.993767
1103.711264,-16619.846743,3216.744531,12790.388968
1103.711561,-21444.963540,1684.961421,13403.102212
1103.711858,-20755.661140,-2680.620442,12101.086569
1103.712154,-16849.614210,-6739.845684,11028.838392
1103.712451,-9880.001059,-6586.667373,9726.822748
1103.712748,-3369.922842,-5667.597507,9650.233593
1103.713044,3599.690308,-3446.511997,9956.590215
1103.713358,9497.055282,-536.124088,11335.195014
1103.713657,16236.900966,3676.279464,11488.373325
1103.713956,23895.816516,6816.434839,9267.287815
1103.714254,27035.971891,6663.256528,6280.310751
1103.714553,23053.335805,1531.783110,6280.310751
1103.714852,10416.125148,-5361.240885,9267.287815
1103.715151,-1761.550576,-13862.637145,10033.179370
1103.715449,-11105.427547,-19300.467186,11718.140791
1103.715756,-15394.420255,-19147.288875,12790.388968
1103.716054,-17155.970832,-12790.388968,12943.567279
1103.716351,-13939.226301,-1302.015643,11947.908258
1103.716648,-6050.543284,10416.125148,12254.264880
1103.716945,-1148.837332,16466.668432,13249.923901
1103.717243,459.534933,19223.878030,14322.172078
1103.717540,459.534933,17692.094920,12713.799813
1103.717837,-1302.015643,11794.729947,10416.125148
1103.718167,-3523.101153,2910.387909,9267.287815
1103.718463,-4595.349330,-10033.179370,8807.752882
1103.718759,-3523.101153,-17768.684076,8118.450483
1103.719056,3906.046930,-21521.552695,6510.078217
1103.719352,8654.574571,-19377.056341,7429.148083
1103.719648,14398.761234,-11718.140791,7429.148083
1103.719945,16390.079277,1991.318043,8041.861327
1103.720241,13403.102212,12866.978124,8501.396260
1103.720536,4671.938485,18917.521408,10875.660081
1103.720837,-5284.651729,20066.358741,13249.923901
1103.721138,-12101.086569,19223.878030,13249.923901
1103.721438,-13632.869679,12560.621502,12101.086569
1103.721739,-10645.892614,3369.922842,10875.660081
1103.722040,-2604.031287,-3599.690308,11182.016703
1103.722341,7046.202306,-6586.667373,9956.590215
1103.722642,14168.993767,-7812.093861,10569.303459
1103.722954,15164.652789,-5973.954129,10875.660081
1103.723251,11488.373325,-3140.155375,10722.481770
1103.723548,1378.604799,-1761.550576,11028.838392
1103.723846,-9726.822748,-2986.977064,11947.908258
1103.724143,-18228.219009,-6280.310751,12713.799813
1103.724441,-19377.056341,-7812.093861,13709.458834
1103.724738,-13020.156435,-7199.380617,11028.838392
1103.725035,-3369.922842,-3599.690308,10416.125148
1103.725345,8041.861327,919.069866,10569.303459
1103.725643,16619.846743,6050.543284,10799.070925
1103.725942,21368.374384,12560.621502,9114.109504
1103.726240,17385.738298,13632.869679,7122.791461
1103.726539,7275.969772,9267.287815,8195.039638
1103.726837,-3216.744531,1378.604799,8348.217949
1103.727136,-13479.691368,-10186.357681,10875.660081
1103.727434,-18687.753942,-19683.412963,12866.978124
1103.727741,-18840.932253,-23819.227360,13709.458834
1103.728041,-7965.272172,-18075.040698,11488.373325
1103.728341,4365.581863,-8118.450483,8960.931193
1103.728640,11028.838392,1225.426488,9573.644437
1103.728940,13556.280523,8807.752882,9956.590215
1103.729240,11794.729947,13939.226301,8960.931193
1103.729540,6586.667373,14398.761234,7658.915550
1103.729839,-2910.387909,8501.396260,8348.217949
1103.730136,-11564.962480,-1914.728887,10722.481770
1103.730439,-13479.691368,-8884.342038,11794.729947
1103.730741,-9497.055282,-11258.605858,11641.551636
1103.731044,-5284.651729,-10492.714303,11794.729947
1103.731347,-0.000000,-5208.062574,11335.195014
1103.731650,6586.667373,2297.674665,10339.535992
1103.731953,10875.660081,9114.109504,8195.039638
1103.732256,8807.752882,10416.125148,7888.683016
1103.732551,2527.442131,6663.256528,10109.768526
1103.732848,-4135.814397,306.356622,10875.660081
1103.733144,-7965.272172,-5667.597507,11794.729947
1103.733441,-7199.380617,-9650.233593,11335.195014
1103.733738,-4748.527641,-10645.892614,11488.373325
1103.734035,459.534933,-6433.489062,11335.195014
1103.734332,6739.845684,306.356622,11028.838392
1103.734628,9420.466126,8501.396260,10109.768526
1103.734940,8654.574571,12560.621502,9190.698660
1103.735241,3446.511997,12560.621502,9803.411904
1103.735542,-3216.744531,7275.969772,10109.768526
1103.735842,-10799.070925,-1914.728887,12254.264880
1103.736143,-13632.869679,-9880.001059,12790.388968
1103.736444,-9880.001059,-12790.388968,11335.195014
1103.736745,-2374.263820,-12484.032346,9880.001059
1103.737045,5054.884263,-7658.915550,9803.411904
1103.737378,13556.280523,-842.480710,9420.466126
1103.737670,17079.381676,7275.969772,8348.217949
1103.737962,14398.761234,11028.838392,7122.791461
1103.738254,5208.062574,11335.195014,6510.078217
1103.738546,-8118.450483,4595.349330,10416.125148
1103.738838,-18994.110564,-5361.240885,14705.117856
1103.739130,-22823.568339,-14168.993767,15853.955188
1103.739422,-17155.970832,-14858.296167,12790.388968
1103.739729,-5437.830040,-11718.140791,8501.396260
1103.740031,5820.775818,-6893.023995,8348.217949
1103.740334,15164.652789,-842.480710,8041.861327
1103.740636,18457.986475,6816.434839,9114.109504
1103.740938,17692.094920,9956.590215,7275.969772
1103.741240,6893.023995,7275.969772,8807.752882
1103.741543,-3676.279464,2450.852976,11488.373325
1103.741845,-12866.978124,-3906.046930,12407.443191
1103.742161,-15394.420255,-8577.985416,13709.458834
1103.742459,-11718.140791,-10186.357681,12101.086569
1103.742758,-6663.256528,-8118.450483,12790.388968
1103.743056,-76.589155,-2221.085509,11335.195014
1103.743355,9497.055282,5437.830040,10339.535992
1103.743653,14551.939545,11641.551636,9956.590215
1103.743952,14551.939545,13939.226301,8960.931193
1103.744250,7582.326394,12407.443191,10109.768526
1103.744564,-1302.015643,5897.364973,10799.070925
1103.744859,-8731.163727,-2986.977064,10722.481770
1103.745154,-12866.978124,-9726.822748,11641.551636
1103.745449,-12101.086569,-12790.388968,12177.675724
1103.745744,-8577.985416,-11564.962480,11794.729947
1103.746039,-2067.907198,-5820.775818,11335.195014
1103.746334,6127.132440,1684.961421,10262.946837
1103.746628,10416.125148,8195.039638,9267.287815
1103.746941,11335.195014,9956.590215,8501.396260
1103.747240,5361.240885,8960.931193,8654.574571
1103.747538,-2067.907198,3369.922842,9420.466126
1103.747837,-10186.357681,-3293.333686,11947.908258
1103.748135,-10492.714303,-8731.163727,10109.768526
1103.748434,-6203.721595,-10799.070925,9573.644437
1103.748732,-3369.922842,-9650.233593,10109.768526
1103.749031,3140.155375,-5208.062574,10416.125148
1103.749330,9956.590215,3216.744531,9803.411904
1103.749630,14551.939545,9573.644437,8195.039638
1103.749930,12637.210657,11488.373325,8271.628794
1103.750230,3446.511997,9267.287815,9114.109504
1103.750530,-5897.364973,2757.209598,11258.605858
1103.750830,-13479.691368,-5667.597507,12713.799813
1103.751131,-13939.226301,-10645.892614,12713.799813
1103.751431,-10645.892614,-13249.923901,12407.443191
1103.751738,-3523.101153,-11258.605858,11028.838392
1103.752035,3599.690308,-5514.419196,11105.427547
1103.752331,11182.016703,2297.674665,10109.768526
1103.752628,12330.854035,8654.574571,9420.466126
1103.752925,8348.217949,10262.946837,9573.644437
1103.753222,-536.124088,7429.148083,10109.768526
1103.753519,-8118.450483,1838.139732,10722.481770
1103.753816,-12713.799813,-6586.667373,11947.908258
1103.754130,-12407.443191,-12024.497413,12713.799813
1103.754430,-7352.558928,-12637.210657,11488.373325
1103.754731,459.534933,-8731.163727,10722.481770
1103.755031,10262.946837,-2221.085509,9956.590215
1103.755331,15011.474478,5131.473418,9190.698660
1103.755632,16083.722655,10262.946837,8501.396260
1103.755932,9956.590215,12254.264880,7888.683016
1103.756232,459.534933,8654.574571,9267.287815
1103.756551,-10186.357681,306.356622,11258.605858
1103.756847,-17615.505765,-7812.093861,13403.102212
1103.757143,-16619.846743,-13096.745590,13096.745590
1103.757439,-10799.070925,-12177.675724,11488.373325
1103.757735,-1761.550576,-7199.380617,10033.179370
1103.758031,7275.969772,153.178311,9267.287815
1103.758327,12484.032346,5284.651729,9803.411904
1103.758624,12943.567279,8960.931193,9650.233593
1103.758941,8654.574571,9650.233593,9114.109504
1103.759239,765.891555,5437.830040,9420.466126
1103.759538,-7505.737239,-1455.193954,10186.357681
1103.759837,-11718.140791,-8118.450483,11641.551636
1103.760135,-10799.070925,-11258.605858,11641.551636
1103.760434,-6969.613150,-11258.605858,11182.016703
1103.760732,-2067.907198,-8271.628794,12254.264880
1103.761031,4212.403552,-1608.372265,12560.621502
1103.761307,11335.195014,7122.791461,10722.481770
1103.761607,14705.117856,12254.264880,7888.683016
1103.761908,11641.551636,12866.978124,7582.326394
1103.762208,3599.690308,7735.504705,9573.644437
1103.762508,-5897.364973,-0.000000,11411.784169
1103.762808,-12407.443191,-6893.023995,13096.745590
1103.763108,-13173.334746,-11258.605858,11718.140791
1103.763408,-10492.714303,-12943.567279,11641.551636
1103.763738,-4288.992708,-9880.001059,11794.729947
1103.764035,4365.581863,-2680.620442,10799.070925
1103.764332,10722.481770,5131.473418,10262.946837
1103.764629,14398.761234,11028.838392,8195.039638
1103.764926,9803.411904,11794.729947,8501.396260
1103.765223,1838.139732,8195.039638,9803.411904
1103.765520,-6816.434839,1378.604799,11182.016703
1103.765817,-11564.962480,-6127.132440,11335.195014
1103.766125,-10339.535992,-10033.179370,11641.551636
1103.766424,-5284.651729,-9650.233593,10875.660081
1103.766724,919.069866,-5973.954129,10722.481770
1103.767024,8654.574571,1378.604799,10569.303459
1103.767324,14245.582923,7275.969772,9037.520349
1103.767624,12177.675724,10416.125148,8041.861327
1103.767924,6433.489062,9956.590215,8348.217949
1103.768223,-3369.922842,3982.636086,10109.768526
1103.768507,-12407.443191,-4518.760174,12943.567279
1103.768812,-14092.404612,-11105.427547,13479.691368
1103.769116,-11564.962480,-13556.280523,11641.551636
1103.769421,-5897.364973,-11564.962480,10109.768526
1103.769726,306.356622,-7812.093861,10722.481770
1103.770031,7582.326394,612.713244,10952.249236
1103.770335,12330.854035,7582.326394,9650.233593
1103.770640,12024.497413,10875.660081,7888.683016
1103.770877,5514.419196,9956.590215,9267.287815
1103.771186,-3369.922842,4135.814397,10109.768526
1103.771495,-10645.892614,-4365.581863,11564.962480
1103.771804,-12866.978124,-11258.605858,13709.458834
1103.772113,-9880.001059,-14705.117856,12560.621502
1103.772422,-3216.744531,-12024.497413,11794.729947
1103.772730,4901.705952,-4825.116796,9956.590215
1103.773039,11794.729947,1991.318043,9573.644437
1103.773329,14168.993767,7888.683016,9573.644437
1103.773625,10875.660081,10262.946837,8501.396260
1103.773921,3752.868619,9650.233593,9650.233593
1103.774217,-5744.186662,2604.031287,10569.303459
1103.774512,-14245.582923,-5361.240885,12407.443191
1103.774808,-14245.582923,-9650.233593,12101.086569
1103.775104,-11258.605858,-11564.962480,12024.497413
1103.775400,-3523.101153,-9880.001059,10722.481770
1103.775674,3752.868619,-3752.868619,10109.768526
1103.775978,11335.195014,4288.992708,8731.163727
1103.776281,14168.993767,9420.466126,8041.861327
1103.776585,11028.838392,11182.016703,8348.217949
1103.776888,3752.868619,8807.752882,9267.287815
1103.777192,-6050.543284,2144.496354,11182.016703
1103.777495,-12560.621502,-5208.062574,12254.264880
1103.777799,-13020.156435,-9343.876971,11947.908258
1103.778106,-9573.644437,-10799.070925,10875.660081
1103.778406,-2910.387909,-7658.915550,11182.016703
1103.778707,5361.240885,-995.659021,10569.303459
1103.779007,11488.373325,6969.613150,9956.590215
1103.779308,13862.637145,12560.621502,8960.931193
1103.779608,10875.660081,14398.761234,8654.574571
1103.779909,4671.938485,10569.303459,9573.644437
1103.780210,-4442.171019,3063.566220,10875.660081
1103.780506,-12101.086569,-5208.062574,12790.388968
1103.780807,-13020.156435,-11564.962480,12943.567279
1103.781107,-10492.714303,-12177.675724,11411.784169
1103.781407,-3676.279464,-10799.070925,10569.303459
1103.781708,1838.139732,-6127.132440,12101.086569
1103.782008,8041.861327,-229.767466,11641.551636
1103.782308,11488.373325,7275.969772,9267.287815
1103.782609,11641.551636,10416.125148,7275.969772
1103.782903,5208.062574,8041.861327,6280.310751
1103.783204,-4595.349330,-76.589155,10722.481770
1103.783504,-11258.605858,-8731.163727,13096.745590
1103.783804,-12407.443191,-13403.102212,12713.799813
1103.784104,-8884.342038,-12637.210657,11105.427547
1103.784404,-3063.566220,-9190.698660,9956.590215
1103.784704,3906.046930,-3293.333686,10492.714303
1103.785004,10875.660081,4595.349330,9956.590215
1103.785292,12943.567279,10109.768526,8731.163727
1103.785593,9497.055282,11947.908258,8348.217949
1103.785894,612.713244,8041.861327,9037.520349
1103.786195,-7352.558928,-0.000000,10416.125148
1103.786496,-13173.334746,-8271.628794,13249.923901
1103.786796,-13020.156435,-13096.745590,12713.799813
1103.787097,-7965.272172,-13556.280523,11947.908258
1103.787398,-76.589155,-8271.628794,10875.660081
1103.787730,8807.752882,-76.589155,9573.644437
1103.788026,12637.210657,6663.256528,9650.233593
1103.788321,13403.102212,10722.481770,9114.109504
1103.788616,6586.667373,10722.481770,9420.466126
1103.788912,-3216.744531,6969.613150,11182.016703
1103.789207,-12713.799813,-995.659021,12790.388968
1103.789503,-16160.311810,-8118.450483,12637.210657
1103.789798,-10952.249236,-11105.427547,12101.086569
1103.790105,-4748.527641,-11105.427547,11105.427547
1103.790403,2374.263820,-5667.597507,10569.303459
1103.790701,11488.373325,2910.387909,9803.411904
1103.790999,16926.203365,11182.016703,8654.574571
1103.791298,15930.544344,14398.761234,7888.683016
1103.791596,6280.310751,12101.086569,9803.411904
1103.791894,-3523.101153,4978.295107,11028.838392
1103.792192,-11564.962480,-2833.798753,11641.551636
1103.792508,-13326.513057,-9880.001059,11488.373325
1103.792807,-13020.156435,-14322.172078,11641.551636
1103.793105,-8731.163727,-14168.993767,11718.140791
1103.793404,-382.945777,-8118.450483,11794.729947
1103.793702,8348.217949,612.713244,9573.644437
1103.794000,11641.551636,8195.039638,9420.466126
1103.794299,11488.373325,13020.156435,8501.396260
1103.794597,6433.489062,12407.443191,8041.861327
1103.794912,-1302.015643,6050.543284,9573.644437
1103.795210,-9726.822748,-3446.511997,11488.373325
1103.795509,-13479.691368,-11871.319102,12254.264880
1103.795808,-10339.535992,-14322.172078,11488.373325
1103.796106,-2910.387909,-12024.497413,10875.660081
1103.796405,3906.046930,-6127.132440,10109.768526
1103.796704,11182.016703,1225.426488,9650.233593
1103.797002,14551.939545,7275.969772,8960.931193
1103.797290,12330.854035,10262.946837,8195.039638
1103.797590,4901.705952,9650.233593,7888.683016
1103.797890,-5591.008351,2757.209598,10033.179370
1103.798190,-14322.172078,-6127.132440,13556.280523
1103.798490,-15547.598566,-12177.675724,13556.280523
1103.798790,-12560.621502,-12484.032346,12177.675724
1103.799090,-6356.899906,-9037.520349,10492.714303
1103.799390,919.069866,-4671.938485,11182.016703
1103.799745,10262.946837,3829.457775,10416.125148
1103.800037,15164.652789,10416.125148,8807.752882
1103.800329,12790.388968,12560.621502,7735.504705
1103.800621,4748.527641,9420.466126,8041.861327
1103.800913,-4978.295107,1225.426488,10875.660081
1103.801205,-12407.443191,-8424.807105,13786.047990
1103.801497,-13786.047990,-13556.280523,13403.102212
1103.801789,-9343.876971,-13709.458834,12177.675724
1103.802096,-2604.031287,-9726.822748,10262.946837
1103.802395,5054.884263,-2067.907198,9420.466126
1103.802695,11028.838392,5744.186662,9726.822748
1103.802994,12330.854035,9956.590215,10033.179370
1103.803293,8501.396260,10262.946837,10262.946837
1103.803593,2680.620442,9114.109504,9956.590215
1103.803892,-3216.744531,3369.922842,8807.752882
1103.804191,-9726.822748,-5667.597507,10875.660081
1103.804495,-12407.443191,-11564.962480,12713.799813
1103.804795,-10799.070925,-12637.210657,12790.388968
1103.805095,-4748.527641,-9343.876971,11335.195014
1103.805396,3293.333686,-2374.263820,9956.590215
1103.805696,8654.574571,3829.457775,9803.411904
1103.805996,10875.660081,8807.752882,9267.287815
1103.806297,10109.768526,10722.481770,8041.861327
1103.806597,3446.511997,7429.148083,9573.644437
1103.806916,-4825.116796,-76.589155,10875.660081
1103.807213,-11411.784169,-6586.667373,12254.264880
1103.807511,-10186.357681,-8884.342038,10952.249236
1103.807809,-6969.613150,-10033.179370,9956.590215
1103.808106,-3523.101153,-7199.380617,11641.551636
1103.808404,3293.333686,-995.659021,12560.621502
1103.808702,11794.729947,7582.326394,9880.001059
1103.808999,15164.652789,12254.264880,8041.861327
1103.809312,9650.233593,12254.264880,8654.574571
1103.809608,1072.248177,7122.791461,9497.055282
1103.809904,-7122.791461,306.356622,12560.621502
1103.810200,-11871.319102,-6280.310751,12407.443191
1103.810496,-12254.264880,-11258.605858,12330.854035
1103.810792,-8731.163727,-11105.427547,11488.373325
1103.811088,-689.302399,-7199.380617,10722.481770
1103.811384,7888.683016,-995.659021,9650.233593
1103.811730,12330.854035,5131.473418,9573.644437
1103.812025,13249.923901,9267.287815,8501.396260
1103.812319,7429.148083,8654.574571,8807.752882
1103.812613,-76.589155,5744.186662,10109.768526
1103.812907,-8424.807105,-2221.085509,10799.070925
1103.813201,-13479.691368,-10492.714303,12254.264880
1103.813495,-13479.691368,-14551.939545,12560.621502
1103.813789,-8577.985416,-13403.102212,11641.551636
1103.814096,-0.000000,-6127.132440,10186.357681
1103.814396,9267.287815,1225.426488,9114.109504
1103.814697,13862.637145,7429.148083,9573.644437
1103.814997,11641.551636,10875.660081,9267.287815
1103.815297,6280.310751,11182.016703,8654.574571
1103.815597,-536.124088,5897.364973,9573.644437
1103.815897,-9497.055282,-3599.690308,11335.195014
1103.816198,-13786.047990,-12177.675724,13709.458834
1103.816512,-12101.086569,-14475.350389,12407.443191
1103.816811,-5284.651729,-12484.032346,10569.303459
1103.817110,1225.426488,-7046.202306,10722.481770
1103.817410,8960.931193,-0.000000,9956.590215
1103.817709,14168.993767,7429.148083,9880.001059
1103.818009,14015.815456,11182.016703,8501.396260
1103.818308,5820.775818,9420.466126,9267.287815
1103.818608,-4442.171019,3369.922842,11641.551636
1103.818881,-12101.086569,-4059.225241,12407.443191
1103.819180,-13632.869679,-10033.179370,13096.745590
1103.819479,-10952.249236,-10952.249236,11794.729947
1103.819778,-6050.543284,-8577.985416,11794.729947
1103.820077,1838.139732,-2833.798753,10416.125148
1103.820377,11335.195014,4748.527641,9650.233593
1103.820676,15624.187722,10569.303459,8654.574571
1103.820975,13096.745590,12713.799813,8501.396260
1103.821292,5973.954129,10109.768526,8960.931193
1103.821590,-1608.372265,3829.457775,9803.411904
1103.821888,-9343.876971,-4059.225241,11028.838392
1103.822186,-13173.334746,-10645.892614,12024.497413
1103.822483,-11564.962480,-12484.032346,12177.675724
1103.822781,-5744.186662,-9880.001059,10875.660081
1103.823079,1531.783110,-3752.868619,9420.466126
1103.823377,8348.217949,3523.101153,9267.287815
1103.823723,9650.233593,7735.504705,9956.590215
1103.824017,8654.574571,9573.644437,9803.411904
1103.824310,4518.760174,9573.644437,9573.644437
1103.824603,-1148.837332,4442.171019,9267.287815
1103.824897,-9573.644437,-3906.046930,11335.195014
1103.825190,-13020.156435,-10186.357681,12943.567279
1103.825484,-10033.179370,-10799.070925,12713.799813
1103.825777,-3369.922842,-8118.450483,10569.303459
1103.826067,2833.798753,-3599.690308,10109.768526
1103.826369,9114.109504,2604.031287,10416.125148
1103.826670,11794.729947,7429.148083,9573.644437
1103.826971,11641.551636,10109.768526,8348.217949
1103.827273,6739.845684,8195.039638,7582.326394
1103.827574,-2374.263820,306.356622,10262.946837
1103.827875,-10339.535992,-8884.342038,13556.280523
1103.828176,-12101.086569,-12177.675724,13249.923901
1103.828484,-9343.876971,-10799.070925,11028.838392
1103.828784,-3676.279464,-8424.807105,9650.233593
1103.829085,612.713244,-3599.690308,10645.892614
1103.829385,7122.791461,3063.566220,11182.016703
1103.829686,9956.590215,9114.109504,10109.768526
1103.829986,9420.466126,10569.303459,7888.683016
1103.830287,2297.674665,7429.148083,8807.752882
1103.830587,-7505.737239,-76.589155,11488.373325
1103.830871,-13479.691368,-8118.450483,14168.993767
1103.831170,-11258.605858,-9650.233593,12713.799813
1103.831470,-5437.830040,-9650.233593,9114.109504
1103.831770,-689.302399,-7199.380617,10109.768526
1103.832069,7122.791461,-1148.837332,9956.590215
1103.832369,13556.280523,5591.008351,9190.698660
1103.832668,14705.117856,9573.644437,8348.217949
1103.832968,8654.574571,9650.233593,9420.466126
1103.833228,612.713244,6356.899906,10722.481770
1103.833534,-8118.450483,153.178311,11028.838392
1103.833840,-15394.420255,-6127.132440,12943.567279
1103.834146,-14934.885322,-11258.605858,12713.799813
1103.834452,-11105.427547,-10339.535992,12407.443191
1103.834757,-3369.922842,-6433.489062,11182.016703
1103.835063,5973.954129,1225.426488,9956.590215
1103.835369,12330.854035,7888.683016,9114.109504
1103.835681,14705.117856,11028.838392,8041.861327
1103.835978,9267.287815,9803.411904,9420.466126
1103.836274,765.891555,4978.295107,10339.535992
1103.836571,-7505.737239,-1302.015643,11488.373325
1103.836868,-12407.443191,-8271.628794,12101.086569
1103.837164,-11564.962480,-11871.319102,11488.373325
1103.837461,-7199.380617,-11105.427547,11335.195014
1103.837758,-536.124088,-6586.667373,10722.481770
1103.838072,8195.039638,-0.000000,10109.768526
1103.838369,14168.993767,8041.861327,9650.233593
1103.838667,15164.652789,11488.373325,7582.326394
1103.838965,8654.574571,11335.195014,9267.287815
1103.839263,-0.000000,6663.256528,9803.411904
1103.839561,-8884.342038,-1302.015643,11641.551636
1103.839859,-15088.063633,-9190.698660,13249.923901
1103.840157,-14628.528700,-12790.388968,12790.388968
1103.840463,-8731.163727,-10952.249236,10875.660081
1103.840763,153.178311,-6127.132440,9956.590215
1103.841063,7122.791461,-536.124088,9956.590215
1103.841363,12177.675724,5131.473418,9573.644437
1103.841662,12330.854035,8807.752882,8654.574571
1103.841962,6586.667373,7582.326394,8195.039638
1103.842262,-1302.015643,3676.279464,9650.233593
1103.842561,-8118.450483,-3752.868619,10569.303459
1103.842858,-11105.427547,-10033.179370,11488.373325
1103.843161,-10339.535992,-13096.745590,12101.086569
1103.843464,-6356.899906,-9497.055282,11028.838392
1103.843766,1225.426488,-3446.511997,9650.233593
1103.844069,8807.752882,3676.279464,9956.590215
1103.844372,11488.373325,8041.861327,9343.876971
1103.844675,10569.303459,11335.195014,9343.876971
1103.844978,5208.062574,10416.125148,9114.109504
1103.845273,-1914.728887,4595.349330,9037.520349
1103.845573,-10645.892614,-5054.884263,12560.621502
1103.845873,-16466.668432,-14168.993767,15011.474478
1103.846173,-14092.404612,-15471.009411,13862.637145
1103.846473,-6050.543284,-11258.605858,10722.481770
1103.846773,2297.674665,-5514.419196,9650.233593
1103.847074,9803.411904,1531.783110,9573.644437
1103.847374,13709.458834,8348.217949,9956.590215
1103.847651,14168.993767,11794.729947,8348.217949
1103.847953,6127.132440,9420.466126,8654.574571
1103.848255,-3369.922842,3063.566220,10875.660081
1103.848558,-10492.714303,-3752.868619,12943.567279
1103.848860,-11564.962480,-9343.876971,12254.264880
1103.849163,-9880.001059,-11105.427547,10875.660081
1103.849465,-6050.543284,-9497.055282,11641.551636
1103.849767,1531.783110,-3446.511997,11564.962480
1103.850076,9956.590215,4442.171019,9573.644437
1103.850372,16083.722655,11794.729947,7735.504705
1103.850669,11871.319102,12866.978124,8041.861327
1103.850965,3752.868619,10262.946837,9420.466126
1103.851261,-5897.364973,3063.566220,11182.016703
1103.851557,-13632.869679,-4825.116796,12713.799813
1103.851853,-15700.776877,-10492.714303,12790.388968
1103.852149,-13479.691368,-13403.102212,12407.443191
1103.852456,-4288.992708,-9880.001059,11182.016703
1103.852758,5208.062574,-2833.798753,9803.411904
1103.853061,12177.675724,4748.527641,9114.109504
1103.853363,15930.544344,10262.946837,8501.396260
1103.853665,13403.102212,11947.908258,7735.504705
1103.853967,5208.062574,8501.396260,9420.466126
1103.854270,-3523.101153,1991.318043,10109.768526
1103.854572,-10033.179370,-6280.310751,11488.373325
1103.854888,-11105.427547,-11258.605858,12943.567279
1103.855187,-9190.698660,-12790.388968,12560.621502
1103.855485,-1914.728887,-8424.807105,11794.729947
1103.855783,6280.310751,-1148.837332,9573.644437
1103.856082,11335.195014,5591.008351,8960.931193
1103.856380,10722.481770,9267.287815,9650.233593
1103.856679,4518.760174,9803.411904,9880.001059
1103.856977,-536.124088,7275.969772,9956.590215
1103.857292,-7658.915550,153.178311,11182.016703
1103.857586,-14322.172078,-9190.698660,13403.102212
1103.857881,-14781.707011,-14322.172078,13709.458834
1103.858176,-10799.070925,-13403.102212,11488.373325
1103.858471,-382.945777,-8731.163727,9190.698660
1103.858766,6893.023995,-3293.333686,9803.411904
1103.859061,12790.388968,3063.566220,8807.752882
1103.859356,15164.652789,8501.396260,8041.861327
1103.859669,11335.195014,10109.768526,8195.039638
1103.859967,2833.798753,5744.186662,8501.396260
1103.860266,-6816.434839,-1761.550576,10875.660081
1103.860564,-11947.908258,-9190.698660,12943.567279
1103.860862,-11947.908258,-12024.497413,13403.102212
1103.861161,-7352.558928,-10492.714303,11028.838392
1103.861459,-382.945777,-5054.884263,9956.590215
1103.861758,6127.132440,1225.426488,10416.125148
1103.862057,9114.109504,6663.256528,12101.086569
1103.862357,10722.481770,12101.086569,10262.946837
1103.862656,7429.148083,13632.869679,8654.574571
1103.862955,-536.124088,8501.396260,9267.287815
1103.863254,-9726.822748,-1914.728887,11947.908258
1103.863554,-15700.776877,-10645.892614,14628.528700
1103.863853,-11718.140791,-14168.993767,12560.621502
1103.864152,-5897.364973,-11871.319102,10416.125148
1103.864459,3906.046930,-6739.845684,9343.876971
1103.864762,10875.660081,153.178311,8501.396260
1103.865064,14858.296167,7582.326394,9114.109504
1103.865367,14858.296167,11641.551636,8501.396260
1103.865669,7582.326394,10416.125148,8807.752882
1103.865972,-842.480710,5897.364973,10722.481770
1103.866275,-9497.055282,-995.659021,11488.373325
1103.866577,-14781.707011,-9037.520349,12560.621502
1103.866846,-13939.226301,-12024.497413,12713.799813
1103.867148,-8731.163727,-11105.427547,12713.799813
1103.867450,-689.302399,-5820.775818,11258.605858
1103.867752,7735.504705,1838.139732,10339.535992
1103.868053,13709.458834,9114.109504,8807.752882
1103.868355,13862.637145,12866.978124,7888.683016
1103.868657,7735.504705,11182.016703,8195.039638
1103.868959,-229.767466,6356.899906,9497.055282
1103.869261,-8884.342038,-2986.977064,11488.373325
1103.869560,-13632.869679,-11564.962480,13403.102212
1103.869860,-11564.962480,-15471.009411,12177.675724
1103.870159,-4978.295107,-12790.388968,10109.768526
1103.870458,2680.620442,-7505.737239,9497.055282
1103.870757,10109.768526,-229.767466,9650.233593
1103.871057,12330.854035,5744.186662,10262.946837
1103.871356,12484.032346,9803.411904,9267.287815
1103.871673,5820.775818,9956.590215,8041.861327
1103.871969,-2450.852976,5437.830040,9267.287815
1103.872265,-11411.784169,-3293.333686,12101.086569
1103.872561,-15547.598566,-11411.784169,14015.815456
1103.872857,-11871.319102,-11718.140791,13096.745590
1103.873153,-4595.349330,-8424.807105,10416.125148
1103.873449,2374.263820,-2986.977064,9267.287815
1103.873745,8960.931193,2450.852976,10492.714303
1103.874045,12943.567279,8501.396260,10262.946837
1103.874346,12024.497413,12407.443191,8654.574571
1103.874646,5820.775818,10416.125148,8041.861327
1103.874947,-3829.457775,2757.209598,10109.768526
1103.875248,-11258.605858,-7046.202306,13096.745590
1103.875549,-13020.156435,-13403.102212,12943.567279
1103.875849,-10033.179370,-15011.474478,11335.195014
1103.876150,-3982.636086,-10952.249236,11182.016703
1103.876457,2527.442131,-4671.938485,10722.481770
1103.876754,9420.466126,3982.636086,10109.768526
1103.877051,12330.854035,10262.946837,9650.233593
1103.877348,9803.411904,11641.551636,9267.287815
1103.877645,1991.318043,9267.287815,10109.768526
1103.877942,-4825.116796,2910.387909,10722.481770
1103.878239,-9190.698660,-4671.938485,11641.551636
1103.878536,-9726.822748,-10186.357681,11488.373325
1103.878844,-8424.807105,-12484.032346,10875.660081
1103.879143,-3369.922842,-9190.698660,10722.481770
1103.879442,3446.511997,-2527.442131,10722.481770
1103.879741,10416.125148,4825.116796,10109.768526
1103.880040,12330.854035,10262.946837,9114.109504
1103.880338,10416.125148,13173.334746,8348.217949
1103.880637,3446.511997,10722.481770,9190.698660
1103.880936,-6203.721595,1991.318043,10262.946837
1103.881253,-14475.350389,-7046.202306,13096.745590
1103.881552,-15241.241944,-12943.567279,13403.102212
1103.881851,-10645.892614,-12330.854035,11641.551636
1103.882151,-842.480710,-8118.450483,9956.590215
1103.882450,7888.683016,-995.659021,9267.287815
1103.882749,12177.675724,4595.349330,9650.233593
1103.883048,13403.102212,9420.466126,9650.233593
1103.883347,9956.590215,11335.195014,8348.217949
1103.883665,2144.496354,8041.861327,8501.396260
1103.883962,-8118.450483,-76.589155,10875.660081
1103.884260,-14245.582923,-8884.342038,13403.102212
1103.884558,-12101.086569,-12484.032346,13556.280523
1103.884856,-6356.899906,-10492.714303,10875.660081
1103.885153,-0.000000,-6739.845684,10416.125148
1103.885451,8654.574571,765.891555,9956.590215
1103.885749,14551.939545,7122.791461,8807.752882
1103.886049,14551.939545,10875.660081,7429.148083
1103.886348,6893.023995,9956.590215,9114.109504
1103.886647,-1455.193954,5131.473418,10109.768526
1103.886946,-8424.807105,-2221.085509,11182.016703
1103.887245,-14245.582923,-10492.714303,13020.156435
1103.887545,-14475.350389,-14475.350389,13249.923901
1103.887844,-8884.342038,-11411.784169,11028.838392
1103.888143,1991.318043,-4825.116796,8654.574571
1103.888429,8348.217949,-382.945777,8195.039638
1103.888728,10109.768526,4595.349330,9803.411904
1103.889027,9267.287815,6816.434839,9956.590215
1103.889327,4518.760174,6663.256528,10416.125148
1103.889626,-995.659021,2910.387909,10109.768526
1103.889926,-7965.272172,-3599.690308,11335.195014
1103.890225,-10952.249236,-9190.698660,12407.443191
1103.890524,-8577.985416,-10492.714303,11947.908258
1103.890831,-3982.636086,-8118.450483,10109.768526
1103.891132,2374.263820,-2527.442131,9267.287815
1103.891433,7582.326394,1838.139732,9956.590215
1103.891733,9956.590215,5744.186662,11335.195014
1103.892034,9956.590215,9267.287815,10262.946837
1103.892334,6586.667373,9956.590215,9573.644437
1103.892635,-229.767466,4825.116796,9880.001059
1103.892935,-8118.450483,-2680.620442,12101.086569
1103.893232,-11871.319102,-9190.698660,13403.102212
1103.893532,-10952.249236,-10492.714303,11488.373325
1103.893833,-5131.473418,-8577.985416,9573.644437
1103.894133,612.713244,-3752.868619,9573.644437
1103.894433,5820.775818,1072.248177,9650.233593
1103.894734,8348.217949,6356.899906,10262.946837
1103.895034,8501.396260,8654.574571,10262.946837
1103.895334,3293.333686,7122.791461,10109.768526
1103.895662,-4135.814397,2604.031287,12101.086569
1103.895958,-10799.070925,-3293.333686,12560.621502
1103.896254,-10799.070925,-6893.023995,11641.551636
1103.896551,-6663.256528,-8884.342038,9650.233593
1103.896847,-1302.015643,-7352.558928,9420.466126
1103.897143,4365.581863,-4212.403552,9267.287815
1103.897439,11028.838392,2144.496354,9573.644437
1103.897735,15624.187722,7429.148083,8654.574571
1103.898047,13709.458834,11182.016703,7888.683016
1103.898344,6280.310751,8807.752882,8884.342038
1103.898642,-2910.387909,3523.101153,10722.481770
1103.898939,-10952.249236,-2986.977064,12713.799813
1103.899237,-15700.776877,-9497.055282,13096.745590
1103.899534,-15547.598566,-11564.962480,12330.854035
1103.899832,-8884.342038,-9343.876971,11488.373325
1103.900129,-536.124088,-4212.403552,9956.590215
1103.900438,8041.861327,1684.961421,9803.411904
1103.900737,11488.373325,5897.364973,9956.590215
1103.901037,11794.729947,8348.217949,9114.109504
1103.901336,6739.845684,8195.039638,8501.396260
1103.901636,-689.302399,2757.209598,9114.109504
1103.901935,-9343.876971,-6739.845684,11794.729947
1103.902234,-11718.140791,-13096.745590,12866.978124
1103.902534,-8424.807105,-12484.032346,12101.086569
1103.902841,-536.124088,-7658.915550,9650.233593
1103.903140,4901.705952,-1761.550576,9420.466126
1103.903440,9420.466126,3216.744531,10109.768526
1103.903740,10569.303459,8041.861327,10722.481770
1103.904040,7582.326394,10262.946837,9803.411904
1103.904339,1072.248177,8501.396260,9650.233593
1103.904639,-7505.737239,1991.318043,10952.249236
1103.904939,-13632.869679,-5514.419196,13403.102212
1103.905235,-12407.443191,-10339.535992,13096.745590
1103.905533,-8731.163727,-10799.070925,11488.373325
1103.905830,-3063.566220,-8118.450483,10109.768526
1103.906127,3906.046930,-2833.798753,9803.411904
1103.906425,9956.590215,3523.101153,9650.233593
1103.906722,11794.729947,7122.791461,9267.287815
1103.907020,8195.039638,7582.326394,9803.411904
1103.907317,2527.442131,4135.814397,9420.466126
1103.907631,-3369.922842,-995.659021,10339.535992
1103.907930,-7122.791461,-8271.628794,11182.016703
1103.908228,-8424.807105,-10799.070925,11488.373325
1103.908526,-5131.473418,-9650.233593,10262.946837
1103.908824,306.356622,-4212.403552,9114.109504
1103.909122,5667.597507,1684.961421,10262.946837
1103.909421,8807.752882,7735.504705,9956.590215
1103.909719,9267.287815,11794.729947,9650.233593
1103.910031,5973.954129,12101.086569,9497.055282
1103.910330,-1914.728887,6510.078217,10722.481770
1103.910629,-11258.605858,-1302.015643,13709.458834
1103.910928,-15394.420255,-7199.380617,13862.637145
1103.911227,-12101.086569,-9726.822748,11794.729947
1103.911526,-5591.008351,-9343.876971,9650.233593
1103.911825,-0.000000,-5973.954129,9420.466126
1103.912124,7582.326394,-689.302399,9573.644437
1103.912424,12943.567279,4288.992708,9573.644437
1103.912723,15317.831100,7275.969772,8807.752882
1103.913022,10262.946837,7735.504705,8654.574571
1103.913321,2986.977064,4595.349330,9420.466126
1103.913621,-6663.256528,-1914.728887,11335.195014
1103.913920,-11947.908258,-7965.272172,13249.923901
1103.914219,-12101.086569,-9726.822748,12407.443191
1103.914518,-6510.078217,-7658.915550,10109.768526
1103.914825,-842.480710,-2833.798753,9880.001059
1103.915125,6433.489062,2144.496354,9650.233593
1103.915424,9497.055282,6663.256528,10569.303459
1103.915723,9803.411904,8501.396260,10262.946837
1103.916022,5514.419196,7582.326394,9803.411904
1103.916322,-1914.728887,3369.922842,10416.125148
1103.916621,-9343.876971,-2986.977064,11947.908258
1103.916920,-11718.140791,-8884.342038,12407.443191
1103.917240,-9880.001059,-11564.962480,10722.481770
1103.917538,-4748.527641,-10492.714303,10109.768526
1103.917835,306.356622,-6893.023995,9267.287815
1103.918132,6280.310751,-1761.550576,9420.466126
1103.918429,11028.838392,4135.814397,9650.233593
1103.918726,11641.551636,7582.326394,8807.752882
1103.919023,5514.419196,6510.078217,9650.233593
1103.919320,-1148.837332,3063.566220,10722.481770
1103.919638,-7199.380617,-2527.442131,11794.729947
1103.919937,-10033.179370,-8118.450483,12254.264880
1103.920235,-9880.001059,-9190.698660,11641.551636
1103.920533,-5744.186662,-7199.380617,10645.892614
1103.920831,-0.000000,-2067.907198,10416.125148
1103.921129,6893.023995,2757.209598,9956.590215
1103.921428,8960.931193,5897.364973,10722.481770
1103.921726,8195.039638,8654.574571,10109.768526
1103.922039,4365.581863,8807.752882,9956.590215
1103.922335,-689.302399,4288.992708,9956.590215
1103.922631,-7812.093861,-4059.225241,11794.729947
1103.922927,-11411.784169,-10186.357681,13709.458834
1103.923223,-9037.520349,-10799.070925,11488.373325
1103.923519,-2450.852976,-7046.202306,8960.931193
1103.923815,3752.868619,-3140.155375,8424.807105
1103.924111,8501.396260,1838.139732,9650.233593
1103.924410,10569.303459,6203.721595,10262.946837
1103.924711,9267.287815,8348.217949,9267.287815
1103.925012,3293.333686,7122.791461,9803.411904
1103.925313,-5284.651729,1225.426488,10799.070925
1103.925613,-12407.443191,-5054.884263,12484.032346
1103.925914,-12407.443191,-8424.807105,12101.086569
1103.926215,-9190.698660,-9726.822748,10262.946837
1103.926516,-3676.279464,-8577.985416,10416.125148
1103.926823,3906.046930,-2986.977064,10799.070925
1103.927120,12790.388968,3982.636086,9267.287815
1103.927417,15777.366033,9803.411904,8118.450483
1103.927714,12177.675724,10875.660081,8807.752882
1103.928010,3906.046930,9420.466126,9343.876971
1103.928307,-4442.171019,3523.101153,9803.411904
1103.928604,-11564.962480,-5208.062574,12713.799813
1103.928901,-13632.869679,-10799.070925,13096.745590
1103.929215,-10645.892614,-12177.675724,11258.605858
1103.929518,-842.480710,-8577.985416,9803.411904
1103.929821,7122.791461,-2374.263820,9267.287815
1103.930124,11488.373325,1991.318043,10109.768526
1103.930426,11335.195014,5897.364973,10569.303459
1103.930729,8041.861327,8501.396260,9420.466126
1103.931032,1225.426488,7888.683016,9114.109504
1103.931335,-7658.915550,1838.139732,10109.768526
1103.931602,-15088.063633,-7965.272172,13403.102212
1103.931902,-15394.420255,-13249.923901,14934.885322
1103.932202,-9343.876971,-12790.388968,11641.551636
1103.932502,-995.659021,-7812.093861,9573.644437
1103.932802,7429.148083,-1914.728887,8577.985416
1103.933102,12484.032346,4978.295107,9573.644437
1103.933402,13096.745590,8807.752882,9956.590215
1103.933702,8807.752882,11028.838392,8960.931193
1103.934048,1991.318043,8807.752882,9114.109504
1103.934343,-4748.527641,1072.248177,10033.179370
1103.934638,-11564.962480,-8271.628794,12790.388968
1103.934933,-10799.070925,-13403.102212,13556.280523
1103.935229,-5897.364973,-11718.140791,11335.195014
1103.935524,2297.674665,-6893.023995,9573.644437
1103.935819,7888.683016,-1148.837332,9267.287815
1103.936114,9114.109504,3829.457775,10569.303459
1103.936414,8195.039638,8807.752882,10722.481770
1103.936714,4212.403552,10722.481770,9573.644437
1103.937014,-2450.852976,6816.434839,9420.466126
1103.937314,-11258.605858,-382.945777,12254.264880
1103.937614,-15088.063633,-7046.202306,14168.993767
1103.937914,-11947.908258,-10492.714303,12407.443191
1103.938214,-4135.814397,-9190.698660,10109.768526
1103.938514,2986.977064,-4825.116796,9114.109504
1103.938821,8807.752882,459.534933,9420.466126
1103.939122,12177.675724,6356.899906,10109.768526
1103.939422,13403.102212,9956.590215,8654.574571
1103.939722,7429.148083,10416.125148,9114.109504
1103.940022,-689.302399,4978.295107,10033.179370
1103.940323,-9343.876971,-2833.798753,11641.551636
1103.940623,-13173.334746,-9726.822748,13709.458834
1103.940923,-10799.070925,-12637.210657,12254.264880
1103.941198,-5131.473418,-10339.535992,11028.838392
1103.941499,2833.798753,-3446.511997,10033.179370
1103.941800,9420.466126,3216.744531,9114.109504
1103.942102,11641.551636,9267.287815,9267.287815
1103.942403,9114.109504,11488.373325,9573.644437
1103.942704,2374.263820,10109.768526,9726.822748
1103.943006,-4135.814397,5131.473418,10416.125148
1103.943307,-10799.070925,-2680.620442,12407.443191
1103.943590,-12713.799813,-10799.070925,13709.458834
1103.943896,-9726.822748,-13096.745590,11641.551636
1103.944203,-1455.193954,-10186.357681,9573.644437
1103.944509,5820.775818,-3906.046930,7965.272172
1103.944815,10569.303459,1378.604799,9267.287815
1103.945121,11488.373325,6356.899906,9956.590215
1103.945427,10262.946837,9803.411904,9267.287815
1103.945733,4518.760174,9803.411904,8501.396260
1103.946015,-3676.279464,4135.814397,9803.411904
1103.946312,-12407.443191,-4825.116796,12866.978124
1103.946608,-13939.226301,-10339.535992,13249.923901
1103.946904,-8884.342038,-11105.427547,11028.838392
1103.947200,-2910.387909,-8271.628794,8807.752882
1103.947496,2144.496354,-4671.938485,8807.752882
1103.947792,7429.148083,153.178311,10569.303459
1103.948089,10262.946837,5591.008351,10569.303459
1103.948400,9420.466126,8348.217949,9497.055282
1103.948700,2833.798753,7735.504705,8960.931193
1103.948999,-3829.457775,2604.031287,9803.411904
1103.949298,-10339.535992,-6739.845684,12713.799813
1103.949597,-11871.319102,-12790.388968,13403.102212
1103.949896,-7965.272172,-13403.102212,11871.319102
1103.950195,-995.659021,-8271.628794,9573.644437
1103.950494,5514.419196,-1455.193954,8960.931193
1103.950808,10875.660081,4825.116796,9803.411904
1103.951106,11641.551636,8960.931193,10722.481770
1103.951404,8654.574571,10569.303459,9956.590215
1103.951702,2297.674665,10569.303459,9803.411904
1103.952000,-6050.543284,3982.636086,10339.535992
1103.952297,-11411.784169,-4518.760174,12713.799813
1103.952595,-11411.784169,-10186.357681,13173.334746
1103.952893,-7505.737239,-11105.427547,11182.016703
1103.953200,-1148.837332,-8577.985416,9267.287815
1103.953500,3906.046930,-3906.046930,9420.466126
1103.953800,8501.396260,2297.674665,10033.179370
1103.954100,7122.791461,4748.527641,11182.016703
1103.954399,4365.581863,7122.791461,10339.535992
1103.954699,-76.589155,7122.791461,9880.001059
1103.954999,-6510.078217,1991.318043,10109.768526
1103.955299,-12101.086569,-4901.705952,12560.621502
1103.955595,-10645.892614,-8118.450483,12713.799813
1103.955895,-4135.814397,-7812.093861,10569.303459
1103.956194,2297.674665,-5667.597507,9114.109504
1103.956494,8041.861327,-382.945777,9573.644437
1103.956793,12177.675724,5284.651729,9803.411904
1103.957093,12790.388968,8807.752882,9267.287815
1103.957393,8348.217949,9650.233593,8654.574571
1103.957692,1531.783110,7275.969772,9650.233593
1103.957987,-6663.256528,306.356622,10569.303459
1103.958287,-12407.443191,-7199.380617,12943.567279
1103.958587,-11411.784169,-10952.249236,13862.637145
1103.958887,-6356.899906,-9037.520349,11028.838392
1103.959188,1225.426488,-4901.705952,8960.931193
1103.959488,6433.489062,306.356622,9573.644437
1103.959788,9114.109504,4595.349330,10722.481770
1103.960088,8960.931193,8348.217949,10875.660081
1103.960423,6280.310751,9650.233593,9267.287815
1103.960717,-76.589155,6050.543284,8807.752882
1103.961011,-8884.342038,-2067.907198,11947.908258
1103.961305,-14475.350389,-10186.357681,13862.637145
1103.961599,-11871.319102,-12790.388968,12713.799813
1103.961893,-5591.008351,-10952.249236,10569.303459
1103.962187,1531.783110,-5514.419196,8884.342038
1103.962482,8041.861327,765.891555,9726.822748
1103.962781,12484.032346,6510.078217,10109.768526
1103.963081,13249.923901,10416.125148,9420.466126
1103.963381,8654.574571,10416.125148,8041.861327
1103.963681,-689.302399,5744.186662,8960.931193
1103.963981,-9343.876971,-2221.085509,12177.675724
1103.964281,-12101.086569,-9650.233593,13709.458834
1103.964581,-9190.698660,-12177.675724,11488.373325
1103.964882,-3829.457775,-10339.535992,10109.768526
1103.965188,2144.496354,-5667.597507,9650.233593
1103.965487,8195.039638,-0.000000,9190.698660
1103.965785,10416.125148,5284.651729,9956.590215
1103.966083,8501.396260,7429.148083,10416.125148
1103.966381,1991.318043,6816.434839,10416.125148
1103.966679,-3676.279464,3523.101153,9803.411904
1103.966977,-10492.714303,-3446.511997,12101.086569
1103.967276,-12254.264880,-10339.535992,13709.458834
1103.967592,-9726.822748,-11718.140791,12254.264880
1103.967893,-2757.209598,-8731.163727,9650.233593
1103.968194,1991.318043,-4365.581863,10109.768526
1103.968495,7888.683016,1531.783110,9956.590215
1103.968796,12177.675724,7888.683016,9573.644437
1103.969097,11488.373325,11028.838392,9267.287815
1103.969398,5054.884263,9267.287815,9573.644437
1103.969699,-2604.031287,4748.527641,10722.481770
1103.970013,-9190.698660,-2986.977064,12484.032346
1103.970307,-12866.978124,-10186.357681,13403.102212
1103.970601,-9573.644437,-10952.249236,11794.729947
1103.970895,-4135.814397,-8577.985416,9803.411904
1103.971189,2680.620442,-3293.333686,9650.233593
1103.971483,8654.574571,1684.961421,9267.287815
1103.971777,11641.551636,7429.148083,10416.125148
1103.972071,11028.838392,10262.946837,9267.287815
1103.972384,5208.062574,8807.752882,8960.931193
1103.972683,-2067.907198,3829.457775,10033.179370
1103.972981,-10492.714303,-3599.690308,12330.854035
1103.973280,-13786.047990,-9037.520349,13862.637145
1103.973578,-10339.535992,-9726.822748,10952.249236
1103.973877,-3063.566220,-5973.954129,8807.752882
1103.974175,2833.798753,-1608.372265,8348.217949
1103.974474,8501.396260,3829.457775,9267.287815
1103.974773,11794.729947,6356.899906,9650.233593
1103.975072,8348.217949,6203.721595,10262.946837
1103.975372,2297.674665,3982.636086,11028.838392
1103.975671,-3829.457775,459.534933,10109.768526
1103.975970,-8271.628794,-5667.597507,11028.838392
1103.976269,-10033.179370,-10799.070925,11335.195014
1103.976569,-7122.791461,-9726.822748,10109.768526
1103.976868,-2910.387909,-6280.310751,9420.466126
1103.977175,1838.139732,-3752.868619,10262.946837
1103.977478,6127.132440,-0.000000,11641.551636
1103.977782,9420.466126,5437.830040,11028.838392
1103.978085,9956.590215,8654.574571,8577.985416
1103.978388,4518.760174,7582.326394,8960.931193
1103.978692,-2067.907198,1378.604799,10186.357681
1103.978995,-9343.876971,-5973.954129,13249.923901
1103.979299,-10952.249236,-9037.520349,13096.745590
1103.979619,-7658.915550,-8884.342038,10875.660081
1103.979916,-2450.852976,-6433.489062,9803.411904
1103.980213,3140.155375,-1302.015643,10416.125148
1103.980510,8807.752882,3676.279464,10722.481770
1103.980807,10569.303459,7582.326394,10416.125148
1103.981104,8041.861327,8960.931193,10262.946837
1103.981401,1378.604799,6356.899906,9573.644437
1103.981698,-5437.830040,765.891555,10569.303459
1103.982017,-11258.605858,-6280.310751,12790.388968
1103.982311,-11564.962480,-10492.714303,12713.799813
1103.982604,-7658.915550,-9880.001059,10875.660081
1103.982898,-229.767466,-6433.489062,8960.931193
1103.983191,5667.597507,-1302.015643,9267.287815
1103.983485,9956.590215,3523.101153,10109.768526
1103.983778,10722.481770,7582.326394,10569.303459
1103.984072,7275.969772,9420.466126,9267.287815
1103.984389,765.891555,7122.791461,8654.574571
1103.984688,-7965.272172,153.178311,11028.838392
1103.984986,-13020.156435,-6433.489062,13096.745590
1103.985285,-12407.443191,-9650.233593,13096.745590
1103.985584,-5744.186662,-8577.985416,10109.768526
1103.985882,612.713244,-5667.597507,8960.931193
1103.986181,6893.023995,306.356622,9956.590215
1103.986479,12637.210657,6356.899906,9420.466126
1103.986779,13096.745590,9803.411904,8960.931193
1103.987077,8654.574571,10262.946837,9573.644437
1103.987374,1531.783110,6356.899906,10109.768526
1103.987671,-6510.078217,-76.589155,11641.551636
1103.987969,-11258.605858,-7965.272172,12713.799813
1103.988266,-11718.140791,-11411.784169,11718.140791
1103.988564,-6663.256528,-9726.822748,11182.016703
1103.988861,-0.000000,-4901.705952,9803.411904
1103.989168,5667.597507,-229.767466,9573.644437
1103.989470,9420.466126,5437.830040,11028.838392
1103.989772,9803.411904,8807.752882,9956.590215
1103.990073,6586.667373,8501.396260,8884.342038
1103.990375,459.534933,4825.116796,9267.287815
1103.990677,-8731.163727,-3446.511997,11794.729947
1103.990979,-13326.513057,-10186.357681,13556.280523
1103.991280,-11718.140791,-12484.032346,12101.086569
1103.991565,-5437.830040,-9497.055282,10186.357681
1103.991865,1991.318043,-4825.116796,8348.217949
1103.992165,8195.039638,459.534933,8577.985416
1103.992465,12024.497413,4442.171019,10109.768526
1103.992765,11028.838392,7275.969772,9956.590215
1103.993065,6586.667373,6969.613150,9114.109504
1103.993365,612.713244,3676.279464,8960.931193
1103.993665,-7505.737239,-4212.403552,11028.838392
1103.993981,-12101.086569,-11258.605858,13403.102212
1103.994280,-11105.427547,-12484.032346,12101.086569
1103.994578,-5897.364973,-9650.233593,10186.357681
1103.994876,306.356622,-5054.884263,9956.590215
1103.995175,7046.202306,1684.961421,9956.590215
1103.995473,10722.481770,7275.969772,10569.303459
1103.995772,11028.838392,10416.125148,9343.876971
1103.996070,5361.240885,9956.590215,8654.574571
1103.996387,-2067.907198,3829.457775,10109.768526
1103.996685,-11871.319102,-5054.884263,13709.458834
1103.996983,-14781.707011,-12790.388968,14475.350389
1103.997281,-10186.357681,-12024.497413,11794.729947
1103.997578,-2450.852976,-9037.520349,8654.574571
1103.997876,3599.690308,-3599.690308,9114.109504
1103.998174,10262.946837,2450.852976,9803.411904
1103.998472,11871.319102,8960.931193,10722.481770
1103.998772,11794.729947,12254.264880,9420.466126
1103.999072,4365.581863,11028.838392,9267.287815
1103.999372,-4825.116796,4288.992708,10262.946837
1103.999672,-11871.319102,-4059.225241,12637.210657
1103.999972,-14092.404612,-9190.698660,13249.923901
1104.000272,-9497.055282,-9650.233593,11028.838392
1104.000572,-2450.852976,-7658.915550,9956.590215
1104.000872,3446.511997,-2986.977064,9420.466126
1104.001202,10109.768526,3982.636086,10569.303459
1104.001495,11794.729947,9267.287815,9726.822748
1104.001788,10722.481770,11488.373325,8118.450483
1104.002081,4518.760174,8960.931193,8884.342038
1104.002374,-4288.992708,1991.318043,10569.303459
1104.002667,-11411.784169,-6280.310751,13403.102212
1104.002960,-11871.319102,-10645.892614,12637.210657
1104.003253,-6969.613150,-11411.784169,10339.535992
1104.003560,-1914.728887,-8271.628794,9803.411904
1104.003864,4671.938485,-2221.085509,9803.411904
1104.004168,10722.481770,4748.527641,8960.931193
1104.004472,13096.745590,9573.644437,9267.287815
1104.004776,9803.411904,9803.411904,9267.287815
1104.005080,2833.798753,8041.861327,9420.466126
1104.005384,-4442.171019,1684.961421,9803.411904
1104.005688,-11411.784169,-7046.202306,11794.729947
1104.005971,-14781.707011,-13556.280523,13556.280523
1104.006270,-12254.264880,-14322.172078,13249.923901
1104.006569,-3676.279464,-9650.233593,10262.946837
1104.006868,4671.938485,-2833.798753,8577.985416
1104.007167,10416.125148,2604.031287,9650.233593
1104.007466,10875.660081,7429.148083,10186.357681
1104.007764,9420.466126,9650.233593,9267.287815
1104.008063,3599.690308,6663.256528,8807.752882
1104.008358,-4978.295107,-842.480710,10416.125148
1104.008659,-13326.513057,-10339.535992,14475.350389
1104.008959,-12560.621502,-13403.102212,13709.458834
1104.009259,-5437.830040,-10645.892614,10109.768526
1104.009560,2374.263820,-5514.419196,8577.985416
1104.009860,8348.217949,153.178311,9267.287815
1104.010160,10722.481770,5437.830040,10722.481770
1104.010461,12484.032346,10416.125148,9803.411904
1104.010773,7046.202306,10722.481770,8577.985416
1104.011070,-2604.031287,5897.364973,9420.466126
1104.011367,-11947.908258,-3140.155375,13096.745590
1104.011665,-17155.970832,-10645.892614,14322.172078
1104.011962,-14628.528700,-13249.923901,13403.102212
1104.012260,-7122.791461,-10952.249236,10799.070925
1104.012557,2833.798753,-5514.419196,8501.396260
1104.012854,10722.481770,919.069866,8271.628794
1104.013164,14015.815456,7122.791461,9573.644437
1104.013463,12790.388968,10875.660081,9573.644437
1104.013762,8501.396260,10875.660081,9190.698660
1104.014062,612.713244,6050.543284,9573.644437
1104.014361,-9190.698660,-2986.977064,12101.086569
1104.014661,-13632.869679,-9726.822748,14092.404612
1104.014960,-11105.427547,-11105.427547,12790.388968
1104.015259,-4135.814397,-8731.163727,10262.946837
1104.015566,1531.783110,-2680.620442,10109.768526
1104.015866,7275.969772,4748.527641,9650.233593
1104.016166,10875.660081,11028.838392,10109.768526
1104.016465,12177.675724,14628.528700,8348.217949
1104.016765,6586.667373,13479.691368,8654.574571
1104.017065,-2450.852976,5591.008351,10722.481770
1104.017365,-11105.427547,-4212.403552,12943.567279
1104.017664,-15394.420255,-12330.854035,14781.707011
1104.017961,-10799.070925,-14015.815456,12254.264880
1104.018258,-3216.744531,-10952.249236,9037.520349
1104.018556,4365.581863,-5208.062574,8195.039638
1104.018853,8807.752882,-0.000000,9497.055282
1104.019150,11641.551636,6050.543284,10262.946837
1104.019448,11488.373325,9650.233593,8807.752882
1104.019745,5361.240885,8041.861327,9267.287815
1104.020043,-2757.209598,2757.209598,9650.233593
1104.020357,-11564.962480,-5514.419196,12790.388968
1104.020656,-13632.869679,-11871.319102,13709.458834
1104.020954,-9190.698660,-10799.070925,10722.481770
1104.021253,-1761.550576,-6893.023995,9267.287815
1104.021552,3293.333686,-2067.907198,8424.807105
1104.021850,9267.287815,3829.457775,9650.233593
1104.022149,10875.660081,7122.791461,10722.481770
1104.022448,9803.411904,8807.752882,9803.411904
1104.022783,3599.690308,7429.148083,8807.752882
1104.023076,-3676.279464,2450.852976,9420.466126
1104.023369,-10952.249236,-7046.202306,12407.443191
1104.023663,-14245.582923,-13556.280523,14628.528700
1104.023956,-9880.001059,-12943.567279,12713.799813
1104.024249,-2604.031287,-7812.093861,9650.233593
1104.024543,4365.581863,-1302.015643,9114.109504
1104.024836,8960.931193,4442.171019,10109.768526
1104.025159,10262.946837,8501.396260,9956.590215
1104.025455,7122.791461,9573.644437,10262.946837
1104.025752,1378.604799,7582.326394,10416.125148
1104.026049,-5744.186662,1072.248177,11794.729947
1104.026345,-10492.714303,-4901.705952,13556.280523
1104.026642,-8424.807105,-8424.807105,11182.016703
1104.026939,-4825.116796,-8884.342038,9726.822748
1104.027236,-689.302399,-5820.775818,9497.055282
1104.027576,4212.403552,-842.480710,10262.946837
1104.027873,10109.768526,5897.364973,10033.179370
1104.028170,12177.675724,10262.946837,9420.466126
1104.028466,8195.039638,10722.481770,8960.931193
1104.028763,153.178311,7735.504705,9726.822748
1104.029060,-7352.558928,612.713244,11028.838392
1104.029357,-13786.047990,-7965.272172,14015.815456
1104.029653,-14628.528700,-12177.675724,13862.637145
1104.029969,-9497.055282,-10492.714303,10722.481770
1104.030267,153.178311,-6127.132440,8654.574571
1104.030564,6280.310751,-1455.193954,8195.039638
1104.030861,10109.768526,3982.636086,10875.660081
1104.031158,11182.016703,9573.644437,9956.590215
1104.031455,10722.481770,11488.373325,7582.326394
1104.031752,4059.225241,7582.326394,8271.628794
1104.032049,-5744.186662,-842.480710,10722.481770
1104.032368,-13020.156435,-10186.357681,14015.815456
1104.032662,-11718.140791,-12637.210657,13786.047990
1104.032957,-4288.992708,-10033.179370,9803.411904
1104.033252,1838.139732,-5054.884263,8348.217949
1104.033547,6127.132440,765.891555,8960.931193
1104.033842,10569.303459,6203.721595,10339.535992
1104.034137,10416.125148,9956.590215,10262.946837
1104.034432,6280.310751,10416.125148,9573.644437
1104.034781,-536.124088,6356.899906,9420.466126
1104.035075,-7658.915550,-1302.015643,11641.551636
1104.035369,-13326.513057,-10339.535992,13096.745590
1104.035663,-12560.621502,-14322.172078,12943.567279
1104.035958,-7658.915550,-11105.427547,10952.249236
1104.036252,-76.589155,-6586.667373,8807.752882
1104.036546,5054.884263,-1761.550576,10109.768526
1104.036840,9420.466126,4288.992708,10033.179370
1104.037140,11182.016703,8807.752882,9114.109504
1104.037440,8807.752882,9573.644437,7888.683016
1104.037741,1531.783110,4825.116796,8960.931193
1104.038042,-7199.380617,-4518.760174,11947.908258
1104.038343,-12407.443191,-11718.140791,14168.993767
1104.038643,-11871.319102,-14475.350389,13403.102212
1104.038944,-5591.008351,-11411.784169,9956.590215
1104.039245,765.891555,-5361.240885,9267.287815
1104.039552,8654.574571,1378.604799,8960.931193
1104.039849,12790.388968,7275.969772,9956.590215
1104.040146,12637.210657,11028.838392,8960.931193
1104.040443,8041.861327,11488.373325,8501.396260
1104.040740,-229.767466,5744.186662,9573.644437
1104.041036,-9343.876971,-2833.798753,12943.567279
1104.041333,-15547.598566,-10492.714303,14628.528700
1104.041630,-13173.334746,-10799.070925,11488.373325
1104.041944,-5897.364973,-7352.558928,9803.411904
1104.042245,2144.496354,-2221.085509,8884.342038
1104.042545,6586.667373,2297.674665,9956.590215
1104.042845,8654.574571,7735.504705,11641.551636
1104.043146,10109.768526,10722.481770,9956.590215
1104.043446,6280.310751,9956.590215,8960.931193
1104.043746,-1914.728887,4748.527641,9650.233593
1104.044047,-11947.908258,-4518.760174,13249.923901
1104.044365,-14322.172078,-10186.357681,14628.528700
1104.044661,-8424.807105,-9880.001059,11641.551636
1104.044957,-382.945777,-6127.132440,8731.163727
1104.045253,5208.062574,-1455.193954,8654.574571
1104.045550,10722.481770,4595.349330,9573.644437
1104.045846,13862.637145,9956.590215,9497.055282
1104.046142,12790.388968,11947.908258,8960.931193
1104.046438,5361.240885,8960.931193,9573.644437
1104.046784,-2374.263820,2910.387909,10186.357681
1104.047075,-10492.714303,-4901.705952,12407.443191
1104.047366,-13939.226301,-10339.535992,12943.567279
1104.047657,-12407.443191,-11564.962480,11641.551636
1104.047948,-7965.272172,-9497.055282,10875.660081
1104.048239,-1148.837332,-3906.046930,11028.838392
1104.048530,6739.845684,3216.744531,9956.590215
1104.048821,10722.481770,8041.861327,8960.931193
1104.049121,10569.303459,9420.466126,7429.148083
1104.049421,5054.884263,6203.721595,9114.109504
1104.049721,-2374.263820,-995.659021,10186.357681
1104.050021,-9726.822748,-9343.876971,13096.745590
1104.050321,-11947.908258,-14475.350389,13862.637145
1104.050621,-7505.737239,-13096.745590,10262.946837
1104.050921,-382.945777,-7199.380617,8195.039638
1104.051221,5361.240885,-1761.550576,8041.861327
1104.051552,9956.590215,3982.636086,10033.179370
1104.051849,11335.195014,8348.217949,10416.125148
1104.052146,9420.466126,9956.590215,8731.163727
1104.052442,1684.961421,7429.148083,9650.233593
1104.052739,-6510.078217,306.356622,11028.838392
1104.053036,-12866.978124,-7352.558928,12943.567279
1104.053333,-14628.528700,-11871.319102,14322.172078
1104.053630,-10339.535992,-10492.714303,12101.086569
1104.053938,-2221.085509,-5973.954129,9420.466126
1104.054238,4901.705952,-842.480710,8960.931193
1104.054538,9956.590215,2604.031287,9956.590215
1104.054838,10875.660081,6816.434839,10492.714303
1104.055138,9497.055282,8041.861327,9573.644437
1104.055437,4059.225241,4978.295107,8654.574571
1104.055737,-4595.349330,-2680.620442,10722.481770
1104.056037,-10952.249236,-9037.520349,13862.637145
1104.056320,-11411.784169,-10952.249236,12790.388968
1104.056625,-6663.256528,-7965.272172,10416.125148
1104.056930,-1302.015643,-4212.403552,9343.876971
1104.057235,4059.225241,1991.318043,10109.768526
1104.057539,9650.233593,8348.217949,10262.946837
1104.057844,12330.854035,13632.869679,8654.574571
1104.058149,9650.233593,13173.334746,8118.450483
1104.058454,459.534933,6816.434839,9650.233593
1104.058719,-7505.737239,-842.480710,12560.621502
1104.059025,-14245.582923,-9497.055282,14475.350389
1104.059330,-14475.350389,-14015.815456,14015.815456
1104.059635,-8884.342038,-12177.675724,10875.660081
1104.059940,765.891555,-7046.202306,7965.272172
1104.060245,7888.683016,-842.480710,8654.574571
1104.060551,12177.675724,4442.171019,9650.233593
1104.060856,14705.117856,9650.233593,8807.752882
1104.061146,11488.373325,10875.660081,7046.202306
1104.061441,3293.333686,4595.349330,8654.574571
1104.061737,-8577.985416,-3906.046930,13249.923901
1104.062033,-13939.226301,-9497.055282,15394.420255
1104.062329,-11258.605858,-10033.179370,12560.621502
1104.062625,-5437.830040,-6586.667373,9573.644437
1104.062920,-536.124088,-2680.620442,9420.466126
1104.063216,4901.705952,2757.209598,9956.590215
1104.063525,9497.055282,7888.683016,10875.660081
1104.063824,10109.768526,9803.411904,9650.233593
1104.064122,5361.240885,8654.574571,9573.644437
1104.064421,-536.124088,4442.171019,10339.535992
1104.064720,-6203.721595,-3599.690308,11411.784169
1104.065018,-9880.001059,-10799.070925,12560.621502
1104.065317,-10339.535992,-13556.280523,12024.497413
1104.065615,-4978.295107,-9726.822748,9803.411904
1104.065922,2527.442131,-4059.225241,7888.683016
1104.066222,5820.775818,153.178311,9650.233593
1104.066522,8348.217949,3982.636086,11335.195014
1104.066821,8960.931193,7888.683016,9650.233593
1104.067121,6127.132440,8041.861327,8195.039638
1104.067421,-382.945777,1378.604799,9114.109504
1104.067721,-10339.535992,-6893.023995,13403.102212
1104.068020,-12407.443191,-12024.497413,13786.047990
1104.068317,-8731.163727,-10952.249236,11182.016703
1104.068616,-2450.852976,-6739.845684,9650.233593
1104.068916,2374.263820,-1302.015643,9267.287815
1104.069216,8041.861327,4442.171019,10416.125148
1104.069515,10569.303459,8807.752882,10109.768526
1104.069815,8960.931193,10416.125148,9343.876971
1104.070114,3293.333686,8960.931193,9420.466126
1104.070414,-2604.031287,2910.387909,10645.892614
1104.070709,-7812.093861,-5054.884263,12943.567279
1104.071009,-10799.070925,-10952.249236,13939.226301
1104.071309,-7352.558928,-9726.822748,11182.016703
1104.071609,-1148.837332,-5820.775818,8501.396260
1104.071909,3140.155375,-2067.907198,8807.752882
1104.072209,5667.597507,2757.209598,10722.481770
1104.072510,7429.148083,7275.969772,10875.660081
1104.072810,7275.969772,9420.466126,9037.520349
1104.073121,2986.977064,7275.969772,8577.985416
1104.073419,-5437.830040,153.178311,11794.729947
1104.073716,-11718.140791,-6433.489062,14475.350389
1104.074014,-10952.249236,-9343.876971,12943.567279
1104.074311,-6356.899906,-8271.628794,10569.303459
1104.074608,-0.000000,-4671.938485,8041.861327
1104.074906,5054.884263,153.178311,8501.396260
1104.075203,9956.590215,5437.830040,9650.233593
1104.075513,11871.319102,8960.931193,9803.411904
1104.075812,10569.303459,10569.303459,8807.752882
1104.076111,3752.868619,8041.861327,9343.876971
1104.076411,-4288.992708,459.534933,11182.016703
1104.076710,-11564.962480,-6893.023995,13403.102212
1104.077010,-13020.156435,-10952.249236,13249.923901
1104.077309,-8731.163727,-10033.179370,10416.125148
1104.077608,-2450.852976,-6127.132440,9420.466126
1104.077915,4212.403552,-995.659021,8960.931193
1104.078213,10416.125148,4288.992708,9420.466126
1104.078512,11028.838392,8041.861327,9803.411904
1104.078810,9650.233593,9114.109504,8654.574571
1104.079108,1991.318043,5897.364973,9420.466126
1104.079406,-6510.078217,-2374.263820,10722.481770
1104.079704,-14475.350389,-10492.714303,14781.707011
1104.080002,-15700.776877,-14858.296167,14168.993767
1104.080319,-7965.272172,-12024.497413,10416.125148
1104.080616,612.713244,-6586.667373,8195.039638
1104.080914,7122.791461,-842.480710,8501.396260
1104.081212,11488.373325,4442.171019,9956.590215
1104.081510,13249.923901,9956.590215,9650.233593
1104.081807,11182.016703,11794.729947,7965.272172
1104.082105,3599.690308,7275.969772,8807.752882
1104.082403,-7505.737239,-1914.728887,12101.086569
1104.082717,-14628.528700,-10952.249236,15088.063633
1104.083016,-11947.908258,-13096.745590,13249.923901
1104.083314,-6663.256528,-10492.714303,10109.768526
1104.083613,919.069866,-5820.775818,8195.039638
1104.083912,4748.527641,-842.480710,9956.590215
1104.084211,8654.574571,4288.992708,11794.729947
1104.084509,8807.752882,8501.396260,10569.303459
1104.084808,5514.419196,9114.109504,9267.287815
1104.085096,-536.124088,5591.008351,9420.466126
1104.085399,-9037.520349,-2986.977064,12560.621502
1104.085701,-12407.443191,-9880.001059,14398.761234
1104.086004,-9343.876971,-11105.427547,12254.264880
1104.086306,-2374.263820,-8424.807105,8884.342038
1104.086608,3906.046930,-3293.333686,8654.574571
1104.086911,8960.931193,1991.318043,8884.342038
1104.087213,12024.497413,7735.504705,9650.233593
1104.087513,11335.195014,11335.195014,9573.644437
1104.087812,6893.023995,10722.481770,8960.931193
1104.088111,-1148.837332,5897.364973,9803.411904
1104.088411,-9880.001059,-4059.225241,12790.388968
1104.088710,-14934.885322,-10799.070925,14781.707011
1104.089009,-12407.443191,-12024.497413,12790.388968
1104.089308,-5437.830040,-8271.628794,9573.644437
1104.089608,1225.426488,-2986.977064,8654.574571
1104.089915,5820.775818,2910.387909,9880.001059
1104.090214,8654.574571,7735.504705,10875.660081
1104.090513,9420.466126,10875.660081,9420.466126
1104.090812,6280.310751,9956.590215,8118.450483
1104.091112,-842.480710,3676.279464,9267.287815
1104.091411,-8884.342038,-5667.597507,13403.102212
1104.091710,-11258.605858,-11564.962480,15317.831100
1104.092009,-5897.364973,-11718.140791,11794.729947
1104.092330,1684.961421,-7658.915550,6969.613150
1104.092627,6739.845684,-1914.728887,6663.256528
1104.092924,8960.931193,3216.744531,9956.590215
1104.093221,9267.287815,6356.899906,10722.481770
1104.093518,8654.574571,9420.466126,9803.411904
1104.093815,3599.690308,8195.039638,8654.574571
1104.094112,-5284.651729,1838.139732,10722.481770
1104.094409,-13632.869679,-6586.667373,14015.815456
1104.094728,-15088.063633,-11411.784169,14322.172078
1104.095026,-10645.892614,-11564.962480,11794.729947
1104.095324,-3523.101153,-8731.163727,8654.574571
1104.095622,2680.620442,-3140.155375,8195.039638
1104.095921,8807.752882,1991.318043,9650.233593
1104.096219,10722.481770,5744.186662,10109.768526
1104.096517,10262.946837,8041.861327,9420.466126
1104.096815,4748.527641,6510.078217,8807.752882
1104.097128,-1914.728887,-76.589155,10109.768526
1104.097424,-8884.342038,-8731.163727,12943.567279
1104.097720,-11411.784169,-13556.280523,14015.815456
1104.098016,-7199.380617,-11105.427547,10875.660081
1104.098312,-0.000000,-5667.597507,7735.504705
1104.098608,6127.132440,459.534933,8348.217949
1104.098904,8807.752882,4748.527641,10416.125148
1104.099200,8501.396260,9956.590215,10875.660081
1104.099500,7735.504705,12407.443191,9573.644437
1104.099801,2680.620442,9956.590215,9114.109504
1104.100102,-7505.737239,1225.426488,12560.621502
1104.100402,-15241.241944,-7658.915550,15853.955188
1104.100703,-16849.614210,-12484.032346,14781.707011
1104.101004,-9343.876971,-11105.427547,11028.838392
1104.101304,-382.945777,-6739.845684,8041.861327
1104.101605,6586.667373,-1608.372265,8118.450483
1104.101912,12484.032346,4135.814397,9650.233593
1104.102208,14551.939545,8654.574571,9420.466126
1104.102505,12790.388968,10875.660081,7735.504705
1104.102801,5054.884263,7429.148083,8807.752882
1104.103097,-5897.364973,-1148.837332,11488.373325
1104.103393,-13632.869679,-8884.342038,15241.241944
1104.103690,-13173.334746,-11411.784169,14015.815456
1104.103986,-6050.543284,-8884.342038,9803.411904
1104.104294,1378.604799,-3293.333686,8041.861327
1104.104593,5361.240885,1531.783110,9037.520349
1104.104892,7888.683016,6663.256528,11182.016703
1104.105191,9420.466126,11182.016703,11182.016703
1104.105490,7888.683016,12407.443191,8424.807105
1104.105789,-0.000000,7735.504705,9267.287815
1104.106088,-9037.520349,-689.302399,12101.086569
1104.106387,-13020.156435,-8577.985416,14015.815456
1104.106703,-10799.070925,-12177.675724,12943.567279
1104.107002,-5284.651729,-10799.070925,9956.590215
1104.107300,1684.961421,-5973.954129,8501.396260
1104.107598,8501.396260,-76.589155,8501.396260
1104.107897,12024.497413,3676.279464,9267.287815
1104.108195,10416.125148,7275.969772,9956.590215
1104.108494,7429.148083,7735.504705,8501.396260
1104.108792,153.178311,4288.992708,9267.287815
1104.109109,-6203.721595,-3599.690308,11488.373325
1104.109407,-12713.799813,-10799.070925,13862.637145
1104.109704,-12713.799813,-12790.388968,13403.102212
1104.110001,-5437.830040,-9880.001059,9267.287815
1104.110299,919.069866,-4365.581863,8654.574571
1104.110596,5361.240885,765.891555,9956.590215
1104.110893,7582.326394,5897.364973,11258.605858
1104.111190,9114.109504,10569.303459,10109.768526
1104.111490,6739.845684,10722.481770,8424.807105
1104.111789,459.534933,5131.473418,9573.644437
1104.112089,-8577.985416,-3906.046930,12790.388968
1104.112388,-12254.264880,-10645.892614,14475.350389
1104.112687,-8884.342038,-12484.032346,12254.264880
1104.112986,-2757.209598,-9650.233593,8960.931193
1104.113285,2986.977064,-4671.938485,8118.450483
1104.113584,6127.132440,306.356622,9956.590215
1104.113898,8654.574571,4825.116796,11335.195014
1104.114197,10262.946837,9267.287815,8960.931193
1104.114496,5361.240885,9267.287815,8348.217949
1104.114794,-2757.209598,2604.031287,10109.768526
1104.115093,-10186.357681,-5361.240885,14475.350389
1104.115392,-11871.319102,-9497.055282,14781.707011
1104.115691,-8118.450483,-9497.055282,11488.373325
1104.115989,-2067.907198,-5973.954129,9037.520349
1104.116296,3446.511997,-382.945777,8807.752882
1104.116593,9497.055282,4748.527641,9343.876971
1104.116891,10569.303459,8654.574571,9803.411904
1104.117188,8501.396260,9803.411904,10109.768526
1104.117485,4059.225241,8348.217949,9497.055282
1104.117783,-1608.372265,2757.209598,9803.411904
1104.118080,-8424.807105,-5208.062574,12407.443191
1104.118377,-13020.156435,-10492.714303,14015.815456
1104.118707,-10645.892614,-11411.784169,11641.551636
1104.119003,-3829.457775,-7199.380617,9573.644437
1104.119299,4518.760174,-1302.015643,8501.396260
1104.119596,8195.039638,3063.566220,9803.411904
1104.119892,10416.125148,7888.683016,9650.233593
1104.120188,11641.551636,11488.373325,7888.683016
1104.120485,7582.326394,9573.644437,8501.396260
1104.120781,-2374.263820,1838.139732,10722.481770
1104.121076,-12254.264880,-7199.380617,14322.172078
1104.121377,-15241.241944,-11871.319102,14934.885322
1104.121678,-10033.179370,-12024.497413,11335.195014
1104.121978,-2604.031287,-8118.450483,8960.931193
1104.122279,3906.046930,-1761.550576,8424.807105
1104.122580,10109.768526,3982.636086,8654.574571
1104.122881,11182.016703,8654.574571,10416.125148
1104.123182,10109.768526,9956.590215,9114.109504
1104.123494,4748.527641,8501.396260,8501.396260
1104.123791,-3982.636086,459.534933,10569.303459
1104.124089,-12407.443191,-8271.628794,14092.404612
1104.124386,-13939.226301,-13556.280523,14015.815456
1104.124683,-7658.915550,-12790.388968,10416.125148
1104.124981,-229.767466,-9037.520349,7888.683016
1104.125278,4365.581863,-5054.884263,8960.931193
1104.125576,7275.969772,612.713244,10952.249236
1104.125885,9267.287815,6510.078217,10875.660081
1104.126183,9650.233593,9956.590215,8807.752882
1104.126482,2833.798753,8501.396260,9114.109504
1104.126780,-4288.992708,1838.139732,10569.303459
1104.127079,-10952.249236,-4901.705952,13556.280523
1104.127377,-12254.264880,-10339.535992,14168.993767
1104.127676,-8424.807105,-10492.714303,12101.086569
1104.127974,-689.302399,-6127.132440,9114.109504
1104.128281,5361.240885,-382.945777,9114.109504
1104.128580,9497.055282,3829.457775,9880.001059
1104.128879,10569.303459,8195.039638,10416.125148
1104.129178,8654.574571,10416.125148,9956.590215
1104.129477,2680.620442,7582.326394,9267.287815
1104.129776,-4978.295107,-842.480710,11641.551636
1104.130075,-10492.714303,-7046.202306,13326.513057
1104.130374,-11258.605858,-10492.714303,12713.799813
1104.130670,-7658.915550,-9190.698660,10722.481770
1104.130973,-1455.193954,-4365.581863,9573.644437
1104.131276,3906.046930,306.356622,9803.411904
1104.131579,7275.969772,5437.830040,10569.303459
1104.131882,8654.574571,10109.768526,10109.768526
1104.132185,7582.326394,10416.125148,8960.931193
1104.132487,1531.783110,6663.256528,9650.233593
1104.132790,-5284.651729,-842.480710,12407.443191
1104.133085,-10645.892614,-7965.272172,13862.637145
1104.133385,-9880.001059,-10186.357681,12101.086569
1104.133685,-3369.922842,-8271.628794,9420.466126
1104.133986,1378.604799,-5361.240885,8195.039638
1104.134286,4212.403552,-536.124088,9956.590215
1104.134586,7735.504705,3676.279464,10492.714303
1104.134886,10722.481770,9267.287815,9267.287815
1104.135186,9803.411904,9956.590215,7505.737239
1104.135474,1991.318043,4978.295107,9267.287815
1104.135775,-6816.434839,-1914.728887,12101.086569
1104.136076,-10799.070925,-8424.807105,13403.102212
1104.136377,-9880.001059,-10645.892614,12101.086569
1104.136677,-4748.527641,-9037.520349,9573.644437
1104.136978,1072.248177,-4518.760174,8960.931193
1104.137279,6127.132440,306.356622,8501.396260
1104.137580,8348.217949,4288.992708,10262.946837
1104.137879,6127.132440,6356.899906,10722.481770
1104.138179,2527.442131,6203.721595,10109.768526
1104.138479,-3216.744531,1531.783110,10569.303459
1104.138779,-8577.985416,-4825.116796,12101.086569
1104.139080,-12713.799813,-10492.714303,14168.993767
1104.139380,-8884.342038,-10799.070925,11641.551636
1104.139680,-229.767466,-6893.023995,8960.931193
1104.139980,6280.310751,-2221.085509,7888.683016
1104.140287,9650.233593,1684.961421,9114.109504
1104.140587,9267.287815,5744.186662,10875.660081
1104.140888,9956.590215,8960.931193,9650.233593
1104.141189,6127.132440,8807.752882,9114.109504
1104.141490,-1914.728887,3829.457775,9803.411904
1104.141790,-10492.714303,-4671.938485,12713.799813
1104.142091,-16313.490121,-12024.497413,15241.241944
1104.142392,-11947.908258,-13403.102212,13403.102212
1104.142708,-4288.992708,-8424.807105,9650.233593
1104.143002,2986.977064,-3752.868619,7735.504705
1104.143295,8041.861327,2144.496354,9573.644437
1104.143589,10416.125148,6510.078217,10569.303459
1104.143883,10416.125148,10262.946837,9956.590215
1104.144177,5973.954129,8960.931193,8654.574571
1104.144470,-3523.101153,1378.604799,10875.660081
1104.144764,-10952.249236,-7046.202306,13786.047990
1104.145083,-11258.605858,-10645.892614,13403.102212
1104.145381,-5437.830040,-9726.822748,9803.411904
1104.145679,306.356622,-5973.954129,8501.396260
1104.145977,3446.511997,-1455.193954,9573.644437
1104.146276,7582.326394,4978.295107,10569.303459
1104.146574,9803.411904,9803.411904,10416.125148
1104.146872,8807.752882,11794.729947,9267.287815
1104.147170,2680.620442,9114.109504,9420.466126
1104.147483,-3369.922842,3369.922842,10262.946837
1104.147782,-9497.055282,-4212.403552,12407.443191
1104.148080,-12560.621502,-10645.892614,14015.815456
1104.148379,-10033.179370,-11105.427547,11947.908258
1104.148677,-3216.744531,-7965.272172,9343.876971
1104.148976,2527.442131,-2680.620442,8884.342038
1104.149274,6739.845684,1684.961421,10109.768526
1104.149572,7275.969772,6816.434839,10569.303459
1104.149872,8501.396260,9573.644437,8960.931193
1104.150171,3906.046930,7888.683016,9267.287815
1104.150471,-2450.852976,765.891555,11488.373325
1104.150770,-8731.163727,-5667.597507,12866.978124
1104.151069,-8118.450483,-8577.985416,11335.195014
1104.151368,-3982.636086,-8424.807105,10262.946837
1104.151668,2297.674665,-5514.419196,8041.861327
1104.151967,6586.667373,-842.480710,9420.466126
1104.152274,9650.233593,4135.814397,9267.287815
1104.152571,10569.303459,7275.969772,9267.287815
1104.152868,7275.969772,8501.396260,9650.233593
1104.153165,153.178311,4748.527641,9650.233593
1104.153461,-7965.272172,-1302.015643,11335.195014
1104.153758,-14245.582923,-8424.807105,13862.637145
1104.154055,-15241.241944,-11871.319102,13862.637145
1104.154352,-9726.822748,-11105.427547,11335.195014
1104.154666,-995.659021,-5667.597507,8654.574571
1104.154970,5361.240885,-1608.372265,8501.396260
1104.155273,8960.931193,2757.209598,9956.590215
1104.155577,9650.233593,6816.434839,10109.768526
1104.155881,9420.466126,9114.109504,8195.039638
1104.156184,2297.674665,4978.295107,9037.520349
1104.156488,-7505.737239,-2680.620442,12713.799813
1104.156792,-11947.908258,-8577.985416,14322.172078
1104.157110,-8731.163727,-10186.357681,12254.264880
1104.157404,-1455.193954,-8271.628794,9956.590215
1104.157697,5361.240885,-3906.046930,8501.396260
1104.157991,9114.109504,1838.139732,8501.396260
1104.158285,9803.411904,5897.364973,10186.357681
1104.158578,7275.969772,8960.931193,11028.838392
1104.158872,2527.442131,9803.411904,10569.303459
1104.159165,-3369.922842,6663.256528,10799.070925
1104.159431,-9880.001059,-1148.837332,12637.210657
1104.159734,-14934.885322,-7352.558928,15088.063633
1104.160038,-12101.086569,-10186.357681,12943.567279
1104.160341,-5131.473418,-7658.915550,9803.411904
1104.160644,3599.690308,-3140.155375,8195.039638
1104.160948,7888.683016,765.891555,8041.861327
1104.161251,9267.287815,4135.814397,10262.946837
1104.161554,10569.303459,8348.217949,9573.644437
1104.161854,8195.039638,8807.752882,7888.683016
1104.162155,306.356622,3369.922842,9956.590215
1104.162456,-8884.342038,-4518.760174,12943.567279
1104.162757,-13020.156435,-10799.070925,14168.993767
1104.163057,-9573.644437,-11411.784169,12560.621502
1104.163358,-3369.922842,-8884.342038,9267.287815
1104.163659,2986.977064,-2833.798753,7275.969772
1104.163960,8041.861327,3369.922842,9267.287815
1104.164267,10109.768526,8195.039638,9803.411904
1104.164564,11335.195014,11488.373325,9267.287815
1104.164861,6893.023995,10569.303459,8960.931193
1104.165157,-842.480710,4748.527641,9650.233593
1104.165454,-9343.876971,-3446.511997,12713.799813
1104.165751,-13632.869679,-10492.714303,13249.923901
1104.166048,-9573.644437,-12330.854035,11335.195014
1104.166345,-3829.457775,-9343.876971,9650.233593
1104.166653,2527.442131,-5667.597507,8195.039638
1104.166953,6280.310751,919.069866,10262.946837
1104.167253,9420.466126,6050.543284,11335.195014
1104.167553,7888.683016,8654.574571,9420.466126
1104.167853,2680.620442,7888.683016,9726.822748
1104.168152,-4595.349330,2757.209598,11182.016703
1104.168452,-10033.179370,-3752.868619,13096.745590
1104.168752,-11258.605858,-10033.179370,13709.458834
1104.169069,-7122.791461,-10492.714303,11335.195014
1104.169368,1531.783110,-6893.023995,9190.698660
1104.169667,7275.969772,-1148.837332,7429.148083
1104.169966,10416.125148,3676.279464,9573.644437
1104.170266,8348.217949,6816.434839,10416.125148
1104.170565,7582.326394,8807.752882,9650.233593
1104.170864,1531.783110,6816.434839,9803.411904
1104.171163,-4825.116796,1378.604799,11258.605858
1104.171481,-11105.427547,-7046.202306,13786.047990
1104.171778,-12713.799813,-11258.605858,13403.102212
1104.172076,-6663.256528,-10645.892614,11182.016703
1104.172374,-76.589155,-6893.023995,8501.396260
1104.172672,5514.419196,-2221.085509,8041.861327
1104.172969,8195.039638,1991.318043,9803.411904
1104.173267,7735.504705,5284.651729,10875.660081
1104.173565,6280.310751,8195.039638,9803.411904
1104.173807,1684.961421,5437.830040,8807.752882
1104.174114,-5591.008351,-842.480710,11411.784169
1104.174422,-11105.427547,-7658.915550,13709.458834
1104.174729,-11871.319102,-10645.892614,14322.172078
1104.175037,-3369.922842,-7812.093861,9573.644437
1104.175344,4059.225241,-2833.798753,6356.899906
1104.175651,6893.023995,765.891555,8501.396260
1104.175959,9420.466126,4442.171019,10416.125148
1104.176245,10416.125148,9573.644437,10416.125148
1104.176547,9497.055282,10416.125148,8501.396260
1104.176848,459.534933,5591.008351,9726.822748
1104.177150,-8884.342038,-1302.015643,12790.388968
1104.177452,-13939.226301,-7046.202306,14475.350389
1104.177754,-12866.978124,-10645.892614,12943.567279
1104.178056,-8731.163727,-9650.233593,10875.660081
1104.178358,-1761.550576,-5667.597507,9267.287815
1104.178664,5208.062574,612.713244,9114.109504
1104.178962,10109.768526,5744.186662,8884.342038
1104.179259,10416.125148,8807.752882,9650.233593
1104.179556,7429.148083,9420.466126,9650.233593
1104.179854,1531.783110,6816.434839,9650.233593
1104.180151,-4825.116796,-995.659021,11641.551636
1104.180448,-10186.357681,-7965.272172,14168.993767
1104.180745,-8577.985416,-9880.001059,12254.264880
1104.181042,-1302.015643,-6739.845684,8960.931193
1104.181342,4518.760174,-3446.511997,7658.915550
1104.181642,5820.775818,-76.589155,10109.768526
1104.181943,7582.326394,4825.116796,11182.016703
1104.182243,9114.109504,9420.466126,9114.109504
1104.182544,6127.132440,9114.109504,8041.861327
1104.182844,-2374.263820,3369.922842,10416.125148
1104.183144,-10339.535992,-4059.225241,12560.621502
1104.183439,-13020.156435,-9726.822748,14015.815456
1104.183739,-10799.070925,-11564.962480,12484.032346
1104.184039,-4825.116796,-10186.357681,9650.233593
1104.184340,2144.496354,-4365.581863,8348.217949
1104.184640,8348.217949,-0.000000,7735.504705
1104.184940,9650.233593,3216.744531,9497.055282
1104.185240,7582.326394,5437.830040,9650.233593
1104.185540,4365.581863,5744.186662,8501.396260
1104.185852,-2757.209598,919.069866,10416.125148
1104.186149,-10339.535992,-6893.023995,14934.885322
1104.186447,-12866.978124,-10952.249236,15547.598566
1104.186744,-6663.256528,-9497.055282,11488.373325
1104.187042,1684.961421,-4518.760174,8654.574571
1104.187339,6433.489062,-1148.837332,7582.326394
1104.187636,7429.148083,2757.209598,9956.590215
1104.187934,8960.931193,6663.256528,11335.195014
1104.188243,9420.466126,9420.466126,8884.342038
1104.188542,4212.403552,7122.791461,10033.179370
1104.188842,-3982.636086,1225.426488,11488.373325
1104.189141,-9726.822748,-4518.760174,13556.280523
1104.189440,-13173.334746,-9343.876971,15088.063633
1104.189740,-8884.342038,-9497.055282,11641.551636
1104.190039,-3216.744531,-4825.116796,9267.287815
1104.190339,3446.511997,306.356622,8041.861327
1104.190646,7735.504705,4748.527641,8960.931193
1104.190944,8195.039638,7735.504705,10569.303459
1104.191242,7582.326394,9420.466126,9650.233593
1104.191540,4671.938485,6663.256528,9573.644437
1104.191838,-1455.193954,1684.961421,10492.714303
1104.192136,-9497.055282,-6739.845684,14015.815456
1104.192435,-12254.264880,-10186.357681,13632.869679
1104.192733,-7199.380617,-7199.380617,10722.481770
1104.193049,-229.767466,-4365.581863,7888.683016
1104.193347,3752.868619,-842.480710,8501.396260
1104.193646,7046.202306,4442.171019,9956.590215
1104.193944,10569.303459,9267.287815,8960.931193
1104.194243,11028.838392,10262.946837,8195.039638
1104.194541,5820.775818,7582.326394,9573.644437
1104.194840,-3216.744531,1531.783110,11182.016703
1104.195138,-10799.070925,-5514.419196,13709.458834
1104.195453,-12101.086569,-8884.342038,14168.993767
1104.195751,-8424.807105,-7965.272172,10875.660081
1104.196050,-2604.031287,-5514.419196,8654.574571
1104.196349,919.069866,-1914.728887,8348.217949
1104.196647,5667.597507,1225.426488,9650.233593
1104.196946,7582.326394,3982.636086,10569.303459
1104.197245,7888.683016,4825.116796,9573.644437
1104.197544,3293.333686,2910.387909,9267.287815
1104.197832,-3523.101153,-1761.550576,11641.551636
1104.198132,-9343.876971,-7965.272172,13096.745590
1104.198432,-9497.055282,-11564.962480,12713.799813
1104.198732,-5897.364973,-10492.714303,10722.481770
1104.199032,919.069866,-6280.310751,8654.574571
1104.199332,6280.310751,-842.480710,7888.683016
1104.199632,10875.660081,3829.457775,8654.574571
1104.199932,10262.946837,6969.613150,9650.233593
1104.200231,6127.132440,7429.148083,11028.838392
1104.200530,1072.248177,5591.008351,10416.125148
1104.200830,-5591.008351,-229.767466,11488.373325
1104.201129,-13786.047990,-7046.202306,15241.241944
1104.201428,-15394.420255,-10186.357681,14475.350389
1104.201727,-8424.807105,-7965.272172,11028.838392
1104.202027,-382.945777,-4059.225241,8501.396260
1104.202326,4748.527641,-382.945777,9114.109504
1104.202633,8807.752882,3676.279464,9497.055282
1104.202932,10569.303459,7275.969772,9573.644437
1104.203231,9650.233593,7429.148083,8501.396260
1104.203530,2374.263820,2910.387909,10109.768526
1104.203830,-4825.116796,-3906.046930,11641.551636
1104.204129,-9497.055282,-9726.822748,13403.102212
1104.204428,-9190.698660,-11258.605858,12637.210657
1104.204727,-3369.922842,-7658.915550,9956.590215
1104.205048,1838.139732,-1761.550576,8424.807105
1104.205345,6433.489062,2297.674665,7888.683016
1104.205642,8807.752882,6510.078217,10262.946837
1104.205939,8348.217949,9803.411904,10262.946837
1104.206236,5054.884263,10262.946837,9114.109504
1104.206533,-1302.015643,5591.008351,9956.590215
1104.206830,-10645.892614,-2833.798753,13709.458834
1104.207127,-15241.241944,-10339.535992,16236.900966
1104.207446,-13326.513057,-10952.249236,12943.567279
1104.207744,-4978.295107,-7965.272172,9803.411904
1104.208043,3599.690308,-3752.868619,6969.613150
1104.208341,8348.217949,459.534933,8654.574571
1104.208639,12330.854035,5437.830040,9650.233593
1104.208937,12330.854035,8041.861327,8501.396260
1104.209235,9956.590215,7429.148083,9267.287815
1104.209534,2297.674665,3369.922842,10492.714303
1104.209847,-8118.450483,-3752.868619,12943.567279
1104.210142,-12866.978124,-8424.807105,14092.404612
1104.210438,-10952.249236,-9726.822748,12101.086569
1104.210733,-5131.473418,-5820.775818,10569.303459
1104.211029,765.891555,-1148.837332,9573.644437
1104.211324,6127.132440,4442.171019,9114.109504
1104.211619,11182.016703,9114.109504,9420.466126
1104.211915,11028.838392,10262.946837,8654.574571
1104.212215,6127.132440,7582.326394,8960.931193
1104.212515,-2067.907198,1378.604799,10262.946837
1104.212816,-10799.070925,-6739.845684,12790.388968
1104.213117,-15547.598566,-12177.675724,14322.172078
1104.213418,-11718.140791,-13403.102212,11488.373325
1104.213718,-4288.992708,-8577.985416,9650.233593
1104.214019,4901.705952,-3599.690308,7582.326394
1104.214320,8960.931193,459.534933,8884.342038
1104.214627,10262.946837,4978.295107,10262.946837
1104.214928,10569.303459,8041.861327,8807.752882
1104.215229,5820.775818,6816.434839,8960.931193
1104.215530,-2757.209598,1684.961421,10722.481770
1104.215831,-11564.962480,-5820.775818,14015.815456
1104.216132,-14092.404612,-9190.698660,14781.707011
1104.216433,-8424.807105,-8424.807105,11794.729947
1104.216734,-536.124088,-4825.116796,9420.466126
1104.217013,4901.705952,-382.945777,8195.039638
1104.217319,8807.752882,4135.814397,9497.055282
1104.217624,9956.590215,6510.078217,10492.714303
1104.217929,8348.217949,8501.396260,10339.535992
1104.218234,4748.527641,7275.969772,9573.644437
1104.218540,-3676.279464,2144.496354,10416.125148
1104.218845,-10799.070925,-5514.419196,13326.513057
1104.219150,-13479.691368,-11411.784169,14475.350389
1104.219468,-7812.093861,-10339.535992,11718.140791
1104.219765,-0.000000,-5514.419196,8731.163727
1104.220061,5208.062574,-1608.372265,7275.969772
1104.220357,8195.039638,3063.566220,9037.520349
1104.220653,8195.039638,5744.186662,9803.411904
1104.220949,6739.845684,7122.791461,9573.644437
1104.221245,2144.496354,4748.527641,9650.233593
1104.221541,-3523.101153,-382.945777,10569.303459
1104.221813,-10799.070925,-7352.558928,13403.102212
1104.222114,-11258.605858,-10033.179370,13249.923901
1104.222415,-5744.186662,-7965.272172,10416.125148
1104.222716,-0.000000,-4212.403552,8501.396260
1104.223017,3293.333686,459.534933,8960.931193
1104.223318,7429.148083,5284.651729,10569.303459
1104.223619,9956.590215,10262.946837,9190.698660
1104.223920,9497.055282,11335.195014,8041.861327
1104.224220,4059.225241,7888.683016,9114.109504
1104.224520,-3216.744531,1072.248177,11335.195014
1104.224820,-9497.055282,-5514.419196,14551.939545
1104.225120,-11258.605858,-9880.001059,14322.172078
1104.225420,-6050.543284,-8118.450483,10569.303459
1104.225720,765.891555,-3446.511997,7275.969772
1104.226020,5361.240885,-0.000000,8041.861327
1104.226320,6433.489062,2910.387909,10262.946837
1104.226610,7046.202306,5284.651729,11488.373325
1104.226914,7582.326394,7429.148083,9803.411904
1104.227217,3140.155375,5284.651729,8501.396260
1104.227521,-6969.613150,-2067.907198,11641.551636
1104.227824,-14092.404612,-8884.342038,14628.528700
1104.228128,-12254.264880,-10339.535992,13403.102212
1104.228431,-5437.830040,-8271.628794,9650.233593
1104.228734,-382.945777,-4059.225241,8807.752882
1104.229042,6127.132440,459.534933,9037.520349
1104.229342,11794.729947,5591.008351,9343.876971
1104.229642,11335.195014,6969.613150,9573.644437
1104.229942,8654.574571,7275.969772,9803.411904
1104.230242,2833.798753,5131.473418,9573.644437
1104.230541,-3829.457775,-1302.015643,9343.876971
1104.230841,-10799.070925,-9497.055282,13096.745590
1104.231141,-15394.420255,-14015.815456,14934.885322
1104.231424,-8271.628794,-11258.605858,11182.016703
1104.231721,459.534933,-5054.884263,9267.287815
1104.232017,5820.775818,-0.000000,8807.752882
1104.232313,8195.039638,4442.171019,10875.660081
1104.232610,7735.504705,8501.396260,10875.660081
1104.232906,7122.791461,9420.466126,8501.396260
1104.233203,-995.659021,5591.008351,9956.590215
1104.233499,-9497.055282,-2221.085509,12407.443191
1104.233826,-13632.869679,-9650.233593,14322.172078
1104.234123,-9880.001059,-11718.140791,12407.443191
1104.234419,-2221.085509,-9497.055282,9573.644437
1104.234715,5054.884263,-4901.705952,7735.504705
1104.235011,10569.303459,919.069866,8271.628794
1104.235307,12943.567279,5284.651729,9037.520349
1104.235604,11335.195014,9803.411904,8884.342038
1104.235900,6280.310751,9956.590215,9573.644437
1104.236212,-2221.085509,5437.830040,10109.768526
1104.236511,-11258.605858,-2374.263820,13556.280523
1104.236810,-16696.435899,-8424.807105,15241.241944
1104.237109,-13020.156435,-10492.714303,12790.388968
1104.237408,-4748.527641,-6739.845684,10109.768526
1104.237707,3446.511997,-1148.837332,8424.807105
1104.238006,7275.969772,3676.279464,8654.574571
1104.238305,9650.233593,8807.752882,9803.411904
1104.238619,9497.055282,11641.551636,9573.644437
1104.238917,6280.310751,10262.946837,9420.466126
1104.239215,-2374.263820,4442.171019,10416.125148
1104.239513,-10339.535992,-4518.760174,12560.621502
1104.239811,-13020.156435,-11564.962480,13862.637145
1104.240108,-7122.791461,-12330.854035,11488.373325
1104.240406,765.891555,-9037.520349,8501.396260
1104.240704,6893.023995,-3906.046930,8501.396260
1104.241011,10875.660081,2910.387909,8577.985416
1104.241310,12790.388968,8195.039638,9267.287815
1104.241609,10109.768526,10875.660081,9037.520349
1104.241908,1531.783110,7429.148083,9803.411904
1104.242207,-6356.899906,2604.031287,11488.373325
1104.242506,-12713.799813,-5514.419196,12943.567279
1104.242805,-15088.063633,-11718.140791,14168.993767
1104.243104,-10186.357681,-12637.210657,12407.443191
1104.243400,-2067.907198,-8271.628794,9573.644437
1104.243700,5054.884263,-2986.977064,8195.039638
1104.243999,8960.931193,1991.318043,9573.644437
1104.244299,8807.752882,5131.473418,10875.660081
1104.244598,9267.287815,8654.574571,9650.233593
1104.244898,4518.760174,7582.326394,8807.752882
1104.245198,-3523.101153,919.069866,10339.535992
1104.245497,-12254.264880,-7352.558928,14322.172078
1104.245830,-15088.063633,-12637.210657,15547.598566
1104.246126,-7658.915550,-11411.784169,11718.140791
1104.246423,2833.798753,-5514.419196,7888.683016
1104.246720,7888.683016,-229.767466,7582.326394
1104.247016,9497.055282,4288.992708,9956.590215
1104.247313,9420.466126,8501.396260,11335.195014
1104.247610,8501.396260,10722.481770,9573.644437
1104.247907,2680.620442,8041.861327,9114.109504
1104.248218,-6816.434839,612.713244,11641.551636
1104.248516,-11947.908258,-7658.915550,13709.458834
1104.248813,-10492.714303,-11258.605858,13249.923901
1104.249111,-2604.031287,-8577.985416,9267.287815
1104.249408,2986.977064,-5054.884263,6816.434839
1104.249705,5361.240885,-1608.372265,8348.217949
1104.250003,5054.884263,765.891555,11182.016703
1104.250300,3752.868619,4595.349330,12560.621502
1104.250600,2986.977064,7735.504705,10109.768526
1104.250900,-229.767466,6510.078217,8807.752882
1104.251200,-5131.473418,919.069866,10722.481770
1104.251500,-10799.070925,-4901.705952,13249.923901
1104.251800,-10033.179370,-7658.915550,13403.102212
1104.252100,-3676.279464,-6433.489062,10109.768526
1104.252400,1991.318043,-3446.511997,8960.931193
1104.252700,5514.419196,765.891555,8501.396260
1104.253007,8960.931193,5744.186662,9803.411904
1104.253305,10569.303459,8348.217949,10109.768526
1104.253603,9803.411904,9267.287815,9114.109504
1104.253901,2833.798753,7735.504705,10416.125148
1104.254200,-2604.031287,1838.139732,11182.016703
1104.254498,-9880.001059,-5514.419196,13403.102212
1104.254796,-10339.535992,-10033.179370,12713.799813
1104.255094,-6510.078217,-9190.698660,10875.660081
1104.255410,306.356622,-4518.760174,8654.574571
1104.255709,5361.240885,-536.124088,8501.396260
1104.256007,6739.845684,2910.387909,9956.590215
1104.256306,5973.954129,5131.473418,12101.086569
1104.256604,5514.419196,6510.078217,9573.644437
1104.256903,-382.945777,3982.636086,10416.125148
1104.257201,-8731.163727,-2680.620442,11641.551636
1104.257499,-14322.172078,-9037.520349,14245.582923
1104.257856,-11105.427547,-10492.714303,12713.799813
1104.258149,-2604.031287,-8577.985416,9114.109504
1104.258442,4748.527641,-4059.225241,7429.148083
1104.258734,8807.752882,153.178311,8501.396260
1104.259027,11871.319102,4442.171019,9956.590215
1104.259320,10875.660081,8195.039638,10569.303459
1104.259612,7275.969772,8654.574571,8960.931193
1104.259905,-229.767466,4748.527641,9267.287815
1104.260193,-8577.985416,-2680.620442,12101.086569
1104.260493,-13020.156435,-9880.001059,13709.458834
1104.260793,-11105.427547,-12177.675724,12407.443191
1104.261093,-4288.992708,-9726.822748,10033.179370
1104.261392,3140.155375,-4901.705952,8807.752882
1104.261692,6280.310751,-76.589155,9956.590215
1104.261992,7582.326394,4825.116796,11182.016703
1104.262292,6127.132440,8041.861327,9650.233593
1104.262615,3906.046930,8654.574571,8960.931193
1104.262912,-3982.636086,2450.852976,10875.660081
1104.263208,-10645.892614,-5667.597507,13862.637145
1104.263505,-11411.784169,-10186.357681,13862.637145
1104.263802,-4748.527641,-9343.876971,10799.070925
1104.264098,1991.318043,-6280.310751,8501.396260
1104.264395,6433.489062,-1914.728887,7965.272172
1104.264691,7275.969772,3063.566220,9956.590215
1104.264999,8501.396260,6816.434839,10722.481770
1104.265298,7888.683016,9650.233593,9420.466126
1104.265597,2680.620442,8348.217949,9650.233593
1104.265896,-4135.814397,1991.318043,10875.660081
1104.266196,-10339.535992,-5054.884263,14015.815456
1104.266495,-11947.908258,-9343.876971,14245.582923
1104.266794,-7658.915550,-8731.163727,11335.195014
1104.267093,-1302.015643,-4901.705952,8807.752882
1104.267414,4212.403552,-229.767466,8041.861327
1104.267714,6893.023995,3216.744531,9114.109504
1104.268015,8041.861327,6663.256528,10569.303459
1104.268315,8960.931193,9573.644437,8807.752882
1104.268615,5667.597507,6663.256528,8960.931193
1104.268916,-1302.015643,153.178311,10722.481770
1104.269216,-8884.342038,-5973.954129,13249.923901
1104.269516,-10339.535992,-9037.520349,12484.032346
1104.269783,-7505.737239,-8424.807105,10645.892614
1104.270085,-1914.728887,-5973.954129,8960.931193
1104.270387,2680.620442,-1302.015643,8807.752882
1104.270689,6739.845684,3523.101153,9573.644437
1104.270990,9420.466126,6816.434839,9190.698660
1104.271292,8654.574571,7429.148083,9573.644437
1104.271594,3446.511997,5897.364973,10339.535992
1104.271896,-2450.852976,1378.604799,9956.590215
1104.272213,-10186.357681,-5208.062574,12407.443191
1104.272509,-13786.047990,-10799.070925,14322.172078
1104.272805,-10339.535992,-12637.210657,12407.443191
1104.273101,-2450.852976,-7812.093861,9573.644437
1104.273397,6280.310751,-1302.015643,7046.202306
1104.273693,9956.590215,1991.318043,8654.574571
1104.273989,9803.411904,5744.186662,11182.016703
1104.274285,9956.590215,8654.574571,9267.287815
1104.274585,4212.403552,7735.504705,9573.644437
1104.274885,-4442.171019,1684.961421,11335.195014
1104.275186,-14092.404612,-6433.489062,13939.226301
1104.275487,-15088.063633,-10339.535992,14475.350389
1104.275787,-7965.272172,-9497.055282,10722.481770
1104.276088,-536.124088,-5667.597507,8348.217949
1104.276389,6127.132440,-382.945777,8195.039638
1104.276690,9420.466126,4288.992708,9956.590215
1104.276997,10875.660081,7582.326394,10416.125148
1104.277294,9420.466126,8654.574571,9114.109504
1104.277591,2144.496354,5437.830040,10109.768526
1104.277888,-5591.008351,-1302.015643,10875.660081
1104.278184,-11258.605858,-8884.342038,13249.923901
1104.278481,-11411.784169,-12024.497413,13020.156435
1104.278778,-4748.527641,-9726.822748,9803.411904
1104.279075,1378.604799,-4901.705952,8195.039638
1104.279383,5820.775818,-229.767466,8195.039638
1104.279683,7122.791461,4135.814397,10339.535992
1104.279983,5667.597507,8041.861327,10875.660081
1104.280283,4671.938485,9803.411904,10339.535992
1104.280583,306.356622,7122.791461,9803.411904
1104.280882,-5591.008351,153.178311,11182.016703
1104.281182,-10645.892614,-6127.132440,14475.350389
1104.281482,-8424.807105,-8271.628794,12407.443191
1104.281845,-2374.263820,-5820.775818,9573.644437
1104.282137,2680.620442,-2986.977064,8424.807105
1104.282430,4671.938485,612.713244,9650.233593
1104.282723,7735.504705,6050.543284,10492.714303
1104.283015,8654.574571,9420.466126,9573.644437
1104.283308,7122.791461,8807.752882,8501.396260
1104.283601,-1148.837332,3829.457775,11182.016703
1104.283893,-7122.791461,-2221.085509,12560.621502
1104.284211,-10186.357681,-7505.737239,13709.458834
1104.284507,-9037.520349,-9343.876971,12407.443191
1104.284804,-3369.922842,-7352.558928,9803.411904
1104.285101,1838.139732,-3140.155375,8501.396260
1104.285398,5361.240885,919.069866,8348.217949
1104.285694,7275.969772,3829.457775,10645.892614
1104.285991,5973.954129,5744.186662,11105.427547
1104.286288,6586.667373,5897.364973,9267.287815
1104.286601,1991.318043,3982.636086,9114.109504
1104.286897,-6203.721595,-2833.798753,10875.660081
1104.287192,-12101.086569,-9650.233593,13862.637145
1104.287488,-10492.714303,-10033.179370,12790.388968
1104.287784,-2374.263820,-6893.023995,9420.466126
1104.288080,4518.760174,-2833.798753,6969.613150
1104.288376,7122.791461,919.069866,9114.109504
1104.288671,8807.752882,4595.349330,10262.946837
1104.288985,8195.039638,7275.969772,9956.590215
1104.289284,4365.581863,6510.078217,10109.768526
1104.289583,-2374.263820,1991.318043,9880.001059
1104.289881,-9573.644437,-2986.977064,12713.799813
1104.290180,-13173.334746,-8271.628794,13403.102212
1104.290479,-11258.605858,-10952.249236,11641.551636
1104.290777,-4825.116796,-9037.520349,10416.125148
1104.291076,2527.442131,-5054.884263,8960.931193
1104.291383,7582.326394,-0.000000,8807.752882
1104.291680,9497.055282,3676.279464,10569.303459
1104.291978,9114.109504,6203.721595,9956.590215
1104.292275,5667.597507,6203.721595,9114.109504
1104.292572,-995.659021,1991.318043,9573.644437
1104.292869,-10033.179370,-5361.240885,12484.032346
1104.293167,-13173.334746,-10033.179370,14475.350389
1104.293464,-9880.001059,-11258.605858,12790.388968
1104.293760,-689.302399,-7199.380617,9573.644437
1104.294061,6893.023995,-995.659021,7122.791461
1104.294361,10722.481770,4442.171019,8654.574571
1104.294662,11028.838392,7275.969772,10569.303459
1104.294962,9267.287815,10109.768526,9650.233593
1104.295262,2374.263820,9114.109504,10416.125148
1104.295563,-5437.830040,3216.744531,10875.660081
1104.295863,-13326.513057,-4518.760174,14015.815456
1104.296191,-14781.707011,-8424.807105,14475.350389
1104.296486,-7965.272172,-8271.628794,10722.481770
1104.296782,-536.124088,-4671.938485,9267.287815
1104.297077,5667.597507,-536.124088,8807.752882
1104.297373,8041.861327,3829.457775,9956.590215
1104.297668,9497.055282,8195.039638,10262.946837
1104.297964,8348.217949,9650.233593,8807.752882
1104.298259,3140.155375,6663.256528,8807.752882
1104.298571,-6050.543284,-0.000000,11335.195014
1104.298872,-11564.962480,-5667.597507,13709.458834
1104.299172,-11947.908258,-10186.357681,13403.102212
1104.299473,-5284.651729,-9726.822748,10722.481770
1104.299774,2833.798753,-5514.419196,8654.574571
1104.300075,8348.217949,612.713244,7429.148083
1104.300375,12024.497413,5744.186662,7888.683016
1104.300676,11488.373325,9267.287815,9573.644437
1104.300985,7582.326394,9420.466126,10262.946837
1104.301284,919.069866,6050.543284,10875.660081
1104.301583,-6356.899906,-0.000000,10722.481770
1104.301881,-11871.319102,-6127.132440,13709.458834
1104.302180,-12713.799813,-10339.535992,13249.923901
1104.302479,-8424.807105,-9726.822748,11488.373325
1104.302777,-2067.907198,-6739.845684,9803.411904
1104.303076,5208.062574,-1302.015643,8654.574571
1104.303383,9114.109504,3216.744531,9497.055282
1104.303683,8960.931193,5744.186662,8960.931193
1104.303982,6586.667373,6969.613150,9037.520349
1104.304282,-76.589155,3523.101153,9956.590215
1104.304582,-6356.899906,-3599.690308,12101.086569
1104.304881,-11871.319102,-10799.070925,14015.815456
1104.305181,-11105.427547,-11105.427547,12713.799813
1104.305481,-2450.852976,-8424.807105,9956.590215
1104.305775,3752.868619,-4825.116796,6663.256528
1104.306073,7888.683016,-229.767466,8731.163727
1104.306371,8654.574571,3982.636086,10569.303459
1104.306668,8195.039638,6510.078217,10875.660081
1104.306966,6739.845684,8041.861327,9267.287815
1104.307264,612.713244,4825.116796,8960.931193
1104.307561,-9343.876971,-2833.798753,12560.621502
1104.307859,-14092.404612,-9726.822748,14322.172078
1104.308173,-11411.784169,-10645.892614,12790.388968
1104.308472,-3829.457775,-8118.450483,9803.411904
1104.308771,2986.977064,-3752.868619,8654.574571
1104.309070,7046.202306,459.534933,9573.644437
1104.309368,10416.125148,6356.899906,9956.590215
1104.309667,9803.411904,8960.931193,9573.644437
1104.309966,5361.240885,8041.861327,9497.055282
1104.310264,-3063.566220,3063.566220,11028.838392
1104.310553,-10339.535992,-3140.155375,13096.745590
1104.310852,-13479.691368,-8271.628794,14475.350389
1104.311152,-9497.055282,-9497.055282,12713.799813
1104.311451,-995.659021,-5361.240885,9650.233593
1104.311751,6280.310751,153.178311,7658.915550
1104.312050,10875.660081,5591.008351,7812.093861
1104.312350,11335.195014,8348.217949,9803.411904
1104.312649,8960.931193,9803.411904,9573.644437
1104.312949,3446.511997,7122.791461,9343.876971
1104.313251,-3829.457775,2297.674665,10875.660081
1104.313554,-11718.140791,-4901.705952,12713.799813
1104.313856,-14092.404612,-9880.001059,14015.815456
1104.314159,-9343.876971,-10645.892614,11794.729947
1104.314462,-1608.372265,-7046.202306,8195.039638
1104.314764,5667.597507,-3140.155375,7122.791461
1104.315067,7275.969772,306.356622,9190.698660
1104.315374,7275.969772,2450.852976,11947.908258
1104.315670,7122.791461,6203.721595,10416.125148
1104.315965,5973.954129,6050.543284,8501.396260
1104.316261,-1914.728887,612.713244,10109.768526
1104.316557,-9573.644437,-5208.062574,12866.978124
1104.316853,-11105.427547,-8884.342038,13249.923901
1104.317149,-6969.613150,-8271.628794,10186.357681
1104.317445,1072.248177,-5054.884263,8271.628794
1104.317766,4671.938485,-842.480710,8501.396260
1104.318063,7122.791461,3676.279464,9420.466126
1104.318360,8348.217949,5744.186662,10262.946837
1104.318657,5514.419196,7582.326394,10416.125148
1104.318954,1225.426488,6050.543284,11028.838392
1104.319251,-5284.651729,1378.604799,11028.838392
1104.319548,-10645.892614,-5667.597507,12254.264880
1104.319845,-13326.513057,-11411.784169,13862.637145
1104.320164,-8577.985416,-11871.319102,12254.264880
1104.320462,1072.248177,-5973.954129,8654.574571
1104.320760,8501.396260,-995.659021,6280.310751
1104.321058,9803.411904,1225.426488,9190.698660
1104.321356,8195.039638,4442.171019,11258.605858
1104.321655,7429.148083,8041.861327,9956.590215
1104.321953,1684.961421,5284.651729,9573.644437
1104.322251,-7199.380617,-1455.193954,12101.086569
1104.322564,-13939.226301,-8577.985416,14781.707011
1104.322863,-12254.264880,-10645.892614,13173.334746
1104.323161,-3676.279464,-8118.450483,9573.644437
1104.323460,4212.403552,-3599.690308,8348.217949
1104.323758,10109.768526,1531.783110,8041.861327
1104.324056,14245.582923,7429.148083,8654.574571
1104.324355,11641.551636,10109.768526,8960.931193
1104.324653,5054.884263,9650.233593,10109.768526
1104.324953,-3829.457775,5744.186662,11794.729947
1104.325254,-10799.070925,-229.767466,12407.443191
1104.325555,-15394.420255,-6433.489062,13403.102212
1104.325855,-16619.846743,-9880.001059,14322.172078
1104.326156,-7965.272172,-7965.272172,11794.729947
1104.326457,2833.798753,-3446.511997,8041.861327
1104.326757,9650.233593,1225.426488,7735.504705
1104.327058,11871.319102,3676.279464,8960.931193
1104.327399,9956.590215,6356.899906,9803.411904
1104.327691,9267.287815,7429.148083,8807.752882
1104.327983,1531.783110,2910.387909,8654.574571
1104.328275,-9726.822748,-4212.403552,13403.102212
1104.328567,-14092.404612,-10186.357681,15394.420255
1104.328859,-9726.822748,-9650.233593,12101.086569
1104.329151,-1148.837332,-5973.954129,9803.411904
1104.329443,4748.527641,-2680.620442,6816.434839
1104.329754,8960.931193,2910.387909,8731.163727
1104.330057,13096.745590,7582.326394,8654.574571
1104.330360,11794.729947,8807.752882,8501.396260
1104.330663,4518.760174,6510.078217,11335.195014
1104.330965,-2067.907198,1991.318043,11258.605858
1104.331268,-8424.807105,-3446.511997,11947.908258
1104.331571,-12407.443191,-9190.698660,13556.280523
1104.331874,-13479.691368,-11718.140791,13096.745590
1104.332112,-7505.737239,-8424.807105,10875.660081
1104.332419,1378.604799,-2221.085509,7888.683016
1104.332727,5208.062574,1991.318043,8424.807105
1104.333035,7275.969772,4825.116796,9956.590215
1104.333342,6280.310751,7275.969772,10416.125148
1104.333650,6893.023995,7275.969772,8960.931193
1104.333958,765.891555,1684.961421,9956.590215
1104.334265,-6663.256528,-5514.419196,12560.621502
1104.334582,-10645.892614,-10799.070925,13249.923901
1104.334878,-6969.613150,-10952.249236,10799.070925
1104.335173,153.178311,-7352.558928,7582.326394
1104.335468,4365.581863,-3752.868619,7582.326394
1104.335763,4901.705952,-842.480710,9956.590215
1104.336059,6739.845684,3829.457775,11794.729947
1104.336354,6739.845684,7735.504705,10416.125148
1104.336649,4901.705952,7429.148083,9037.520349
1104.336949,-2450.852976,2910.387909,10262.946837
1104.337247,-8424.807105,-3293.333686,12560.621502
1104.337544,-10952.249236,-7505.737239,13862.637145
1104.337841,-9726.822748,-8884.342038,12560.621502
1104.338139,-2450.852976,-5054.884263,9803.411904
1104.338436,3599.690308,-1914.728887,9114.109504
1104.338734,7429.148083,2757.209598,9114.109504
1104.339031,9267.287815,6203.721595,10262.946837
1104.339361,8807.752882,9114.109504,9573.644437
1104.339658,5361.240885,7429.148083,8960.931193
1104.339955,-4288.992708,919.069866,11028.838392
1104.340252,-11871.319102,-5973.954129,14628.528700
1104.340549,-15088.063633,-9497.055282,15088.063633
1104.340846,-8884.342038,-8424.807105,12024.497413
1104.341143,1072.248177,-3446.511997,8654.574571
1104.341440,8501.396260,1991.318043,7582.326394
1104.341748,12790.388968,6356.899906,8041.861327
1104.342048,12484.032346,8654.574571,9497.055282
1104.342348,9650.233593,8654.574571,9803.411904
1104.342647,4518.760174,6510.078217,9267.287815
1104.342947,-4748.527641,459.534933,10262.946837
1104.343247,-12713.799813,-6586.667373,13249.923901
1104.343547,-16313.490121,-11411.784169,14475.350389
1104.343847,-11411.784169,-10492.714303,12713.799813
1104.344130,-2450.852976,-5820.775818,9650.233593
1104.344433,4671.938485,-1302.015643,8041.861327
1104.344736,9267.287815,4288.992708,8348.217949
1104.345039,10569.303459,6203.721595,9114.109504
1104.345342,8807.752882,7429.148083,9573.644437
1104.345645,4059.225241,5591.008351,9573.644437
1104.345947,-3369.922842,-76.589155,11488.373325
1104.346250,-10952.249236,-7812.093861,14628.528700
1104.346565,-12254.264880,-10799.070925,13479.691368
1104.346859,-6663.256528,-9343.876971,10569.303459
1104.347153,153.178311,-5361.240885,8118.450483
1104.347447,6739.845684,-536.124088,7275.969772
1104.347741,8348.217949,3676.279464,9650.233593
1104.348035,8195.039638,6510.078217,10722.481770
1104.348330,7888.683016,8348.217949,9803.411904
1104.348624,2527.442131,5284.651729,9650.233593
1104.348936,-4978.295107,-995.659021,10875.660081
1104.349235,-12866.978124,-7965.272172,13709.458834
1104.349535,-12866.978124,-11105.427547,13403.102212
1104.349835,-7352.558928,-9190.698660,10569.303459
1104.350135,-536.124088,-6127.132440,8807.752882
1104.350435,4748.527641,-995.659021,8654.574571
1104.350735,7735.504705,1838.139732,9573.644437
1104.351034,7888.683016,4595.349330,10109.768526
1104.351344,7046.202306,5591.008351,9650.233593
1104.351642,1378.604799,3216.744531,9420.466126
1104.351941,-5744.186662,-3293.333686,11488.373325
1104.352239,-11105.427547,-8731.163727,14781.707011
1104.352538,-9726.822748,-10186.357681,12943.567279
1104.352836,-3063.566220,-6586.667373,9956.590215
1104.353135,4212.403552,-842.480710,8195.039638
1104.353433,8654.574571,3829.457775,8195.039638
1104.353740,11488.373325,8807.752882,9420.466126
1104.354040,9803.411904,10109.768526,9803.411904
1104.354340,4518.760174,10262.946837,10109.768526
1104.354639,-1761.550576,5437.830040,11028.838392
1104.354939,-10186.357681,-2067.907198,12713.799813
1104.355239,-14475.350389,-7812.093861,14475.350389
1104.355539,-13479.691368,-9650.233593,13862.637145
1104.355838,-4288.992708,-6893.023995,10109.768526
1104.356135,3446.511997,-2374.263820,7735.504705
1104.356434,8195.039638,919.069866,8041.861327
1104.356733,10109.768526,4288.992708,8807.752882
1104.357032,9956.590215,6050.543284,9573.644437
1104.357330,7888.683016,4748.527641,8654.574571
1104.357629,-995.659021,-229.767466,11028.838392
1104.357928,-9726.822748,-6739.845684,14015.815456
1104.358227,-11871.319102,-9650.233593,13249.923901
1104.358522,-8424.807105,-9190.698660,12407.443191
1104.358822,-1761.550576,-5361.240885,9956.590215
1104.359122,4212.403552,-0.000000,8501.396260
1104.359422,9956.590215,5284.651729,8041.861327
1104.359722,12484.032346,9267.287815,8654.574571
1104.360023,9267.287815,10262.946837,9880.001059
1104.360323,4518.760174,7735.504705,9803.411904
1104.360623,-3523.101153,2450.852976,11641.551636
1104.360935,-10645.892614,-3906.046930,12866.978124
1104.361232,-15241.241944,-9037.520349,14475.350389
1104.361529,-12407.443191,-9880.001059,12790.388968
1104.361827,-5131.473418,-6433.489062,9726.822748
1104.362124,2680.620442,-1608.372265,8041.861327
1104.362422,6280.310751,306.356622,8195.039638
1104.362719,8807.752882,3829.457775,9650.233593
1104.363017,8501.396260,5131.473418,9343.876971
1104.363326,7122.791461,4748.527641,8041.861327
1104.363625,-842.480710,-842.480710,10262.946837
1104.363924,-8884.342038,-7505.737239,13556.280523
1104.364224,-11947.908258,-11411.784169,13862.637145
1104.364523,-7812.093861,-10339.535992,11641.551636
1104.364823,-76.589155,-6280.310751,9114.109504
1104.365122,6280.310751,-689.302399,8501.396260
1104.365421,9497.055282,4595.349330,8041.861327
1104.365729,10416.125148,6663.256528,9420.466126
1104.366027,7046.202306,8501.396260,10569.303459
1104.366325,1838.139732,6816.434839,10416.125148
1104.366623,-6663.256528,1531.783110,12101.086569
1104.366921,-13479.691368,-4671.938485,14168.993767
1104.367219,-14628.528700,-8884.342038,14628.528700
1104.367517,-9343.876971,-8271.628794,11947.908258
1104.367815,-382.945777,-4671.938485,8654.574571
1104.368132,6739.845684,-1302.015643,7582.326394
1104.368430,10569.303459,2757.209598,8807.752882
1104.368729,11641.551636,5284.651729,10109.768526
1104.369027,9650.233593,6663.256528,9573.644437
1104.369325,3140.155375,3523.101153,9573.644437
1104.369624,-6356.899906,-1761.550576,11258.605858
1104.369922,-13326.513057,-7046.202306,14015.815456
1104.370221,-12866.978124,-9343.876971,13709.458834
1104.370535,-5437.830040,-8118.450483,9956.590215
1104.370834,2374.263820,-3293.333686,8654.574571
1104.371133,8348.217949,1531.783110,7888.683016
1104.371431,11794.729947,5744.186662,8501.396260
1104.371730,11182.016703,8501.396260,9956.590215
1104.372029,6739.845684,8501.396260,9497.055282
1104.372327,-1148.837332,4825.116796,10262.946837
1104.372626,-9573.644437,-1914.728887,12713.799813
1104.372914,-13939.226301,-7352.558928,13709.458834
1104.373214,-13020.156435,-9650.233593,13709.458834
1104.373514,-4825.116796,-7046.202306,10109.768526
1104.373814,2680.620442,-2680.620442,8348.217949
1104.374114,8348.217949,2144.496354,8348.217949
1104.374414,10875.660081,5591.008351,8041.861327
1104.374714,9650.233593,7888.683016,9114.109504
1104.375014,5514.419196,7429.148083,9420.466126
1104.375313,-382.945777,3063.566220,10416.125148
1104.375613,-7965.272172,-3599.690308,12943.567279
1104.375912,-12713.799813,-9037.520349,14398.761234
1104.376211,-10645.892614,-10492.714303,13556.280523
1104.376510,-3982.636086,-7046.202306,10262.946837
1104.376810,3293.333686,-1455.193954,7888.683016
1104.377109,7582.326394,2450.852976,7582.326394
1104.377408,8348.217949,5591.008351,8424.807105
1104.377715,8348.217949,7275.969772,9420.466126
1104.378014,5208.062574,5284.651729,9880.001059
1104.378313,-689.302399,-842.480710,11335.195014
1104.378613,-7352.558928,-7046.202306,13249.923901
1104.378912,-9880.001059,-11718.140791,13632.869679
1104.379211,-8118.450483,-12637.210657,11488.373325
1104.379510,-1455.193954,-7965.272172,9497.055282
1104.379810,2297.674665,-4059.225241,8654.574571
1104.380113,4901.705952,153.178311,8884.342038
1104.380417,8348.217949,5437.830040,8807.752882
1104.380721,7122.791461,8195.039638,9497.055282
1104.381024,4671.938485,6356.899906,9267.287815
1104.381328,-4135.814397,1072.248177,11335.195014
1104.381632,-11564.962480,-4901.705952,14781.707011
1104.381935,-11871.319102,-8424.807105,14551.939545
1104.382239,-9190.698660,-8577.985416,12637.210657
1104.382512,-536.124088,-4825.116796,9573.644437
1104.382813,7122.791461,765.891555,7122.791461
1104.383115,9956.590215,4825.116796,7888.683016
1104.383416,11641.551636,8654.574571,9267.287815
1104.383718,9267.287815,9573.644437,9650.233593
1104.384019,4748.527641,8960.931193,9267.287815
1104.384321,-3676.279464,1838.139732,10492.714303
1104.384622,-12866.978124,-5667.597507,14398.761234
1104.384935,-15853.955188,-10952.249236,15241.241944
1104.385231,-11564.962480,-10492.714303,12560.621502
1104.385527,-1608.372265,-7199.380617,9420.466126
1104.385823,6127.132440,-2221.085509,8041.861327
1104.386119,9956.590215,2757.209598,8501.396260
1104.386415,12177.675724,7582.326394,8348.217949
1104.386711,10569.303459,10109.768526,8501.396260
1104.387007,4901.705952,7429.148083,8884.342038
1104.387307,-4748.527641,765.891555,11641.551636
1104.387608,-12713.799813,-5208.062574,13556.280523
1104.387908,-14322.172078,-10492.714303,14168.993767
1104.388209,-10492.714303,-11258.605858,12790.388968
1104.388510,-689.302399,-7505.737239,9726.822748
1104.388810,7275.969772,-1302.015643,8348.217949
1104.389111,12943.567279,5131.473418,7275.969772
1104.389412,13403.102212,7888.683016,8654.574571
1104.389719,9267.287815,9573.644437,9803.411904
1104.390016,3752.868619,6969.613150,9573.644437
1104.390313,-4825.116796,153.178311,11028.838392
1104.390610,-13939.226301,-6586.667373,14015.815456
1104.390907,-16160.311810,-11871.319102,14705.117856
1104.391204,-9573.644437,-11105.427547,11947.908258
1104.391501,612.713244,-6586.667373,8654.574571
1104.391797,7735.504705,-1761.550576,7429.148083
1104.392105,8041.861327,1838.139732,8501.396260
1104.392408,8654.574571,5284.651729,9573.644437
1104.392711,6586.667373,5897.364973,9267.287815
1104.393014,-382.945777,3369.922842,10262.946837
1104.393316,-7812.093861,-2833.798753,12101.086569
1104.393619,-13326.513057,-9726.822748,14551.939545
1104.393922,-11258.605858,-11871.319102,14015.815456
1104.394225,-3829.457775,-10645.892614,10569.303459
1104.394543,4671.938485,-3906.046930,8195.039638
1104.394839,11028.838392,2450.852976,6663.256528
1104.395135,11028.838392,5897.364973,8195.039638
1104.395431,8807.752882,8807.752882,9803.411904
1104.395727,4901.705952,9650.233593,10569.303459
1104.396023,-0.000000,6050.543284,10569.303459
1104.396319,-7658.915550,-689.302399,12254.264880
1104.396615,-11564.962480,-6739.845684,14015.815456
1104.396933,-10186.357681,-9497.055282,13096.745590
1104.397229,-2604.031287,-8884.342038,9650.233593
1104.397526,3752.868619,-3293.333686,7429.148083
1104.397823,5820.775818,1072.248177,7888.683016
1104.398120,7046.202306,4595.349330,9650.233593
1104.398416,7275.969772,8041.861327,9803.411904
1104.398713,5361.240885,8807.752882,8654.574571
1104.399010,-2604.031287,3216.744531,10109.768526
1104.399300,-11564.962480,-4671.938485,13862.637145
1104.399599,-16007.133499,-10339.535992,16696.435899
1104.399898,-11258.605858,-10492.714303,14015.815456
1104.400197,-3676.279464,-8271.628794,9650.233593
1104.400496,4748.527641,-2221.085509,8195.039638
1104.400795,9803.411904,3982.636086,7429.148083
1104.401094,12943.567279,8807.752882,7735.504705
1104.401394,12177.675724,11182.016703,8577.985416
1104.401707,7888.683016,9573.644437,9650.233593
1104.402006,1378.604799,3523.101153,10875.660081
1104.402305,-6510.078217,-2221.085509,12407.443191
1104.402604,-11947.908258,-7658.915550,14015.815456
1104.402902,-13173.334746,-10339.535992,14015.815456
1104.403201,-6663.256528,-7352.558928,10416.125148
1104.403500,1838.139732,-2067.907198,8348.217949
1104.403798,6433.489062,1838.139732,8501.396260
1104.404106,8348.217949,4978.295107,9650.233593
1104.404403,8960.931193,8195.039638,10109.768526
1104.404700,6739.845684,6663.256528,8960.931193
1104.404997,-995.659021,1378.604799,10569.303459
1104.405295,-9880.001059,-5208.062574,12866.978124
1104.405592,-14092.404612,-10339.535992,14475.350389
1104.405889,-10799.070925,-11105.427547,12407.443191
1104.406186,-4135.814397,-9190.698660,9650.233593
1104.406448,3140.155375,-4825.116796,8041.861327
1104.406754,8195.039638,1838.139732,7888.683016
1104.407060,10875.660081,6050.543284,9573.644437
1104.407366,10722.481770,8348.217949,9573.644437
1104.407672,7046.202306,8041.861327,9267.287815
1104.407978,-1148.837332,3369.922842,10416.125148
1104.408284,-9497.055282,-3906.046930,12560.621502
1104.408590,-12866.978124,-9880.001059,13709.458834
1104.408885,-11718.140791,-10799.070925,12713.799813
1104.409186,-4825.116796,-9037.520349,10033.179370
1104.409487,2144.496354,-4212.403552,9114.109504
1104.409788,6739.845684,459.534933,8654.574571
1104.410089,8501.396260,4595.349330,9956.590215
1104.410390,6893.023995,7429.148083,10569.303459
1104.410691,4365.581863,7888.683016,8807.752882
1104.410991,-2604.031287,2450.852976,10416.125148
1104.411280,-10186.357681,-5054.884263,13403.102212
1104.411580,-11411.784169,-9880.001059,14015.815456
1104.411880,-4748.527641,-9726.822748,11335.195014
1104.412181,3906.046930,-6127.132440,7888.683016
1104.412481,8654.574571,-1761.550576,7812.093861
1104.412781,9420.466126,2297.674665,9573.644437
1104.413081,9650.233593,7429.148083,10109.768526
1104.413382,6433.489062,10569.303459,9114.109504
1104.413691,1072.248177,8654.574571,9803.411904
1104.413989,-7658.915550,2604.031287,12101.086569
1104.414288,-13173.334746,-3293.333686,14015.815456
1104.414586,-13786.047990,-8577.985416,14168.993767
1104.414885,-8884.342038,-9726.822748,12560.621502
1104.415183,-2067.907198,-7046.202306,10875.660081
1104.415482,5820.775818,-76.589155,7429.148083
1104.415780,9650.233593,4748.527641,8348.217949
1104.416087,10109.768526,7582.326394,9420.466126
1104.416387,8041.861327,9114.109504,8807.752882
1104.416687,3599.690308,7122.791461,9420.466126
1104.416986,-4288.992708,153.178311,10109.768526
1104.417286,-11258.605858,-7812.093861,13862.637145
1104.417586,-11258.605858,-11871.319102,14781.707011
1104.417885,-4135.814397,-10339.535992,10875.660081
1104.418185,4059.225241,-5361.240885,7582.326394
1104.418482,8654.574571,-76.589155,6510.078217
1104.418785,9267.287815,3829.457775,9114.109504
1104.419087,9267.287815,8041.861327,9650.233593
1104.419390,6739.845684,9267.287815,8807.752882
1104.419693,459.534933,6203.721595,10722.481770
1104.419996,-6816.434839,-536.124088,12254.264880
