#time,accel_x,accel_y,accel_z
1201.036931,-229.767466,-689.302399,10492.714303
1201.037229,-76.589155,-689.302399,10262.946837
1201.037527,-382.945777,-689.302399,10569.303459
1201.037825,-229.767466,-842.480710,10262.946837
1201.038123,-76.589155,-995.659021,10339.535992
1201.038438,-536.124088,-995.659021,10186.357681
1201.038736,-229.767466,-1148.837332,10262.946837
1201.039035,-382.945777,-1302.015643,10339.535992
1201.039334,-229.767466,-842.480710,10262.946837
1201.039632,-76.589155,-995.659021,10262.946837
1201.039931,-0.000000,-536.124088,10416.125148
1201.040230,1991.318043,-536.124088,10186.357681
1201.040528,4901.705952,-382.945777,9880.001059
1201.040840,8654.574571,-76.589155,9497.055282
1201.041137,12790.388968,-76.589155,9497.055282
1201.041433,17538.916609,306.356622,9037.520349
1201.041730,19453.645497,459.534933,9267.287815
1201.042027,21827.909317,153.178311,9267.287815
1201.042323,21291.785229,919.069866,9573.644437
1201.042620,20066.358741,2450.852976,9190.698660
1201.042917,18917.521408,1684.961421,9267.287815
1201.043216,14858.296167,1531.783110,10262.946837
1201.043519,13862.637145,1072.248177,10722.481770
1201.043821,14705.117856,459.534933,10799.070925
1201.044124,20066.358741,919.069866,10492.714303
1201.044427,26729.615269,1378.604799,9267.287815
1201.044729,27801.863446,-229.767466,8654.574571
1201.045032,23895.816516,-2374.263820,10722.481770
1201.045335,17232.559987,-4901.705952,15241.241944
1201.045642,12790.388968,-3599.690308,15394.420255
1201.045938,9956.590215,-842.480710,13709.458834
1201.046233,5973.954129,765.891555,14015.815456
1201.046529,2986.977064,765.891555,14628.528700
1201.046825,3446.511997,1838.139732,15394.420255
1201.047121,7582.326394,3676.279464,13862.637145
1201.047417,13249.923901,4135.814397,11182.016703
1201.047713,18457.986475,4442.171019,10262.946837
1201.048034,24048.994827,3523.101153,8041.861327
1201.048331,30022.948956,612.713244,6127.132440
1201.048628,32397.212776,-2680.620442,5744.186662
1201.048925,34618.298286,-6739.845684,6356.899906
1201.049222,34158.763353,-9190.698660,7046.202306
1201.049519,30865.429666,-9037.520349,8041.861327
1201.049816,24814.886382,-5820.775818,9803.411904
1201.050113,18304.808164,-3140.155375,12560.621502
1201.050461,11871.319102,306.356622,14551.939545
1201.050756,7582.326394,4135.814397,14475.350389
1201.051051,1838.139732,5437.830040,11871.319102
1201.051345,-995.659021,3829.457775,12101.086569
1201.051640,3140.155375,-1914.728887,10875.660081
1201.051935,7582.326394,-4518.760174,10722.481770
1201.052230,13709.458834,-4518.760174,10799.070925
1201.052525,21827.909317,-2374.263820,7735.504705
1201.052838,31784.499532,3982.636086,5361.240885
1201.053134,31937.677843,6663.256528,4748.527641
1201.053430,26270.080336,6663.256528,6816.434839
1201.053726,6739.845684,-1761.550576,14322.172078
1201.054022,-5744.186662,-6586.667373,17692.094920
1201.054318,-13173.334746,-9650.233593,17768.684076
1201.054614,-16696.435899,-5973.954129,13173.334746
1201.054910,-16849.614210,-6280.310751,11564.962480
1201.055210,-13326.513057,-7352.558928,13096.745590
1201.055510,459.534933,-3293.333686,11411.784169
1201.055810,10109.768526,2297.674665,9573.644437
1201.056110,19606.823808,5131.473418,9650.233593
1201.056410,21674.731006,8654.574571,7275.969772
1201.056710,23053.335805,13326.513057,6816.434839
1201.057010,12790.388968,11947.908258,9726.822748
1201.057310,2144.496354,9420.466126,8041.861327
1201.057617,-10339.535992,4595.349330,12024.497413
1201.057918,-22976.746650,-4059.225241,15088.063633
1201.058219,-27418.917669,-7352.558928,14015.815456
1201.058520,-23129.924961,-9037.520349,16083.722655
1201.058821,-6816.434839,-10339.535992,9880.001059
1201.059122,9956.590215,-11718.140791,5820.775818
1201.059423,20525.893674,-8271.628794,7888.683016
1201.059724,31631.321221,-5820.775818,6280.310751
1201.060004,34771.476597,-536.124088,2833.798753
1201.060309,31324.964599,5131.473418,2910.387909
1201.060614,19606.823808,5131.473418,3293.333686
1201.060919,-2450.852976,2297.674665,9343.876971
1201.061224,-23283.103272,306.356622,18304.808164
1201.061529,-32933.336865,-2374.263820,15164.652789
1201.061835,-38064.810283,-689.302399,15394.420255
1201.062140,-33775.817575,-2067.907198,17079.381676
1201.062441,-23436.281583,-5361.240885,15011.474478
1201.062737,-10033.179370,-4059.225241,16849.614210
1201.063032,9956.590215,-1302.015643,11641.551636
1201.063327,25733.956248,-229.767466,5514.419196
1201.063622,31171.786288,612.713244,5744.186662
1201.063917,35231.011530,-842.480710,4978.295107
1201.064212,25274.421315,-995.659021,3369.922842
1201.064507,13249.923901,-76.589155,7275.969772
1201.064824,-76.589155,-1761.550576,7275.969772
1201.065122,-14322.172078,-1302.015643,9803.411904
1201.065419,-22364.033406,153.178311,17768.684076
1201.065716,-26193.491181,-1761.550576,18151.629853
1201.066013,-19223.878030,3982.636086,17615.505765
1201.066311,-3676.279464,8960.931193,14322.172078
1201.066608,9497.055282,9956.590215,7046.202306
1201.066905,17385.738298,10416.125148,9267.287815
1201.067205,22900.157494,8041.861327,8118.450483
1201.067505,21981.087628,3216.744531,3599.690308
1201.067805,12790.388968,-1455.193954,7352.558928
1201.068105,153.178311,-10492.714303,7582.326394
1201.068405,-15700.776877,-14322.172078,11794.729947
1201.068705,-23589.459894,-10492.714303,16007.133499
1201.069005,-23819.227360,-7812.093861,13862.637145
1201.069305,-23589.459894,-842.480710,16083.722655
1201.069596,-16313.490121,6510.078217,16466.668432
1201.069898,-4825.116796,12101.086569,12101.086569
1201.070201,4212.403552,13786.047990,13403.102212
1201.070504,18917.521408,12866.978124,9114.109504
1201.070806,26729.615269,7122.791461,1148.837332
1201.071109,24355.351449,-76.589155,5667.597507
1201.071412,16083.722655,-9880.001059,7812.093861
1201.071714,7429.148083,-12330.854035,5744.186662
1201.072022,919.069866,-10492.714303,9803.411904
1201.072322,-5897.364973,-13096.745590,11488.373325
1201.072622,-16696.435899,-11871.319102,15624.187722
1201.072922,-20908.839451,-4212.403552,19223.878030
1201.073221,-13479.691368,3063.566220,12943.567279
1201.073521,-7658.915550,8807.752882,11411.784169
1201.073821,1072.248177,9573.644437,12101.086569
1201.074121,6127.132440,5131.473418,8884.342038
1201.074403,10416.125148,5284.651729,9114.109504
1201.074705,14168.993767,1991.318043,6739.845684
1201.075007,9956.590215,-4671.938485,4059.225241
1201.075310,2527.442131,-7965.272172,8654.574571
1201.075612,-2374.263820,-11411.784169,10722.481770
1201.075914,-9497.055282,-11564.962480,9880.001059
1201.076216,-11718.140791,-8731.163727,13939.226301
1201.076519,-12713.799813,-7352.558928,12254.264880
1201.076800,-10339.535992,-3293.333686,11641.551636
1201.077100,-4825.116796,2450.852976,11488.373325
1201.077399,2680.620442,3523.101153,6586.667373
1201.077699,306.356622,153.178311,11028.838392
1201.077999,3599.690308,-1914.728887,10799.070925
1201.078298,8960.931193,-229.767466,5284.651729
1201.078598,11641.551636,3063.566220,4059.225241
1201.078897,11182.016703,-76.589155,7429.148083
1201.079209,1684.961421,-2986.977064,10492.714303
1201.079509,-2221.085509,-536.124088,14092.404612
1201.079809,-4825.116796,-229.767466,13556.280523
1201.080109,-10799.070925,-2067.907198,12943.567279
1201.080409,-12560.621502,-2680.620442,16849.614210
1201.080709,-7965.272172,-2680.620442,13173.334746
1201.081009,-1302.015643,1378.604799,10416.125148
1201.081309,4212.403552,5897.364973,9190.698660
1201.081595,8195.039638,4825.116796,6050.543284
1201.081897,6586.667373,6203.721595,11258.605858
1201.082199,9956.590215,6816.434839,10952.249236
1201.082500,7735.504705,5437.830040,9114.109504
1201.082802,3906.046930,4442.171019,11871.319102
1201.083104,-842.480710,459.534933,13709.458834
1201.083406,-3982.636086,-1914.728887,12713.799813
1201.083708,-4595.349330,459.534933,14015.815456
1201.084015,-3063.566220,-2680.620442,10875.660081
1201.084315,-7352.558928,-4365.581863,9650.233593
1201.084614,-7352.558928,-3599.690308,12484.032346
1201.084914,-2757.209598,-2221.085509,6510.078217
1201.085214,-536.124088,1072.248177,6510.078217
1201.085514,2374.263820,-229.767466,9037.520349
1201.085813,919.069866,-4518.760174,8348.217949
1201.086113,919.069866,-2680.620442,14015.815456
1201.086443,2833.798753,-1608.372265,11564.962480
1201.086737,1684.961421,-2986.977064,9803.411904
1201.087031,2144.496354,-2221.085509,10569.303459
1201.087325,3140.155375,-3906.046930,9726.822748
1201.087619,-229.767466,-4671.938485,9267.287815
1201.087913,-2067.907198,-4212.403552,9573.644437
1201.088207,-4135.814397,-4365.581863,7505.737239
1201.088501,-5437.830040,-4901.705952,8118.450483
1201.088796,-4595.349330,-2986.977064,11335.195014
1201.089096,-1148.837332,-2527.442131,9190.698660
1201.089396,-3523.101153,-1302.015643,13403.102212
1201.089696,-1302.015643,-1302.015643,15930.544344
1201.089997,4518.760174,2757.209598,11488.373325
1201.090297,9267.287815,5744.186662,10492.714303
1201.090597,9803.411904,2910.387909,10722.481770
1201.090897,5820.775818,459.534933,9573.644437
1201.091185,5054.884263,3216.744531,9803.411904
1201.091486,3752.868619,765.891555,6739.845684
1201.091787,-4595.349330,-2527.442131,8807.752882
1201.092088,-9190.698660,-3599.690308,13709.458834
1201.092388,-10492.714303,-3906.046930,12101.086569
1201.092689,-9037.520349,-842.480710,12943.567279
1201.092990,-6510.078217,1684.961421,15394.420255
1201.093291,765.891555,4595.349330,10416.125148
1201.093600,5361.240885,8807.752882,10262.946837
1201.093899,7122.791461,7122.791461,9726.822748
1201.094199,6280.310751,2604.031287,7965.272172
1201.094498,2680.620442,765.891555,10339.535992
1201.094797,2144.496354,-3140.155375,7122.791461
1201.095097,-1455.193954,-5973.954129,5744.186662
1201.095396,-5897.364973,-7812.093861,11641.551636
1201.095696,-6969.613150,-6893.023995,10109.768526
1201.096003,-7505.737239,-3599.690308,10645.892614
1201.096301,-6663.256528,-229.767466,13632.869679
1201.096599,-2604.031287,-689.302399,10722.481770
1201.096897,-382.945777,2450.852976,11564.962480
1201.097195,5361.240885,3676.279464,11947.908258
1201.097493,8041.861327,1072.248177,6510.078217
1201.097792,8960.931193,612.713244,9573.644437
1201.098090,8041.861327,-2374.263820,10262.946837
1201.098406,4059.225241,-4212.403552,6893.023995
1201.098704,-1914.728887,-2986.977064,12330.854035
1201.099003,-4595.349330,-3599.690308,11488.373325
1201.099301,-7505.737239,-3599.690308,11641.551636
1201.099600,-7812.093861,-995.659021,14781.707011
1201.099898,-4595.349330,306.356622,11641.551636
1201.100196,-2221.085509,306.356622,13096.745590
1201.100495,2986.977064,1225.426488,12560.621502
1201.100809,7888.683016,-0.000000,7429.148083
1201.101108,8041.861327,-229.767466,8960.931193
1201.101407,6893.023995,-1148.837332,10416.125148
1201.101705,2986.977064,-3293.333686,8118.450483
1201.102004,-689.302399,-1914.728887,10262.946837
1201.102303,-1455.193954,-1148.837332,9114.109504
1201.102601,-6510.078217,-229.767466,8731.163727
1201.102900,-10186.357681,-689.302399,13403.102212
1201.103188,-7199.380617,-229.767466,12407.443191
1201.103488,-4825.116796,1531.783110,11335.195014
1201.103788,-0.000000,612.713244,12560.621502
1201.104088,-995.659021,-4901.705952,10645.892614
1201.104388,1378.604799,-4825.116796,10569.303459
1201.104688,4901.705952,-2221.085509,9573.644437
1201.104988,7122.791461,-1148.837332,4135.814397
1201.105288,4748.527641,-0.000000,9190.698660
1201.105587,3140.155375,1072.248177,9956.590215
1201.105886,3140.155375,4595.349330,8348.217949
1201.106186,-1148.837332,4288.992708,11947.908258
1201.106485,-2604.031287,1838.139732,9803.411904
1201.106784,-6050.543284,765.891555,12943.567279
1201.107083,-6510.078217,-1302.015643,16007.133499
1201.107383,-2757.209598,-2833.798753,12943.567279
1201.107682,-76.589155,-689.302399,11028.838392
1201.107989,6280.310751,1531.783110,10033.179370
1201.108288,7888.683016,-536.124088,6203.721595
1201.108587,7046.202306,1378.604799,8041.861327
1201.108887,2833.798753,153.178311,10569.303459
1201.109186,-2374.263820,-2067.907198,9803.411904
1201.109485,-4288.992708,-2374.263820,12713.799813
1201.109784,-2604.031287,-382.945777,12101.086569
1201.110084,-4978.295107,-76.589155,10416.125148
1201.110404,-4288.992708,612.713244,13173.334746
1201.110704,-1302.015643,-842.480710,10722.481770
1201.111005,-1761.550576,-3140.155375,9956.590215
1201.111305,-1914.728887,-2833.798753,11641.551636
1201.111605,919.069866,-3906.046930,8731.163727
1201.111906,1225.426488,-4365.581863,8348.217949
1201.112206,5361.240885,-3140.155375,10875.660081
1201.112506,7122.791461,-1148.837332,5361.240885
1201.112825,3140.155375,765.891555,8577.985416
1201.113119,-1148.837332,-536.124088,12330.854035
1201.113412,-6510.078217,-2680.620442,11488.373325
1201.113706,-4442.171019,-1761.550576,13249.923901
1201.113999,-689.302399,-1148.837332,10416.125148
1201.114293,-1455.193954,-3906.046930,8041.861327
1201.114586,-2604.031287,-3293.333686,12560.621502
1201.114880,-229.767466,-995.659021,9343.876971
1201.115180,1838.139732,1378.604799,8424.807105
1201.115479,2833.798753,1684.961421,10799.070925
1201.115778,-0.000000,-76.589155,11028.838392
1201.116077,1378.604799,2910.387909,11488.373325
1201.116377,5361.240885,7582.326394,10109.768526
1201.116676,6586.667373,5284.651729,6127.132440
1201.116975,2144.496354,3063.566220,12943.567279
1201.117274,-3982.636086,-995.659021,14168.993767
1201.117574,-5131.473418,-1914.728887,11028.838392
1201.117875,-5284.651729,-1761.550576,11794.729947
1201.118175,-3216.744531,-2067.907198,7888.683016
1201.118476,-4748.527641,-3293.333686,9956.590215
1201.118777,-3216.744531,-1455.193954,13020.156435
1201.119078,919.069866,1225.426488,9956.590215
1201.119378,1225.426488,4748.527641,10492.714303
1201.119679,4901.705952,5591.008351,11028.838392
1201.119986,4212.403552,3369.922842,8807.752882
1201.120283,3906.046930,2297.674665,10722.481770
1201.120580,2527.442131,-1608.372265,10722.481770
1201.120877,-76.589155,-5054.884263,7582.326394
1201.121174,-3369.922842,-7046.202306,11641.551636
1201.121471,-7199.380617,-10952.249236,11718.140791
1201.121768,-7965.272172,-7352.558928,9880.001059
1201.122064,-6663.256528,-4365.581863,12330.854035
1201.122372,-1455.193954,-2833.798753,9573.644437
1201.122671,612.713244,306.356622,10799.070925
1201.122970,5667.597507,5744.186662,11411.784169
1201.123269,8501.396260,4442.171019,8424.807105
1201.123568,9497.055282,3676.279464,9114.109504
1201.123867,11028.838392,-229.767466,9650.233593
1201.124166,6893.023995,-4212.403552,8424.807105
1201.124465,1991.318043,-4825.116796,10492.714303
1201.124782,-3369.922842,-6280.310751,9650.233593
1201.125081,-9037.520349,-7658.915550,9880.001059
1201.125380,-12866.978124,-6739.845684,14015.815456
1201.125679,-11258.605858,-4518.760174,13096.745590
1201.125979,-8118.450483,-842.480710,11488.373325
1201.126278,-2450.852976,4748.527641,13479.691368
1201.126577,5054.884263,7275.969772,8654.574571
1201.126876,11871.319102,10569.303459,7888.683016
1201.127193,13403.102212,9650.233593,8654.574571
1201.127491,6739.845684,1531.783110,6739.845684
1201.127789,-2450.852976,-2833.798753,10492.714303
1201.128087,-5744.186662,-6433.489062,11411.784169
1201.128384,-8424.807105,-9650.233593,9956.590215
1201.128682,-8577.985416,-9343.876971,11794.729947
1201.128980,-6816.434839,-5820.775818,13096.745590
1201.129278,-4825.116796,-2986.977064,13249.923901
1201.129577,459.534933,2910.387909,13249.923901
1201.129874,5667.597507,9114.109504,8807.752882
1201.130171,6586.667373,10262.946837,9343.876971
1201.130468,3906.046930,7735.504705,12713.799813
1201.130765,4748.527641,5591.008351,9420.466126
1201.131061,5667.597507,5744.186662,8424.807105
1201.131358,2833.798753,1072.248177,9497.055282
1201.131655,-3063.566220,-5820.775818,8195.039638
1201.131969,-7352.558928,-6127.132440,13173.334746
1201.132267,-6816.434839,-7658.915550,13249.923901
1201.132566,-5591.008351,-6280.310751,11641.551636
1201.132865,-76.589155,-3599.690308,12560.621502
1201.133163,2374.263820,-536.124088,11794.729947
1201.133462,5667.597507,3369.922842,8807.752882
1201.133761,8960.931193,5897.364973,8654.574571
1201.134060,7046.202306,3676.279464,7046.202306
1201.134367,1684.961421,-1148.837332,9190.698660
1201.134666,-2450.852976,-3140.155375,10492.714303
1201.134966,-2910.387909,-3293.333686,6969.613150
1201.135266,-3982.636086,-2221.085509,8348.217949
1201.135566,-6203.721595,-4518.760174,10799.070925
1201.135865,-8118.450483,-6280.310751,10416.125148
1201.136165,-9726.822748,-5361.240885,15317.831100
1201.136465,-8424.807105,-5208.062574,15394.420255
1201.136761,-3523.101153,-3752.868619,11871.319102
1201.137061,4059.225241,-536.124088,10186.357681
1201.137362,11335.195014,-229.767466,7122.791461
1201.137662,10262.946837,-1608.372265,6663.256528
1201.137962,6739.845684,-1148.837332,9114.109504
1201.138263,2680.620442,-1914.728887,7199.380617
1201.138563,-1608.372265,-1761.550576,9956.590215
1201.138863,-4595.349330,-842.480710,11871.319102
1201.139158,-6969.613150,-1302.015643,10875.660081
1201.139459,-7199.380617,765.891555,14015.815456
1201.139760,-4288.992708,2144.496354,15700.776877
1201.140061,306.356622,2757.209598,11794.729947
1201.140362,5820.775818,5897.364973,12484.032346
1201.140663,8195.039638,5897.364973,10109.768526
1201.140964,7275.969772,3982.636086,9956.590215
1201.141265,8501.396260,3523.101153,8348.217949
1201.141553,4748.527641,1378.604799,4059.225241
1201.141854,-4442.171019,-2833.798753,9497.055282
1201.142154,-12101.086569,-6586.667373,14398.761234
1201.142455,-13632.869679,-6433.489062,12943.567279
1201.142756,-9190.698660,-1148.837332,12790.388968
1201.143057,-3369.922842,1225.426488,12560.621502
1201.143357,1531.783110,2450.852976,10033.179370
1201.143658,4518.760174,5744.186662,10875.660081
1201.143972,10722.481770,5744.186662,7658.915550
1201.144271,7122.791461,3063.566220,4978.295107
1201.144569,1991.318043,-2986.977064,8654.574571
1201.144868,-2374.263820,-7658.915550,8960.931193
1201.145167,-4748.527641,-7046.202306,8195.039638
1201.145466,-4135.814397,-6433.489062,10722.481770
1201.145764,-6816.434839,-9343.876971,9650.233593
1201.146063,-7965.272172,-7199.380617,13709.458834
1201.146370,-5437.830040,-2986.977064,15088.063633
1201.146670,-2604.031287,-842.480710,10875.660081
1201.146969,1838.139732,1072.248177,12024.497413
1201.147269,7046.202306,2604.031287,9956.590215
1201.147569,11182.016703,2757.209598,6663.256528
1201.147869,10722.481770,4825.116796,6893.023995
1201.148168,7888.683016,1072.248177,6510.078217
1201.148468,-2757.209598,-4518.760174,10875.660081
1201.148764,-6663.256528,-4212.403552,13786.047990
1201.149062,-8271.628794,-4825.116796,11028.838392
1201.149359,-9037.520349,-3752.868619,14092.404612
1201.149657,-8577.985416,-2067.907198,16696.435899
1201.149954,-0.000000,306.356622,10722.481770
1201.150251,7429.148083,4978.295107,10492.714303
1201.150549,8195.039638,3829.457775,10799.070925
1201.150846,5208.062574,-76.589155,8807.752882
1201.151161,2297.674665,919.069866,9573.644437
1201.151459,3293.333686,1684.961421,7352.558928
1201.151758,153.178311,-382.945777,6816.434839
1201.152057,-3216.744531,1225.426488,9726.822748
1201.152355,-4825.116796,765.891555,10262.946837
1201.152654,-8884.342038,-536.124088,12943.567279
1201.152953,-8884.342038,-842.480710,13556.280523
1201.153251,-5897.364973,-689.302399,10416.125148
1201.153540,-5744.186662,-2527.442131,13709.458834
1201.153840,1072.248177,-3446.511997,11718.140791
1201.154140,9497.055282,-536.124088,7888.683016
1201.154440,12790.388968,2144.496354,6433.489062
1201.154740,10722.481770,-536.124088,6356.899906
1201.155040,3752.868619,-1148.837332,7429.148083
1201.155340,-4135.814397,-76.589155,11488.373325
1201.155640,-5437.830040,-382.945777,9803.411904
1201.155939,-8118.450483,306.356622,10722.481770
1201.156242,-9190.698660,-995.659021,14628.528700
1201.156544,-7199.380617,-1302.015643,13173.334746
1201.156847,-3063.566220,306.356622,14475.350389
1201.157149,4748.527641,1531.783110,12943.567279
1201.157452,7582.326394,-1761.550576,8348.217949
1201.157754,10109.768526,-1455.193954,10109.768526
1201.158057,11335.195014,-842.480710,9114.109504
1201.158364,9803.411904,612.713244,4518.760174
1201.158660,5054.884263,612.713244,6969.613150
1201.158956,-2604.031287,-2680.620442,10262.946837
1201.159252,-9880.001059,-4825.116796,11335.195014
1201.159548,-14092.404612,-3140.155375,14781.707011
1201.159843,-12101.086569,-3906.046930,13556.280523
1201.160139,-8884.342038,-1914.728887,14475.350389
1201.160435,-1302.015643,-229.767466,13173.334746
1201.160756,6127.132440,1225.426488,7812.093861
1201.161053,8501.396260,919.069866,7965.272172
1201.161350,6127.132440,153.178311,9420.466126
1201.161647,3599.690308,-3599.690308,6280.310751
1201.161944,919.069866,-1608.372265,7888.683016
1201.162241,-1302.015643,-2833.798753,9803.411904
1201.162538,-4135.814397,-4671.938485,9267.287815
1201.162835,-4748.527641,-1914.728887,11641.551636
1201.163154,-5591.008351,-2374.263820,13249.923901
1201.163452,-5131.473418,-1914.728887,12713.799813
1201.163750,-2604.031287,1684.961421,14245.582923
1201.164048,4365.581863,2450.852976,10722.481770
1201.164347,6739.845684,3829.457775,9497.055282
1201.164645,10569.303459,7275.969772,9114.109504
1201.164943,9650.233593,7429.148083,4595.349330
1201.165241,3293.333686,3676.279464,8960.931193
1201.165554,-2604.031287,-229.767466,12101.086569
1201.165853,-5591.008351,-1302.015643,11258.605858
1201.166152,-7199.380617,-1761.550576,13862.637145
1201.166451,-6816.434839,-1148.837332,14245.582923
1201.166750,-3982.636086,1378.604799,12407.443191
1201.167048,-382.945777,1838.139732,13096.745590
1201.167347,3752.868619,-0.000000,11335.195014
1201.167646,3446.511997,-842.480710,9190.698660
1201.167946,4518.760174,-689.302399,9420.466126
1201.168246,4365.581863,-2374.263820,6739.845684
1201.168545,4518.760174,-76.589155,7352.558928
1201.168845,4365.581863,459.534933,8731.163727
1201.169145,-1455.193954,-842.480710,8424.807105
1201.169445,-9037.520349,-3446.511997,13173.334746
1201.169744,-10339.535992,-3293.333686,13632.869679
1201.170044,-10645.892614,-5054.884263,12943.567279
1201.170351,-7199.380617,-4671.938485,14245.582923
1201.170648,-689.302399,-6127.132440,11794.729947
1201.170945,4365.581863,-5054.884263,8807.752882
1201.171242,9114.109504,-3446.511997,8424.807105
1201.171539,8501.396260,-1914.728887,5514.419196
1201.171836,3752.868619,-1455.193954,6969.613150
1201.172132,153.178311,-2374.263820,10033.179370
1201.172429,-4135.814397,-2680.620442,9803.411904
1201.172743,-5284.651729,306.356622,11335.195014
1201.173044,-1761.550576,1378.604799,10799.070925
1201.173344,-689.302399,612.713244,10875.660081
1201.173644,-76.589155,-76.589155,12790.388968
1201.173945,3446.511997,-689.302399,11488.373325
1201.174245,3446.511997,-842.480710,10262.946837
1201.174545,4518.760174,-842.480710,10186.357681
1201.174845,5208.062574,-1455.193954,7505.737239
1201.175164,2374.263820,612.713244,7505.737239
1201.175459,1991.318043,765.891555,9497.055282
1201.175755,-4288.992708,153.178311,10339.535992
1201.176050,-9343.876971,919.069866,13326.513057
1201.176345,-9190.698660,3829.457775,14322.172078
1201.176640,-6510.078217,4978.295107,11335.195014
1201.176936,-5591.008351,4442.171019,12790.388968
1201.177231,-1608.372265,3523.101153,13096.745590
1201.177548,-0.000000,2604.031287,10952.249236
1201.177846,4212.403552,1531.783110,9420.466126
1201.178144,5820.775818,-1302.015643,8118.450483
1201.178441,3293.333686,-4059.225241,8731.163727
1201.178739,1378.604799,-3752.868619,10416.125148
1201.179037,-0.000000,-2833.798753,9650.233593
1201.179335,-2221.085509,-1302.015643,9573.644437
1201.179632,-3982.636086,-76.589155,11564.962480
1201.179932,-4825.116796,-1148.837332,10569.303459
1201.180232,-4288.992708,-842.480710,12713.799813
1201.180532,1684.961421,-1608.372265,12330.854035
1201.180832,4059.225241,-3293.333686,9573.644437
1201.181132,5973.954129,-2680.620442,10033.179370
1201.181432,6893.023995,-2221.085509,8807.752882
1201.181732,5514.419196,-536.124088,7275.969772
1201.182032,3752.868619,-995.659021,8807.752882
1201.182323,-2067.907198,-2986.977064,8654.574571
1201.182626,-4978.295107,-2986.977064,10722.481770
1201.182928,-5284.651729,-2527.442131,12713.799813
1201.183231,-2604.031287,-995.659021,10569.303459
1201.183533,-995.659021,-995.659021,9880.001059
1201.183836,2527.442131,-229.767466,11182.016703
1201.184138,-229.767466,-4212.403552,9343.876971
1201.184441,-3369.922842,-6280.310751,11564.962480
1201.184749,-3216.744531,-6893.023995,13020.156435
1201.185049,-1455.193954,-5208.062574,8960.931193
1201.185348,2986.977064,-2527.442131,8195.039638
1201.185648,3446.511997,2910.387909,7429.148083
1201.185948,612.713244,5744.186662,7888.683016
1201.186248,-3523.101153,4442.171019,11182.016703
1201.186548,-6050.543284,1531.783110,11718.140791
1201.186848,-6356.899906,-229.767466,14628.528700
1201.187131,-3982.636086,-2680.620442,13862.637145
1201.187434,-1148.837332,-5054.884263,10952.249236
1201.187737,5208.062574,-2833.798753,10339.535992
1201.188040,8807.752882,-1148.837332,9650.233593
1201.188343,6127.132440,-689.302399,7429.148083
1201.188645,2374.263820,1225.426488,10109.768526
1201.188948,306.356622,2297.674665,10875.660081
1201.189251,-1302.015643,4595.349330,9497.055282
1201.189533,-2067.907198,5131.473418,11488.373325
1201.189836,-536.124088,5131.473418,10109.768526
1201.190138,-2067.907198,3982.636086,11105.427547
1201.190441,-382.945777,1531.783110,12790.388968
1201.190744,-1761.550576,-2374.263820,12713.799813
1201.191046,2527.442131,-3446.511997,11794.729947
1201.191349,4671.938485,-2374.263820,10569.303459
1201.191652,3752.868619,-1761.550576,7275.969772
1201.191941,2374.263820,-0.000000,8960.931193
1201.192237,1838.139732,2604.031287,8807.752882
1201.192533,-3063.566220,306.356622,7965.272172
1201.192829,-7812.093861,-1148.837332,11488.373325
1201.193125,-8731.163727,-3599.690308,11641.551636
1201.193420,-6203.721595,-2221.085509,12713.799813
1201.193716,459.534933,-2833.798753,12790.388968
1201.194012,4365.581863,-2527.442131,9803.411904
1201.194321,4748.527641,-2374.263820,9803.411904
1201.194620,2374.263820,-2221.085509,9573.644437
1201.194918,-536.124088,-4901.705952,7888.683016
1201.195217,-2450.852976,-4518.760174,10722.481770
1201.195515,-382.945777,-4365.581863,11028.838392
1201.195814,612.713244,-2221.085509,6510.078217
1201.196112,2680.620442,1072.248177,9420.466126
1201.196411,-0.000000,-1914.728887,11258.605858
1201.196718,-4825.116796,-4901.705952,14092.404612
1201.197017,-3369.922842,-2680.620442,14092.404612
1201.197317,459.534933,-1302.015643,10033.179370
1201.197617,1991.318043,-536.124088,9037.520349
1201.197916,3906.046930,1684.961421,9803.411904
1201.198216,5973.954129,765.891555,6280.310751
1201.198516,4059.225241,2450.852976,10416.125148
1201.198815,1684.961421,-1761.550576,12713.799813
1201.199112,-2910.387909,-3446.511997,10569.303459
1201.199412,-4135.814397,-842.480710,12713.799813
1201.199711,-2067.907198,2450.852976,10645.892614
1201.200011,-0.000000,3829.457775,8195.039638
1201.200310,-2374.263820,4442.171019,12713.799813
1201.200610,-4748.527641,1838.139732,12866.978124
1201.200909,-4748.527641,2604.031287,11105.427547
1201.201209,-995.659021,612.713244,12101.086569
1201.201536,1531.783110,-1148.837332,9267.287815
1201.201832,2986.977064,306.356622,8731.163727
1201.202127,5514.419196,1225.426488,9420.466126
1201.202423,4059.225241,1225.426488,8807.752882
1201.202718,-229.767466,3369.922842,11105.427547
1201.203014,-382.945777,3829.457775,10722.481770
1201.203309,-3676.279464,1531.783110,10109.768526
1201.203605,-4825.116796,459.534933,12866.978124
1201.203916,-1455.193954,-1761.550576,11105.427547
1201.204217,306.356622,-1914.728887,9880.001059
1201.204518,1531.783110,-4365.581863,10952.249236
1201.204819,1225.426488,-5054.884263,9803.411904
1201.205119,-536.124088,-2986.977064,10186.357681
1201.205420,2374.263820,-2527.442131,10722.481770
1201.205721,3599.690308,-1455.193954,9420.466126
1201.206022,1531.783110,1072.248177,11335.195014
1201.206331,4059.225241,2757.209598,9956.590215
1201.206627,459.534933,1072.248177,9267.287815
1201.206923,-1148.837332,459.534933,12101.086569
1201.207219,-3216.744531,-4671.938485,12560.621502
1201.207515,-4748.527641,-5667.597507,11028.838392
1201.207811,-2757.209598,-4825.116796,10799.070925
1201.208107,-382.945777,-2527.442131,8501.396260
1201.208403,459.534933,-3906.046930,8577.985416
1201.208710,-536.124088,-4212.403552,11641.551636
1201.209009,-1608.372265,-4825.116796,11488.373325
1201.209308,-1302.015643,-2067.907198,10722.481770
1201.209607,2144.496354,-1148.837332,10109.768526
1201.209906,4212.403552,153.178311,7122.791461
1201.210205,4671.938485,2757.209598,9037.520349
1201.210504,4671.938485,1991.318043,9956.590215
1201.210803,-76.589155,-2221.085509,9573.644437
1201.211119,-5131.473418,-3140.155375,12560.621502
1201.211420,-5284.651729,-4518.760174,11182.016703
1201.211721,-6356.899906,-4365.581863,8654.574571
1201.212022,-2374.263820,-1148.837332,10875.660081
1201.212323,1684.961421,-382.945777,9803.411904
1201.212624,2297.674665,3523.101153,11335.195014
1201.212925,6893.023995,5897.364973,11028.838392
1201.213226,5820.775818,5591.008351,8884.342038
1201.213540,2527.442131,5131.473418,11411.784169
1201.213837,2527.442131,3369.922842,12101.086569
1201.214133,-689.302399,-76.589155,9880.001059
1201.214429,-1914.728887,1531.783110,10722.481770
1201.214725,-2604.031287,-536.124088,9726.822748
1201.215022,-4825.116796,-1148.837332,8884.342038
1201.215318,-6203.721595,-1302.015643,12177.675724
1201.215614,-2910.387909,-2680.620442,12713.799813
1201.215902,-842.480710,1684.961421,12254.264880
1201.216202,3140.155375,3676.279464,11028.838392
1201.216502,5820.775818,3829.457775,7352.558928
1201.216802,5667.597507,3982.636086,10416.125148
1201.217102,3752.868619,153.178311,12713.799813
1201.217402,-229.767466,-4059.225241,10416.125148
1201.217702,-1761.550576,-4671.938485,11258.605858
1201.218002,-382.945777,-5054.884263,10033.179370
1201.218301,-1302.015643,-5973.954129,7812.093861
1201.218601,-1302.015643,-3140.155375,10033.179370
1201.218900,-2067.907198,-2833.798753,10262.946837
1201.219199,-4288.992708,-1455.193954,10262.946837
1201.219498,-5744.186662,-2374.263820,13326.513057
1201.219797,-2757.209598,-2067.907198,10109.768526
1201.220097,1378.604799,-689.302399,11028.838392
1201.220396,3906.046930,-3599.690308,12560.621502
1201.220703,5208.062574,-5208.062574,9497.055282
1201.221003,3293.333686,-3446.511997,9880.001059
1201.221303,3599.690308,-3293.333686,8424.807105
1201.221603,-1302.015643,-4365.581863,7429.148083
1201.221903,-3369.922842,-3293.333686,9573.644437
1201.222203,-3982.636086,-1455.193954,9880.001059
1201.222503,-4442.171019,-1148.837332,9803.411904
1201.222803,-4135.814397,-382.945777,13249.923901
1201.223123,-1455.193954,-1914.728887,12560.621502
1201.223424,153.178311,-0.000000,11411.784169
1201.223724,4518.760174,919.069866,12943.567279
1201.224024,9420.466126,2297.674665,9267.287815
1201.224325,10262.946837,4978.295107,7965.272172
1201.224625,10262.946837,6969.613150,6893.023995
1201.224926,4748.527641,5131.473418,5284.651729
1201.225226,-3369.922842,1378.604799,9956.590215
1201.225545,-9573.644437,-2527.442131,12713.799813
1201.225838,-13939.226301,-4671.938485,14015.815456
1201.226132,-11718.140791,-3599.690308,15241.241944
1201.226425,-2374.263820,306.356622,11335.195014
1201.226719,612.713244,2297.674665,10875.660081
1201.227013,4901.705952,3829.457775,11335.195014
1201.227306,7046.202306,3523.101153,8960.931193
1201.227600,6433.489062,3676.279464,9650.233593
1201.227917,3293.333686,-842.480710,9650.233593
1201.228213,-2067.907198,-3140.155375,9267.287815
1201.228509,-536.124088,-689.302399,9650.233593
1201.228805,-1608.372265,-2221.085509,10416.125148
1201.229101,-5437.830040,-4671.938485,10339.535992
1201.229397,-8884.342038,-2374.263820,15394.420255
1201.229693,-6510.078217,-842.480710,13173.334746
1201.229988,-2604.031287,-382.945777,10799.070925
1201.230288,1378.604799,612.713244,11718.140791
1201.230589,5973.954129,1072.248177,11028.838392
1201.230890,7122.791461,1072.248177,8424.807105
1201.231191,9650.233593,-76.589155,8348.217949
1201.231491,4365.581863,-3906.046930,6739.845684
1201.231792,306.356622,-6127.132440,8501.396260
1201.232093,-2450.852976,-6280.310751,10569.303459
1201.232394,-1148.837332,-5514.419196,9114.109504
1201.232701,-6816.434839,-5514.419196,12943.567279
1201.233002,-7505.737239,-5820.775818,14168.993767
1201.233303,-5131.473418,-2067.907198,11411.784169
1201.233604,-995.659021,1378.604799,12101.086569
1201.233904,1531.783110,-536.124088,10109.768526
1201.234205,765.891555,-76.589155,9267.287815
1201.234506,7122.791461,2910.387909,8807.752882
1201.234807,10262.946837,1838.139732,5514.419196
1201.235087,4365.581863,-1914.728887,6739.845684
1201.235392,-2757.209598,-5054.884263,12330.854035
1201.235698,-7122.791461,-5973.954129,10722.481770
1201.236003,-7199.380617,-4212.403552,11641.551636
1201.236308,-4135.814397,-2986.977064,12177.675724
1201.236613,-4748.527641,459.534933,12177.675724
1201.236918,-2221.085509,4288.992708,14628.528700
1201.237223,4671.938485,5897.364973,9956.590215
1201.237542,5054.884263,6510.078217,9726.822748
1201.237835,4518.760174,4135.814397,11641.551636
1201.238127,2833.798753,3369.922842,7122.791461
1201.238420,1072.248177,2757.209598,8271.628794
1201.238713,-842.480710,765.891555,11182.016703
1201.239005,-2604.031287,-1302.015643,10952.249236
1201.239298,-4978.295107,765.891555,12407.443191
1201.239591,-4595.349330,-0.000000,12713.799813
1201.239908,-5131.473418,-536.124088,11718.140791
1201.240206,-1148.837332,1378.604799,12713.799813
1201.240504,3599.690308,-1148.837332,11028.838392
1201.240801,4901.705952,-1914.728887,10262.946837
1201.241099,6280.310751,919.069866,9420.466126
1201.241397,6586.667373,-536.124088,5897.364973
1201.241695,2527.442131,-1148.837332,5744.186662
1201.241993,-1914.728887,-3140.155375,10875.660081
1201.242292,-3982.636086,-5054.884263,9726.822748
1201.242592,-7352.558928,-3752.868619,12024.497413
1201.242891,-3829.457775,-2527.442131,11718.140791
1201.243190,-2910.387909,-3906.046930,10569.303459
1201.243489,-1608.372265,-2833.798753,13173.334746
1201.243788,3599.690308,-1914.728887,11411.784169
1201.244087,1838.139732,-2527.442131,8960.931193
1201.244386,2680.620442,-4518.760174,9880.001059
1201.244700,1072.248177,-5514.419196,9803.411904
1201.244999,612.713244,-3599.690308,7658.915550
1201.245297,2986.977064,-382.945777,8577.985416
1201.245596,-2604.031287,-2833.798753,9956.590215
1201.245895,-8271.628794,-2221.085509,13709.458834
1201.246194,-8577.985416,-1148.837332,14781.707011
1201.246492,-4288.992708,306.356622,10952.249236
1201.246791,-536.124088,2910.387909,12713.799813
1201.247098,3599.690308,1531.783110,11564.962480
1201.247395,7888.683016,3676.279464,7812.093861
1201.247693,10416.125148,2910.387909,7582.326394
1201.247990,7122.791461,-2680.620442,9114.109504
1201.248287,-995.659021,-5054.884263,9343.876971
1201.248584,-1761.550576,-2680.620442,11258.605858
1201.248881,-842.480710,-1148.837332,9573.644437
1201.249179,-2910.387909,1684.961421,8424.807105
1201.249508,-3369.922842,2144.496354,12024.497413
1201.249805,-4748.527641,3829.457775,11641.551636
1201.250101,-3216.744531,5437.830040,12713.799813
1201.250397,-1761.550576,4442.171019,12560.621502
1201.250694,-1761.550576,765.891555,10875.660081
1201.250990,459.534933,1991.318043,12943.567279
1201.251286,7122.791461,1991.318043,8577.985416
1201.251583,6739.845684,-76.589155,4748.527641
1201.251878,2374.263820,-1455.193954,9573.644437
1201.252178,-3523.101153,-3293.333686,10875.660081
1201.252479,-5897.364973,-2833.798753,9343.876971
1201.252780,-6510.078217,-2067.907198,12560.621502
1201.253081,-6510.078217,-2986.977064,11794.729947
1201.253382,-3982.636086,-536.124088,13020.156435
1201.253683,765.891555,-229.767466,13709.458834
1201.253983,6280.310751,-0.000000,9803.411904
1201.254272,7888.683016,1072.248177,10875.660081
1201.254572,7429.148083,765.891555,9190.698660
1201.254873,6280.310751,-0.000000,6969.613150
1201.255174,2986.977064,306.356622,9420.466126
1201.255475,-229.767466,-1608.372265,9114.109504
1201.255776,-7505.737239,-2527.442131,9573.644437
1201.256076,-11105.427547,-3752.868619,14015.815456
1201.256377,-10799.070925,-5514.419196,13326.513057
1201.256686,-8577.985416,-5820.775818,12407.443191
1201.256986,-1761.550576,-5208.062574,14322.172078
1201.257285,7735.504705,-3446.511997,10875.660081
1201.257584,11182.016703,-1455.193954,8807.752882
1201.257884,12790.388968,-689.302399,8807.752882
1201.258183,10109.768526,-536.124088,5514.419196
1201.258482,5514.419196,-689.302399,6969.613150
1201.258782,612.713244,-2833.798753,8501.396260
1201.259089,-6816.434839,-3906.046930,10339.535992
1201.259389,-9497.055282,-2374.263820,11947.908258
1201.259688,-7505.737239,-2833.798753,11028.838392
1201.259988,-9726.822748,-3906.046930,13403.102212
1201.260288,-8118.450483,-2221.085509,16390.079277
1201.260587,-3369.922842,2450.852976,13020.156435
1201.260887,4059.225241,6510.078217,8960.931193
1201.261186,10416.125148,6050.543284,7735.504705
1201.261516,8807.752882,5131.473418,6893.023995
1201.261811,4901.705952,4595.349330,10569.303459
1201.262106,4518.760174,3216.744531,10262.946837
1201.262401,1838.139732,4442.171019,7812.093861
1201.262696,-5591.008351,1378.604799,11718.140791
1201.262990,-10186.357681,-1608.372265,13020.156435
1201.263285,-10799.070925,612.713244,13862.637145
1201.263580,-4442.171019,2297.674665,13709.458834
1201.263875,-1761.550576,765.891555,12713.799813
1201.264174,1378.604799,612.713244,11182.016703
1201.264473,7046.202306,2910.387909,9190.698660
1201.264773,8654.574571,2297.674665,6510.078217
1201.265072,5514.419196,-1148.837332,8424.807105
1201.265371,3140.155375,-3599.690308,10875.660081
1201.265671,2297.674665,-3293.333686,8807.752882
1201.265970,-0.000000,-1148.837332,9114.109504
1201.266282,-1761.550576,-1302.015643,9573.644437
1201.266581,-6203.721595,-4059.225241,10109.768526
1201.266880,-7658.915550,-5361.240885,14934.885322
1201.267180,-6356.899906,-5054.884263,12713.799813
1201.267479,-1608.372265,-4365.581863,10109.768526
1201.267779,1072.248177,-4365.581863,10569.303459
1201.268078,3752.868619,-5973.954129,8807.752882
1201.268378,6586.667373,-4365.581863,6356.899906
1201.268677,4671.938485,-3140.155375,7429.148083
1201.268976,153.178311,-3446.511997,8884.342038
1201.269276,-5284.651729,-3599.690308,12790.388968
1201.269575,-4442.171019,-0.000000,12713.799813
1201.269874,-1455.193954,1225.426488,8654.574571
1201.270173,-2757.209598,1225.426488,12866.978124
1201.270473,-689.302399,765.891555,12101.086569
1201.270772,1072.248177,-76.589155,10722.481770
1201.271079,2527.442131,153.178311,11411.784169
1201.271380,2680.620442,-2527.442131,10339.535992
1201.271682,459.534933,-1455.193954,9573.644437
1201.271983,2833.798753,-842.480710,9726.822748
1201.272285,3293.333686,2297.674665,9497.055282
1201.272586,153.178311,3063.566220,9267.287815
1201.272888,-2067.907198,2910.387909,10569.303459
1201.273189,-5131.473418,1991.318043,10952.249236
1201.273505,-4748.527641,459.534933,13556.280523
1201.273799,-1148.837332,-2374.263820,13249.923901
1201.274093,3140.155375,-842.480710,9573.644437
1201.274387,3293.333686,306.356622,10569.303459
1201.274680,3446.511997,459.534933,9573.644437
1201.274974,2680.620442,1684.961421,7505.737239
1201.275268,306.356622,306.356622,10033.179370
1201.275562,-2067.907198,-1148.837332,10875.660081
1201.275880,-2221.085509,-689.302399,10339.535992
1201.276178,-842.480710,-0.000000,9726.822748
1201.276476,-536.124088,-536.124088,8041.861327
1201.276775,-2757.209598,-995.659021,12101.086569
1201.277073,-4442.171019,-4212.403552,14398.761234
1201.277371,-4748.527641,-3599.690308,13249.923901
1201.277669,-842.480710,-1148.837332,12407.443191
1201.277967,919.069866,-842.480710,9420.466126
1201.278280,3446.511997,-0.000000,8501.396260
1201.278579,2986.977064,1378.604799,10416.125148
1201.278877,3446.511997,3063.566220,9497.055282
1201.279176,2527.442131,3063.566220,7965.272172
1201.279474,-842.480710,765.891555,11028.838392
1201.279773,-3063.566220,-2527.442131,10569.303459
1201.280071,-842.480710,-1302.015643,9956.590215
1201.280370,1838.139732,-3599.690308,10875.660081
1201.280669,153.178311,-6586.667373,10722.481770
1201.280969,-995.659021,-6280.310751,12560.621502
1201.281269,-2221.085509,-5514.419196,10339.535992
1201.281569,-0.000000,-2986.977064,7888.683016
1201.281869,-382.945777,-3293.333686,10569.303459
1201.282169,-1302.015643,-3140.155375,10033.179370
1201.282469,2986.977064,1225.426488,8501.396260
1201.282769,3599.690308,4135.814397,9267.287815
1201.283076,-76.589155,1072.248177,9650.233593
1201.283373,-4748.527641,-1455.193954,11794.729947
1201.283670,-5131.473418,-689.302399,14168.993767
1201.283967,-3216.744531,-2833.798753,11411.784169
1201.284264,-2757.209598,-4671.938485,10186.357681
1201.284560,-0.000000,-3599.690308,12177.675724
1201.284857,4671.938485,459.534933,7965.272172
1201.285154,5054.884263,153.178311,9114.109504
1201.285498,2833.798753,1531.783110,9650.233593
1201.285794,306.356622,3829.457775,9190.698660
1201.286090,-3982.636086,3216.744531,13020.156435
1201.286386,-4288.992708,3523.101153,10799.070925
1201.286682,-2221.085509,6050.543284,11411.784169
1201.286978,-995.659021,5284.651729,13096.745590
1201.287275,765.891555,3369.922842,10875.660081
1201.287571,2527.442131,3063.566220,11028.838392
1201.287889,-229.767466,153.178311,11182.016703
1201.288186,-1148.837332,-2374.263820,9190.698660
1201.288482,-842.480710,-1455.193954,10416.125148
1201.288778,-536.124088,-3140.155375,9573.644437
1201.289074,-995.659021,-3599.690308,8807.752882
1201.289370,-689.302399,-2221.085509,10109.768526
1201.289666,-1148.837332,-2067.907198,10109.768526
1201.289962,-1302.015643,-3293.333686,9956.590215
1201.290279,-1608.372265,-4059.225241,13556.280523
1201.290577,2986.977064,-2986.977064,10875.660081
1201.290876,6893.023995,-2221.085509,8960.931193
1201.291175,7582.326394,-536.124088,8118.450483
1201.291473,4901.705952,-1148.837332,6969.613150
1201.291772,1531.783110,-1608.372265,8041.861327
1201.292070,-4288.992708,-4212.403552,9880.001059
1201.292369,-9037.520349,-7046.202306,12713.799813
1201.292669,-8884.342038,-8424.807105,14475.350389
1201.292965,-7199.380617,-6127.132440,13786.047990
1201.293262,-1914.728887,-3293.333686,8960.931193
1201.293559,1531.783110,153.178311,10109.768526
1201.293856,2144.496354,919.069866,12101.086569
1201.294152,3293.333686,3523.101153,9803.411904
1201.294449,1838.139732,3829.457775,9343.876971
1201.294746,459.534933,4288.992708,9573.644437
1201.295076,-229.767466,3063.566220,9497.055282
1201.295373,-1455.193954,2757.209598,11335.195014
1201.295670,-2067.907198,1225.426488,11182.016703
1201.295967,765.891555,1225.426488,10186.357681
1201.296264,-0.000000,765.891555,11947.908258
1201.296561,-76.589155,306.356622,10722.481770
1201.296858,1991.318043,-76.589155,10645.892614
1201.297155,2833.798753,612.713244,10339.535992
1201.297497,5208.062574,1225.426488,9190.698660
1201.297791,-382.945777,-995.659021,9650.233593
1201.298085,-842.480710,-536.124088,8195.039638
1201.298379,-689.302399,-76.589155,8348.217949
1201.298673,-2757.209598,-2680.620442,10262.946837
1201.298967,-3982.636086,-3446.511997,11411.784169
1201.299261,-1914.728887,153.178311,10339.535992
1201.299555,-995.659021,919.069866,10722.481770
1201.299872,-229.767466,-382.945777,10262.946837
1201.300172,-2374.263820,153.178311,12407.443191
1201.300473,-2221.085509,-1302.015643,13862.637145
1201.300774,612.713244,-2833.798753,7812.093861
1201.301074,3906.046930,-3599.690308,9497.055282
1201.301375,3906.046930,-5208.062574,10416.125148
1201.301675,2374.263820,-4059.225241,8960.931193
1201.301976,2833.798753,1378.604799,9497.055282
1201.302258,919.069866,3216.744531,7965.272172
1201.302561,-5591.008351,459.534933,11564.962480
1201.302863,-7965.272172,765.891555,13556.280523
1201.303166,-2910.387909,3063.566220,12790.388968
1201.303469,2297.674665,3216.744531,11182.016703
1201.303771,3906.046930,919.069866,11641.551636
1201.304074,2680.620442,-1148.837332,11488.373325
1201.304377,153.178311,-2374.263820,11182.016703
1201.304666,-1302.015643,-2986.977064,11488.373325
1201.304962,-1148.837332,-2374.263820,7199.380617
1201.305258,-2757.209598,-2221.085509,9114.109504
1201.305554,-4135.814397,-3599.690308,10722.481770
1201.305850,-536.124088,-536.124088,8807.752882
1201.306145,919.069866,-536.124088,9956.590215
1201.306441,-1608.372265,-2374.263820,10569.303459
1201.306737,-2221.085509,-3446.511997,11947.908258
1201.307046,1991.318043,-2833.798753,11871.319102
1201.307344,6739.845684,-3293.333686,9726.822748
1201.307643,6893.023995,-2221.085509,10109.768526
1201.307941,7888.683016,919.069866,8195.039638
1201.308240,5667.597507,3216.744531,6280.310751
1201.308539,919.069866,1378.604799,8884.342038
1201.308837,-5591.008351,-689.302399,11105.427547
1201.309136,-8271.628794,-689.302399,11182.016703
1201.309443,-11105.427547,-3140.155375,13173.334746
1201.309743,-9573.644437,-3140.155375,13096.745590
1201.310044,-4978.295107,-0.000000,14322.172078
1201.310344,2527.442131,2297.674665,13632.869679
1201.310645,7046.202306,4825.116796,9803.411904
1201.310945,10569.303459,9650.233593,8807.752882
1201.311246,8195.039638,8348.217949,8807.752882
1201.311547,4671.938485,6816.434839,8654.574571
1201.311843,1378.604799,2910.387909,9803.411904
1201.312143,-3216.744531,306.356622,10186.357681
1201.312442,-6510.078217,-4671.938485,9956.590215
1201.312742,-6356.899906,-5054.884263,11718.140791
1201.313041,-6816.434839,-9037.520349,12637.210657
1201.313341,-6816.434839,-9037.520349,12943.567279
1201.313640,-536.124088,-7046.202306,14015.815456
1201.313940,5514.419196,-2067.907198,8960.931193
1201.314235,10262.946837,612.713244,7582.326394
1201.314535,6586.667373,612.713244,8348.217949
1201.314835,6127.132440,153.178311,6663.256528
1201.315135,2144.496354,-1148.837332,8501.396260
1201.315435,-1608.372265,-4825.116796,9956.590215
1201.315735,-4288.992708,-6739.845684,9267.287815
1201.316036,-6356.899906,-6893.023995,12101.086569
1201.316336,-7965.272172,-8424.807105,12713.799813
1201.316647,-7658.915550,-8424.807105,13556.280523
1201.316945,-5437.830040,-4518.760174,14781.707011
1201.317242,612.713244,-2067.907198,11718.140791
1201.317540,5514.419196,1684.961421,7505.737239
1201.317837,11488.373325,3523.101153,7888.683016
1201.318135,12330.854035,3676.279464,6663.256528
1201.318432,10569.303459,5284.651729,8041.861327
1201.318729,1684.961421,5131.473418,10722.481770
1201.319039,-5437.830040,3063.566220,10722.481770
1201.319338,-12866.978124,2297.674665,14322.172078
1201.319637,-14475.350389,153.178311,14934.885322
1201.319937,-11718.140791,1225.426488,13862.637145
1201.320236,-4288.992708,2604.031287,13173.334746
1201.320536,3599.690308,4288.992708,10875.660081
1201.320835,10722.481770,5744.186662,9573.644437
1201.321134,13096.745590,3982.636086,8884.342038
1201.321442,10722.481770,1838.139732,5973.954129
1201.321740,4212.403552,-229.767466,8118.450483
1201.322038,-3523.101153,-2833.798753,9880.001059
1201.322336,-4288.992708,-3293.333686,8501.396260
1201.322634,-7965.272172,-3140.155375,10186.357681
1201.322932,-9726.822748,-4518.760174,13403.102212
1201.323230,-8731.163727,-2833.798753,11947.908258
1201.323528,-3523.101153,-1302.015643,13096.745590
1201.323844,153.178311,-1148.837332,12637.210657
1201.324142,4518.760174,-2527.442131,9726.822748
1201.324440,8348.217949,-382.945777,9803.411904
1201.324738,13403.102212,-0.000000,5361.240885
1201.325035,9114.109504,-536.124088,5208.062574
1201.325333,2527.442131,-4365.581863,9956.590215
1201.325631,-4135.814397,-5361.240885,9573.644437
1201.325928,-6663.256528,-2833.798753,12177.675724
1201.326243,-8271.628794,-4825.116796,12713.799813
1201.326541,-7199.380617,-1914.728887,12713.799813
1201.326840,-4288.992708,1684.961421,14475.350389
1201.327139,1225.426488,2757.209598,10875.660081
1201.327438,7046.202306,4442.171019,7658.915550
1201.327736,4059.225241,3063.566220,10416.125148
1201.328035,459.534933,-1455.193954,10416.125148
1201.328334,1378.604799,-1608.372265,8960.931193
1201.328622,3446.511997,-1302.015643,10416.125148
1201.328924,153.178311,-3906.046930,9037.520349
1201.329227,-3216.744531,-3446.511997,9114.109504
1201.329529,-4748.527641,-2067.907198,11794.729947
1201.329832,-4595.349330,-3293.333686,9420.466126
1201.330134,-8577.985416,-5361.240885,14015.815456
1201.330436,-5897.364973,-6280.310751,14245.582923
1201.330739,-76.589155,-4365.581863,10799.070925
1201.331038,5514.419196,-1761.550576,10722.481770
1201.331338,9650.233593,153.178311,6969.613150
1201.331637,7735.504705,1991.318043,6127.132440
1201.331936,5054.884263,3369.922842,9114.109504
1201.332235,3293.333686,3676.279464,8195.039638
1201.332535,-1302.015643,2450.852976,9726.822748
1201.332834,-6510.078217,1072.248177,13020.156435
1201.333133,-6510.078217,765.891555,11182.016703
1201.333440,-5744.186662,-0.000000,12254.264880
1201.333740,-6050.543284,-2833.798753,15547.598566
1201.334039,-3523.101153,-1455.193954,13862.637145
1201.334338,2833.798753,2910.387909,12101.086569
1201.334637,9803.411904,4748.527641,8501.396260
1201.334937,11182.016703,6050.543284,5973.954129
1201.335236,9267.287815,8195.039638,7429.148083
1201.335535,5208.062574,6356.899906,7122.791461
1201.335856,-1455.193954,4978.295107,8195.039638
1201.336153,-9037.520349,-76.589155,11641.551636
1201.336450,-13326.513057,-4059.225241,13326.513057
1201.336747,-13939.226301,-7046.202306,14628.528700
1201.337044,-10799.070925,-9343.876971,16083.722655
1201.337341,-1455.193954,-7505.737239,11718.140791
1201.337638,4365.581863,-4671.938485,10416.125148
1201.337935,10875.660081,-2221.085509,6280.310751
1201.338253,9803.411904,-2221.085509,6280.310751
1201.338551,6433.489062,-1455.193954,7812.093861
1201.338849,4212.403552,-2986.977064,7812.093861
1201.339148,-689.302399,-3446.511997,7735.504705
1201.339446,-3063.566220,-1608.372265,9880.001059
1201.339744,-8884.342038,-5973.954129,10875.660081
1201.340042,-11947.908258,-9343.876971,12866.978124
1201.340340,-10339.535992,-5973.954129,18228.219009
1201.340653,-3216.744531,-7812.093861,13786.047990
1201.340949,6280.310751,-3293.333686,10109.768526
1201.341245,14858.296167,3216.744531,9803.411904
1201.341541,17232.559987,6969.613150,5667.597507
1201.341837,14551.939545,8195.039638,6280.310751
1201.342133,5054.884263,6663.256528,8960.931193
1201.342430,-4135.814397,4135.814397,9650.233593
1201.342726,-12866.978124,-0.000000,13939.226301
1201.343025,-14628.528700,-3140.155375,13556.280523
1201.343326,-12101.086569,-3446.511997,13709.458834
1201.343627,-6050.543284,-76.589155,14781.707011
1201.343927,1991.318043,3063.566220,9573.644437
1201.344228,4059.225241,4288.992708,9956.590215
1201.344529,3446.511997,3369.922842,10569.303459
1201.344830,4671.938485,2450.852976,7429.148083
1201.345130,2144.496354,1531.783110,7429.148083
1201.345438,1225.426488,-2067.907198,9420.466126
1201.345734,-842.480710,-3293.333686,8271.628794
1201.346030,-689.302399,-2221.085509,9267.287815
1201.346326,-1761.550576,-4518.760174,9803.411904
1201.346622,-6356.899906,-5208.062574,10875.660081
1201.346918,-6969.613150,-4518.760174,14322.172078
1201.347214,-3063.566220,-5054.884263,11258.605858
1201.347511,-0.000000,-4901.705952,10875.660081
1201.347819,4212.403552,-2986.977064,11335.195014
1201.348118,7429.148083,459.534933,7888.683016
1201.348416,10875.660081,3982.636086,7582.326394
1201.348715,5973.954129,3829.457775,10262.946837
1201.349014,2527.442131,3369.922842,9650.233593
1201.349313,-2067.907198,4825.116796,10799.070925
1201.349612,-4135.814397,2910.387909,11335.195014
1201.349911,-6969.613150,-1302.015643,13020.156435
1201.350228,-8731.163727,-3140.155375,15394.420255
1201.350526,-3676.279464,-3599.690308,13556.280523
1201.350825,-995.659021,-5667.597507,9573.644437
1201.351123,1991.318043,-4671.938485,10109.768526
1201.351422,5054.884263,-5361.240885,9956.590215
1201.351720,5973.954129,-2833.798753,9114.109504
1201.352018,8807.752882,919.069866,9573.644437
1201.352317,5973.954129,1991.318043,6893.023995
1201.352634,2297.674665,2604.031287,6663.256528
1201.352932,-1761.550576,2450.852976,8960.931193
1201.353230,-8424.807105,-2221.085509,8960.931193
1201.353527,-10952.249236,-7812.093861,14934.885322
1201.353825,-10033.179370,-10339.535992,15853.955188
1201.354123,-3369.922842,-6280.310751,12101.086569
1201.354421,612.713244,-4825.116796,11488.373325
1201.354718,3906.046930,-2833.798753,9267.287815
1201.355018,3446.511997,-842.480710,8118.450483
1201.355318,4748.527641,1378.604799,9114.109504
1201.355618,4671.938485,3676.279464,9114.109504
1201.355919,1531.783110,5131.473418,9420.466126
1201.356219,459.534933,6203.721595,11182.016703
1201.356519,153.178311,7122.791461,8654.574571
1201.356819,-2067.907198,3063.566220,11641.551636
1201.357119,-4595.349330,-1914.728887,15394.420255
1201.357409,-3829.457775,-2067.907198,13096.745590
1201.357713,306.356622,-1455.193954,12943.567279
1201.358016,4365.581863,-689.302399,11028.838392
1201.358320,7275.969772,1991.318043,8118.450483
1201.358623,7122.791461,4595.349330,9114.109504
1201.358926,5208.062574,4825.116796,6280.310751
1201.359230,459.534933,2757.209598,9267.287815
1201.359533,-5591.008351,-842.480710,11641.551636
1201.359807,-3676.279464,-1148.837332,9803.411904
1201.360112,-2374.263820,-1914.728887,12177.675724
1201.360417,-3829.457775,-4671.938485,12101.086569
1201.360721,-5131.473418,-6893.023995,12101.086569
1201.361026,-4748.527641,-4825.116796,11411.784169
1201.361330,-3982.636086,-5361.240885,10416.125148
1201.361635,-2221.085509,-5054.884263,8960.931193
1201.361939,1225.426488,-2680.620442,10492.714303
1201.362223,4901.705952,-536.124088,8654.574571
1201.362526,6127.132440,153.178311,6969.613150
1201.362829,3906.046930,1684.961421,10109.768526
1201.363131,1378.604799,-382.945777,8960.931193
1201.363434,-3676.279464,-1761.550576,11641.551636
1201.363737,-4825.116796,-4212.403552,14475.350389
1201.364040,-2757.209598,-5054.884263,11335.195014
1201.364343,919.069866,-4825.116796,11564.962480
1201.364625,5667.597507,-1148.837332,9573.644437
1201.364921,7046.202306,1991.318043,6816.434839
1201.365217,2833.798753,2450.852976,10186.357681
1201.365513,1072.248177,2450.852976,10722.481770
1201.365810,-382.945777,2910.387909,10722.481770
1201.366106,-2067.907198,3982.636086,11564.962480
1201.366402,-2067.907198,3523.101153,9650.233593
1201.366698,-1761.550576,1684.961421,9956.590215
1201.367010,-1148.837332,-689.302399,11947.908258
1201.367309,-1914.728887,-2374.263820,10875.660081
1201.367607,-4442.171019,-4825.116796,11258.605858
1201.367906,-2221.085509,-4901.705952,12713.799813
1201.368205,1991.318043,-3293.333686,8654.574571
1201.368503,1838.139732,-842.480710,8654.574571
1201.368802,-76.589155,-536.124088,10416.125148
1201.369100,-1608.372265,3676.279464,10569.303459
1201.369365,-1455.193954,6203.721595,9956.590215
1201.369669,-3676.279464,4288.992708,10569.303459
1201.369973,-4288.992708,2757.209598,11947.908258
1201.370278,-1761.550576,765.891555,12713.799813
1201.370582,1991.318043,-995.659021,10722.481770
1201.370886,3140.155375,-689.302399,10952.249236
1201.371190,3752.868619,-1148.837332,11028.838392
1201.371494,3293.333686,-689.302399,7275.969772
1201.371801,3906.046930,-536.124088,9037.520349
1201.372101,1225.426488,-2067.907198,12101.086569
1201.372400,306.356622,-0.000000,11641.551636
1201.372700,306.356622,1225.426488,10109.768526
1201.373000,-382.945777,1838.139732,9650.233593
1201.373299,-5591.008351,-1302.015643,11335.195014
1201.373599,-6203.721595,-2374.263820,12866.978124
1201.373899,-2374.263820,-3752.868619,11335.195014
1201.374195,-76.589155,-7046.202306,9497.055282
1201.374498,4518.760174,-6739.845684,10569.303459
1201.374801,8501.396260,-5054.884263,7505.737239
1201.375104,5973.954129,-3906.046930,7735.504705
1201.375407,3752.868619,-3752.868619,11335.195014
1201.375710,-4135.814397,-4365.581863,9650.233593
1201.376012,-7505.737239,-1302.015643,10875.660081
1201.376315,-7965.272172,-1761.550576,11947.908258
1201.376610,-9497.055282,-1302.015643,11488.373325
1201.376910,-2757.209598,1225.426488,12101.086569
1201.377210,1072.248177,919.069866,8807.752882
1201.377510,3293.333686,1378.604799,9803.411904
1201.377811,3599.690308,306.356622,11794.729947
1201.378111,2527.442131,-382.945777,9880.001059
1201.378411,1684.961421,-382.945777,9803.411904
1201.378711,2297.674665,612.713244,10416.125148
1201.378999,-382.945777,1531.783110,8960.931193
1201.379300,-3063.566220,3216.744531,10952.249236
1201.379601,-1914.728887,4288.992708,12943.567279
1201.379902,-3523.101153,5131.473418,9880.001059
1201.380202,-382.945777,3216.744531,11258.605858
1201.380503,-1455.193954,-995.659021,12560.621502
1201.380804,153.178311,-1302.015643,11641.551636
1201.381105,3752.868619,-1914.728887,9267.287815
1201.381404,2680.620442,-2986.977064,7735.504705
1201.381704,2297.674665,-2221.085509,8960.931193
1201.382004,612.713244,-3293.333686,10952.249236
1201.382305,1072.248177,-4212.403552,9037.520349
1201.382605,2833.798753,-1608.372265,10262.946837
1201.382905,2680.620442,306.356622,11794.729947
1201.383205,306.356622,-689.302399,9650.233593
1201.383505,612.713244,1072.248177,10033.179370
1201.383812,-3369.922842,-1455.193954,11718.140791
1201.384109,-7812.093861,-4059.225241,12866.978124
1201.384407,-7122.791461,-4365.581863,12407.443191
1201.384704,-4135.814397,-1302.015643,10033.179370
1201.385001,2680.620442,765.891555,8654.574571
1201.385299,2144.496354,-1302.015643,10952.249236
1201.385596,2680.620442,1991.318043,9420.466126
1201.385894,919.069866,3369.922842,9573.644437
1201.386210,-1608.372265,2604.031287,10875.660081
1201.386507,-3216.744531,-1148.837332,10416.125148
1201.386804,-5897.364973,-3906.046930,14092.404612
1201.387101,-3216.744531,-4825.116796,13632.869679
1201.387398,1225.426488,-2527.442131,9114.109504
1201.387695,3906.046930,-4059.225241,9114.109504
1201.387992,3599.690308,-4518.760174,8884.342038
1201.388289,2374.263820,-2680.620442,7429.148083
1201.388608,919.069866,-3293.333686,8654.574571
1201.388906,-1148.837332,-4671.938485,9650.233593
1201.389204,-2374.263820,-2067.907198,10109.768526
1201.389502,-689.302399,-842.480710,9497.055282
1201.389800,1378.604799,-76.589155,8348.217949
1201.390098,-76.589155,-1608.372265,12484.032346
1201.390397,-1455.193954,-4365.581863,14475.350389
1201.390695,3140.155375,-2221.085509,10722.481770
1201.391008,4518.760174,-1608.372265,10799.070925
1201.391306,4365.581863,-842.480710,9420.466126
1201.391605,919.069866,3063.566220,7275.969772
1201.391903,-995.659021,3216.744531,9190.698660
1201.392202,-5591.008351,1072.248177,9650.233593
1201.392500,-7199.380617,2450.852976,11258.605858
1201.392799,-6969.613150,306.356622,13403.102212
1201.393097,-4135.814397,-1455.193954,12101.086569
1201.393397,2144.496354,1991.318043,12713.799813
1201.393696,4212.403552,4288.992708,13479.691368
1201.393995,5820.775818,5131.473418,9190.698660
1201.394295,3599.690308,4442.171019,9573.644437
1201.394594,919.069866,3829.457775,9956.590215
1201.394893,-2604.031287,765.891555,7275.969772
1201.395192,-5284.651729,-3599.690308,9573.644437
1201.395492,-5131.473418,-6280.310751,11182.016703
1201.395799,-1608.372265,-7046.202306,10262.946837
1201.396101,-0.000000,-5361.240885,10569.303459
1201.396404,1378.604799,-6433.489062,10109.768526
1201.396706,153.178311,-5973.954129,12560.621502
1201.397009,306.356622,-5514.419196,13479.691368
1201.397312,3752.868619,-1148.837332,10262.946837
1201.397614,4365.581863,612.713244,8501.396260
1201.397917,1991.318043,2297.674665,8041.861327
1201.398191,1991.318043,2910.387909,5973.954129
1201.398495,-3369.922842,-1761.550576,11335.195014
1201.398798,-5131.473418,-6893.023995,12943.567279
1201.399102,-6663.256528,-6433.489062,11641.551636
1201.399406,-2221.085509,-3752.868619,12484.032346
1201.399709,2833.798753,-2221.085509,9956.590215
1201.400013,2374.263820,612.713244,9956.590215
1201.400316,4212.403552,3523.101153,11105.427547
1201.400589,1072.248177,2757.209598,11488.373325
1201.400890,-842.480710,3523.101153,11258.605858
1201.401190,1378.604799,3369.922842,10722.481770
1201.401490,765.891555,2297.674665,9420.466126
1201.401790,306.356622,1684.961421,9267.287815
1201.402090,3140.155375,1072.248177,8731.163727
1201.402390,-536.124088,1991.318043,8195.039638
1201.402690,-6050.543284,-1914.728887,11258.605858
1201.403008,-6050.543284,-4212.403552,12713.799813
1201.403306,-6203.721595,-3752.868619,12330.854035
1201.403605,-3982.636086,-3446.511997,14475.350389
1201.403903,459.534933,-2833.798753,9726.822748
1201.404202,5361.240885,3523.101153,9650.233593
1201.404500,8654.574571,2604.031287,8041.861327
1201.404799,2297.674665,153.178311,9267.287815
1201.405098,1684.961421,3523.101153,9803.411904
1201.405374,1991.318043,2297.674665,8731.163727
1201.405674,-1608.372265,-1608.372265,9114.109504
1201.405974,-5437.830040,-2221.085509,11258.605858
1201.406274,-6816.434839,-689.302399,13096.745590
1201.406574,-6356.899906,-1302.015643,11105.427547
1201.406874,-3676.279464,-1302.015643,14322.172078
1201.407174,-689.302399,-2221.085509,13479.691368
1201.407474,4901.705952,1531.783110,10569.303459
1201.407805,9497.055282,2297.674665,9190.698660
1201.408102,9650.233593,3063.566220,7429.148083
1201.408398,6280.310751,2910.387909,9420.466126
1201.408695,3906.046930,1225.426488,8577.985416
1201.408992,-1608.372265,-2067.907198,7046.202306
1201.409289,-6816.434839,-5667.597507,11488.373325
1201.409586,-10952.249236,-9343.876971,13556.280523
1201.409883,-6203.721595,-6433.489062,10799.070925
1201.410191,-1608.372265,-4901.705952,12254.264880
1201.410491,-0.000000,-5054.884263,12560.621502
1201.410791,2527.442131,-2067.907198,9420.466126
1201.411091,6280.310751,2757.209598,8654.574571
1201.411390,3599.690308,-0.000000,7735.504705
1201.411690,-1914.728887,-3599.690308,10569.303459
1201.411990,-1608.372265,-2986.977064,10799.070925
1201.412290,1991.318043,-995.659021,6586.667373
1201.412578,-1914.728887,-2833.798753,9803.411904
1201.412881,-5744.186662,-3906.046930,12254.264880
1201.413183,-3676.279464,-1455.193954,9956.590215
1201.413486,-229.767466,306.356622,12254.264880
1201.413788,-1302.015643,-2680.620442,12713.799813
1201.414091,-1302.015643,-2067.907198,12560.621502
1201.414393,5514.419196,3829.457775,12177.675724
1201.414696,10875.660081,4978.295107,6127.132440
1201.415010,5054.884263,6356.899906,9114.109504
1201.415307,765.891555,4595.349330,11411.784169
1201.415604,-2450.852976,4288.992708,9803.411904
1201.415900,-1302.015643,3982.636086,9650.233593
1201.416197,-4442.171019,-995.659021,11258.605858
1201.416494,-8271.628794,-2374.263820,13556.280523
1201.416790,-3523.101153,-536.124088,10722.481770
1201.417087,-689.302399,-2374.263820,11641.551636
1201.417377,-2450.852976,-4059.225241,12713.799813
1201.417676,1378.604799,-3140.155375,12407.443191
1201.417975,8348.217949,1225.426488,8348.217949
1201.418274,14245.582923,4978.295107,4059.225241
1201.418574,9803.411904,2910.387909,8960.931193
1201.418873,306.356622,2297.674665,9114.109504
1201.419172,-4595.349330,2604.031287,8501.396260
1201.419471,-9497.055282,-1148.837332,11182.016703
1201.419785,-17309.149143,-7199.380617,13556.280523
1201.420084,-16160.311810,-9726.822748,17692.094920
1201.420382,-6663.256528,-5973.954129,14475.350389
1201.420681,4365.581863,-2221.085509,9420.466126
1201.420980,11028.838392,1072.248177,8807.752882
1201.421278,10262.946837,3369.922842,9114.109504
1201.421577,10722.481770,6663.256528,6280.310751
1201.421876,7046.202306,4135.814397,7199.380617
1201.422183,-3829.457775,-1761.550576,11028.838392
1201.422486,-6816.434839,-4059.225241,12024.497413
1201.422789,-4135.814397,-2527.442131,10262.946837
1201.423092,-1302.015643,-2221.085509,9267.287815
1201.423395,-3982.636086,-7046.202306,12330.854035
1201.423698,-6510.078217,-9190.698660,15930.544344
1201.424001,919.069866,-6127.132440,10339.535992
1201.424304,4748.527641,-4059.225241,9573.644437
1201.424587,2527.442131,-3906.046930,10109.768526
1201.424886,4059.225241,-536.124088,7888.683016
1201.425185,8654.574571,4978.295107,8348.217949
1201.425484,4059.225241,3829.457775,6127.132440
1201.425783,-3676.279464,919.069866,10262.946837
1201.426082,-10186.357681,-1608.372265,14628.528700
1201.426381,-4442.171019,-229.767466,10952.249236
1201.426680,-1608.372265,-1148.837332,10952.249236
1201.426975,-2221.085509,-2680.620442,12790.388968
1201.427276,-0.000000,306.356622,12790.388968
1201.427577,4212.403552,6050.543284,9803.411904
1201.427878,3446.511997,3676.279464,10262.946837
1201.428178,-2604.031287,2450.852976,10262.946837
1201.428479,-1148.837332,3369.922842,10186.357681
1201.428780,2374.263820,3523.101153,8041.861327
1201.429081,4518.760174,4595.349330,5973.954129
1201.429369,-689.302399,459.534933,12560.621502
1201.429670,-4135.814397,-1914.728887,12713.799813
1201.429971,-2604.031287,-536.124088,11794.729947
1201.430272,-5131.473418,-5054.884263,11335.195014
1201.430572,-5131.473418,-7046.202306,10416.125148
1201.430873,-1148.837332,-5820.775818,12407.443191
1201.431174,3599.690308,-3140.155375,10109.768526
1201.431475,7046.202306,-76.589155,7735.504705
1201.431761,9497.055282,3829.457775,7658.915550
1201.432060,5208.062574,1684.961421,8960.931193
1201.432359,306.356622,-76.589155,9190.698660
1201.432659,-2450.852976,-689.302399,9956.590215
1201.432958,-8271.628794,-4059.225241,12254.264880
1201.433257,-7658.915550,-4901.705952,12713.799813
1201.433557,-5897.364973,-5514.419196,14705.117856
1201.433856,153.178311,-3140.155375,11488.373325
1201.434163,6280.310751,-842.480710,8654.574571
1201.434464,8654.574571,-382.945777,8577.985416
1201.434764,8501.396260,-229.767466,7275.969772
1201.435065,4901.705952,-76.589155,9880.001059
1201.435365,153.178311,-1608.372265,11641.551636
1201.435665,-4135.814397,-0.000000,11335.195014
1201.435966,-6356.899906,1991.318043,10799.070925
1201.436266,-8884.342038,612.713244,10492.714303
1201.436563,-11411.784169,459.534933,11258.605858
1201.436861,-8577.985416,-3293.333686,12943.567279
1201.437159,-5591.008351,-7199.380617,12866.978124
1201.437457,1531.783110,-6739.845684,11335.195014
1201.437755,9650.233593,-4518.760174,8195.039638
1201.438053,9803.411904,-1302.015643,7735.504705
1201.438352,8501.396260,-76.589155,7735.504705
1201.438650,4365.581863,-536.124088,9726.822748
1201.438964,1072.248177,765.891555,8884.342038
1201.439263,-2067.907198,1991.318043,9803.411904
1201.439561,-4978.295107,2297.674665,12866.978124
1201.439860,-4978.295107,3829.457775,10722.481770
1201.440159,-2067.907198,2757.209598,11335.195014
1201.440458,-4288.992708,-689.302399,14168.993767
1201.440756,-995.659021,612.713244,11335.195014
1201.441055,1072.248177,-2986.977064,11258.605858
1201.441367,4365.581863,-995.659021,10033.179370
1201.441666,6893.023995,2910.387909,9114.109504
1201.441965,5054.884263,2910.387909,10262.946837
1201.442264,4365.581863,4825.116796,8041.861327
1201.442563,1378.604799,6510.078217,9650.233593
1201.442862,-4288.992708,4135.814397,11488.373325
1201.443161,-10186.357681,1072.248177,11335.195014
1201.443461,-8884.342038,-2374.263820,14322.172078
1201.443760,-5131.473418,-6739.845684,13173.334746
1201.444059,-2067.907198,-7199.380617,11564.962480
1201.444358,2527.442131,-5361.240885,8960.931193
1201.444658,6127.132440,-4518.760174,6816.434839
1201.444957,5667.597507,-1914.728887,8654.574571
1201.445256,4059.225241,-2527.442131,10416.125148
1201.445555,-76.589155,-995.659021,8960.931193
1201.445855,-1148.837332,-689.302399,8195.039638
1201.446162,-4825.116796,-2221.085509,11641.551636
1201.446461,-7199.380617,-3140.155375,11718.140791
1201.446760,-4288.992708,-229.767466,11258.605858
1201.447059,-2910.387909,-3293.333686,11718.140791
1201.447358,-76.589155,-4365.581863,10722.481770
1201.447658,7429.148083,-4212.403552,10416.125148
1201.447957,8348.217949,-2221.085509,7582.326394
1201.448256,9114.109504,1072.248177,8348.217949
1201.448577,6739.845684,919.069866,10186.357681
1201.448874,1225.426488,2757.209598,9573.644437
1201.449171,-2374.263820,5131.473418,9497.055282
1201.449468,-6663.256528,1225.426488,10109.768526
1201.449765,-11718.140791,-2067.907198,13096.745590
1201.450062,-6203.721595,-1914.728887,14015.815456
1201.450359,-3063.566220,-2833.798753,13709.458834
1201.450656,612.713244,-1148.837332,10416.125148
1201.450974,3906.046930,-76.589155,9956.590215
1201.451273,2986.977064,306.356622,9573.644437
1201.451571,4671.938485,2604.031287,7888.683016
1201.451869,2680.620442,2604.031287,9650.233593
1201.452167,612.713244,153.178311,10186.357681
1201.452466,1072.248177,1531.783110,10416.125148
1201.452764,1072.248177,1684.961421,9956.590215
1201.453062,-1148.837332,919.069866,9956.590215
1201.453375,-6816.434839,-229.767466,12713.799813
1201.453671,-8884.342038,-2067.907198,13709.458834
1201.453967,-7199.380617,-1455.193954,12024.497413
1201.454263,-2450.852976,-0.000000,10722.481770
1201.454559,2297.674665,-229.767466,11335.195014
1201.454855,5514.419196,2297.674665,7429.148083
1201.455151,11871.319102,3523.101153,6663.256528
1201.455447,9420.466126,1684.961421,9267.287815
1201.455747,3906.046930,1072.248177,9650.233593
1201.456048,-2374.263820,-3752.868619,11564.962480
1201.456348,-5284.651729,-5054.884263,10262.946837
1201.456649,-5897.364973,-4212.403552,13096.745590
1201.456950,-4442.171019,-5208.062574,12790.388968
1201.457250,-2221.085509,-1914.728887,10875.660081
1201.457551,2297.674665,-995.659021,9343.876971
1201.457852,5054.884263,-1914.728887,8424.807105
1201.458159,2833.798753,-2221.085509,7658.915550
1201.458456,5361.240885,-76.589155,9114.109504
1201.458753,1684.961421,-4059.225241,9803.411904
1201.459050,-1761.550576,-2986.977064,10569.303459
1201.459346,-2221.085509,-2680.620442,10262.946837
1201.459643,-76.589155,-3599.690308,7582.326394
1201.459940,-3829.457775,-4825.116796,10109.768526
1201.460237,-4825.116796,-5973.954129,14705.117856
1201.460551,-3829.457775,-4901.705952,13249.923901
1201.460854,1378.604799,-995.659021,9573.644437
1201.461156,3140.155375,306.356622,9267.287815
1201.461459,-0.000000,1684.961421,9420.466126
1201.461762,-0.000000,4825.116796,9880.001059
1201.462065,-2374.263820,4135.814397,10109.768526
1201.462368,-5897.364973,1684.961421,10033.179370
1201.462670,-6510.078217,-1608.372265,12330.854035
1201.462989,-4595.349330,-2527.442131,12254.264880
1201.463285,1838.139732,306.356622,10569.303459
1201.463581,3446.511997,765.891555,11028.838392
1201.463877,3140.155375,306.356622,11947.908258
1201.464173,4671.938485,612.713244,10569.303459
1201.464470,5361.240885,919.069866,10262.946837
1201.464766,4212.403552,612.713244,8807.752882
1201.465062,2986.977064,1225.426488,9573.644437
1201.465379,3752.868619,919.069866,8884.342038
1201.465674,2297.674665,153.178311,7275.969772
1201.465968,-2757.209598,-1914.728887,10722.481770
1201.466262,-5437.830040,-3752.868619,13326.513057
1201.466557,-5591.008351,-2680.620442,12713.799813
1201.466851,-536.124088,-1608.372265,12024.497413
1201.467146,1991.318043,-229.767466,11641.551636
1201.467440,3599.690308,3063.566220,10339.535992
1201.467740,2986.977064,2604.031287,9880.001059
1201.468040,1531.783110,3369.922842,8041.861327
1201.468339,-76.589155,3829.457775,9420.466126
1201.468639,-3829.457775,153.178311,10875.660081
1201.468938,-5591.008351,-2067.907198,10416.125148
1201.469238,-5897.364973,-1302.015643,12713.799813
1201.469538,-5437.830040,-3599.690308,10645.892614
1201.469837,-5437.830040,-4059.225241,11182.016703
1201.470127,-229.767466,-3293.333686,11794.729947
1201.470430,1684.961421,-4518.760174,10416.125148
1201.470733,919.069866,-5514.419196,9573.644437
1201.471035,2374.263820,-6586.667373,10569.303459
1201.471338,5514.419196,-4365.581863,8960.931193
1201.471640,8654.574571,-1608.372265,6969.613150
1201.471943,6127.132440,-689.302399,8807.752882
1201.472246,1378.604799,-995.659021,9420.466126
1201.472554,153.178311,153.178311,10033.179370
1201.472853,-2604.031287,-1148.837332,11028.838392
1201.473153,-6816.434839,-2680.620442,11488.373325
1201.473453,-6050.543284,-2374.263820,12790.388968
1201.473753,-4825.116796,-1914.728887,14322.172078
1201.474053,1531.783110,1991.318043,10416.125148
1201.474353,5820.775818,4442.171019,10109.768526
1201.474652,4365.581863,3982.636086,9650.233593
1201.474936,5208.062574,4978.295107,8960.931193
1201.475239,2297.674665,4825.116796,10569.303459
1201.475542,-1455.193954,4978.295107,9803.411904
1201.475844,-4288.992708,3523.101153,10722.481770
1201.476147,-6356.899906,1225.426488,11871.319102
1201.476450,-5437.830040,306.356622,12101.086569
1201.476753,-1761.550576,-1148.837332,12024.497413
1201.477056,-842.480710,-4671.938485,12101.086569
1201.477338,4748.527641,-4212.403552,10109.768526
1201.477641,7275.969772,-1148.837332,10416.125148
1201.477943,8041.861327,1991.318043,8041.861327
1201.478246,5514.419196,2757.209598,6433.489062
1201.478549,-995.659021,1072.248177,9956.590215
1201.478851,-5591.008351,153.178311,11182.016703
1201.479154,-8731.163727,-76.589155,9573.644437
1201.479457,-10033.179370,-3599.690308,11718.140791
1201.479688,-8731.163727,-7046.202306,12637.210657
1201.479996,-4825.116796,-6586.667373,13403.102212
1201.480303,3599.690308,-3446.511997,12713.799813
1201.480611,8501.396260,-229.767466,9190.698660
1201.480918,9420.466126,2604.031287,10109.768526
1201.481226,7429.148083,1838.139732,9267.287815
1201.481533,4901.705952,3523.101153,6893.023995
1201.481840,2680.620442,1684.961421,8501.396260
1201.482126,-3523.101153,-1148.837332,11028.838392
1201.482428,-6203.721595,-4365.581863,10569.303459
1201.482730,-7122.791461,-5361.240885,12407.443191
1201.483032,-5284.651729,-8424.807105,12101.086569
1201.483334,-2221.085509,-7965.272172,11488.373325
1201.483635,765.891555,-7199.380617,13326.513057
1201.483937,3599.690308,-3446.511997,10262.946837
1201.484239,5514.419196,306.356622,9956.590215
1201.484546,6280.310751,2450.852976,9114.109504
1201.484846,2986.977064,3676.279464,6816.434839
1201.485146,2527.442131,3523.101153,8731.163727
1201.485445,-2450.852976,612.713244,9497.055282
1201.485745,-3982.636086,306.356622,10109.768526
1201.486045,-7122.791461,-1914.728887,12943.567279
1201.486345,-9880.001059,-3599.690308,12560.621502
1201.486645,-8424.807105,-1914.728887,12560.621502
1201.486941,-4288.992708,-689.302399,13403.102212
1201.487240,459.534933,765.891555,12101.086569
1201.487539,6280.310751,5131.473418,9573.644437
1201.487838,11182.016703,5284.651729,8731.163727
1201.488137,10109.768526,5131.473418,7429.148083
1201.488435,7582.326394,4748.527641,9190.698660
1201.488734,1684.961421,2450.852976,9037.520349
1201.489033,-2604.031287,1991.318043,7429.148083
1201.489328,-10492.714303,-536.124088,12101.086569
1201.489628,-14934.885322,-4671.938485,14015.815456
1201.489928,-10645.892614,-4365.581863,13786.047990
1201.490228,-3982.636086,-1455.193954,13096.745590
1201.490528,4518.760174,-1148.837332,11182.016703
1201.490829,9267.287815,-0.000000,11028.838392
1201.491129,14168.993767,4288.992708,6356.899906
1201.491429,13556.280523,4288.992708,5284.651729
1201.491717,3293.333686,1072.248177,8041.861327
1201.492018,-1608.372265,-2374.263820,10569.303459
1201.492319,-6510.078217,-2527.442131,11182.016703
1201.492619,-8577.985416,-1914.728887,10875.660081
1201.492920,-10186.357681,-4671.938485,13862.637145
1201.493221,-7965.272172,-3752.868619,12101.086569
1201.493522,-842.480710,-2986.977064,13020.156435
1201.493822,4059.225241,-2067.907198,11335.195014
1201.494131,6893.023995,-995.659021,10722.481770
1201.494431,8041.861327,-229.767466,9880.001059
1201.494730,6893.023995,-382.945777,6663.256528
1201.495029,3293.333686,612.713244,7275.969772
1201.495329,-0.000000,-536.124088,7275.969772
1201.495628,-8424.807105,-5054.884263,11028.838392
1201.495928,-10186.357681,-6280.310751,13249.923901
1201.496227,-9573.644437,-5361.240885,12713.799813
1201.496499,-6816.434839,-3752.868619,10109.768526
1201.496802,-4135.814397,-5820.775818,12101.086569
1201.497105,-1148.837332,-6893.023995,14781.707011
1201.497408,5973.954129,-536.124088,9037.520349
1201.497712,10875.660081,1991.318043,6816.434839
1201.498015,8807.752882,1072.248177,7735.504705
1201.498318,6739.845684,2910.387909,9880.001059
1201.498621,7888.683016,5131.473418,9880.001059
1201.498937,3140.155375,5131.473418,7505.737239
1201.499236,-4288.992708,4748.527641,12560.621502
1201.499534,-6969.613150,3676.279464,13096.745590
1201.499833,-7352.558928,4135.814397,10569.303459
1201.500131,-7122.791461,2297.674665,13249.923901
1201.500429,-10033.179370,-2527.442131,16313.490121
1201.500728,-3523.101153,-1914.728887,12637.210657
1201.501026,4671.938485,1072.248177,10109.768526
1201.501341,8195.039638,1991.318043,8960.931193
1201.501639,9803.411904,5131.473418,7658.915550
1201.501938,10109.768526,6356.899906,6969.613150
1201.502237,7429.148083,4825.116796,6816.434839
1201.502536,-536.124088,2144.496354,10339.535992
1201.502834,-7965.272172,-1455.193954,10875.660081
1201.503133,-11947.908258,-4365.581863,10875.660081
1201.503432,-13020.156435,-8577.985416,13556.280523
1201.503720,-11718.140791,-11871.319102,15088.063633
1201.504020,-5284.651729,-9190.698660,13479.691368
1201.504320,5054.884263,-2986.977064,9420.466126
1201.504620,11028.838392,-1455.193954,7046.202306
1201.504920,10722.481770,2910.387909,7582.326394
1201.505220,9803.411904,5744.186662,8731.163727
1201.505520,5361.240885,4825.116796,7352.558928
1201.505820,-76.589155,4748.527641,8807.752882
1201.506119,-8118.450483,-76.589155,11488.373325
1201.506418,-12560.621502,-6127.132440,12560.621502
1201.506717,-10645.892614,-6739.845684,14168.993767
1201.507017,-3982.636086,-8577.985416,11564.962480
1201.507316,-2757.209598,-10952.249236,13862.637145
1201.507615,2374.263820,-7658.915550,13556.280523
1201.507914,11028.838392,-842.480710,8654.574571
1201.508213,14168.993767,3676.279464,3982.636086
1201.508554,12024.497413,4442.171019,5820.775818
1201.508849,5361.240885,153.178311,10109.768526
1201.509143,2297.674665,1838.139732,8348.217949
1201.509438,-1455.193954,459.534933,7965.272172
1201.509732,-10339.535992,-4518.760174,12177.675724
1201.510026,-15700.776877,-7199.380617,16543.257588
1201.510321,-9343.876971,-4518.760174,14245.582923
1201.510615,-3523.101153,-382.945777,10109.768526
1201.510919,-1608.372265,919.069866,12407.443191
1201.511219,2986.977064,2297.674665,12560.621502
1201.511520,7122.791461,8041.861327,6969.613150
1201.511820,12330.854035,10569.303459,6816.434839
1201.512120,4748.527641,4748.527641,9343.876971
1201.512421,-3063.566220,1225.426488,9650.233593
1201.512721,-4825.116796,765.891555,11564.962480
1201.513021,-9497.055282,-2986.977064,11028.838392
1201.513340,-10492.714303,-3906.046930,13096.745590
1201.513638,-6510.078217,-5820.775818,14551.939545
1201.513937,459.534933,-3599.690308,10339.535992
1201.514235,7429.148083,-1455.193954,9956.590215
1201.514533,8807.752882,306.356622,9726.822748
1201.514831,9497.055282,306.356622,7965.272172
1201.515129,9650.233593,3369.922842,7888.683016
1201.515428,8041.861327,2910.387909,6893.023995
1201.515741,-1302.015643,612.713244,9267.287815
1201.516036,-7199.380617,-536.124088,12713.799813
1201.516331,-9880.001059,-2067.907198,11258.605858
1201.516626,-9573.644437,-2067.907198,10952.249236
1201.516922,-10033.179370,-6280.310751,14168.993767
1201.517217,-6969.613150,-7199.380617,13556.280523
1201.517512,2297.674665,-2986.977064,11335.195014
1201.517807,10416.125148,459.534933,9037.520349
1201.518107,13096.745590,3216.744531,5591.008351
1201.518408,12943.567279,3369.922842,7199.380617
1201.518709,8807.752882,2604.031287,7199.380617
1201.519009,-76.589155,306.356622,9267.287815
1201.519310,-7122.791461,-689.302399,10875.660081
1201.519611,-11564.962480,-4212.403552,13173.334746
1201.519912,-12407.443191,-5208.062574,12943.567279
1201.520212,-8731.163727,-6280.310751,13862.637145
1201.520553,-7199.380617,-8577.985416,13096.745590
1201.520845,-842.480710,-4825.116796,12101.086569
1201.521138,5973.954129,-1455.193954,10722.481770
1201.521430,9650.233593,459.534933,5591.008351
1201.521722,7275.969772,3216.744531,7582.326394
1201.522014,4059.225241,4595.349330,10722.481770
1201.522306,1378.604799,5437.830040,9190.698660
1201.522598,306.356622,7429.148083,9497.055282
1201.522906,-3829.457775,2910.387909,11335.195014
1201.523205,-6816.434839,-536.124088,13249.923901
1201.523504,-4135.814397,765.891555,12943.567279
1201.523803,459.534933,-842.480710,10645.892614
1201.524102,306.356622,-1761.550576,11105.427547
1201.524401,306.356622,-3446.511997,11564.962480
1201.524700,2527.442131,-1455.193954,9573.644437
1201.524999,5667.597507,1684.961421,8348.217949
1201.525315,5514.419196,3982.636086,8807.752882
1201.525615,2833.798753,3829.457775,8195.039638
1201.525914,1531.783110,4978.295107,9803.411904
1201.526213,1531.783110,3523.101153,9114.109504
1201.526512,-5437.830040,-382.945777,10952.249236
1201.526811,-9497.055282,-5054.884263,12713.799813
1201.527111,-8577.985416,-8424.807105,13326.513057
1201.527410,-4595.349330,-6127.132440,13096.745590
1201.527727,-229.767466,-5667.597507,10262.946837
1201.528025,1684.961421,-4212.403552,9573.644437
1201.528323,4748.527641,612.713244,8577.985416
1201.528620,7735.504705,3063.566220,9114.109504
1201.528918,5208.062574,3676.279464,8731.163727
1201.529216,1531.783110,4978.295107,8501.396260
1201.529514,-3216.744531,1684.961421,11794.729947
1201.529812,-7505.737239,-2221.085509,11794.729947
1201.530088,-6356.899906,-2680.620442,12943.567279
1201.530388,-2067.907198,-3446.511997,11488.373325
1201.530688,765.891555,-4518.760174,8654.574571
1201.530988,-76.589155,-8424.807105,12790.388968
1201.531288,612.713244,-7505.737239,12943.567279
1201.531588,5054.884263,-1148.837332,8807.752882
1201.531888,6893.023995,2604.031287,8501.396260
1201.532188,4212.403552,1378.604799,8654.574571
1201.532502,153.178311,2604.031287,10033.179370
1201.532801,-536.124088,3829.457775,9573.644437
1201.533100,-5284.651729,765.891555,8807.752882
1201.533398,-8884.342038,-4365.581863,13096.745590
1201.533697,-8884.342038,-6586.667373,15930.544344
1201.533996,-4748.527641,-4901.705952,11641.551636
1201.534295,306.356622,-1302.015643,10262.946837
1201.534593,4518.760174,1378.604799,9267.287815
1201.534901,6127.132440,3982.636086,8807.752882
1201.535200,9267.287815,7429.148083,8960.931193
1201.535500,9420.466126,8195.039638,6356.899906
1201.535800,4365.581863,6050.543284,8731.163727
1201.536100,-2221.085509,1684.961421,10492.714303
1201.536399,-7812.093861,-1148.837332,12484.032346
1201.536699,-10952.249236,-4365.581863,13326.513057
1201.536999,-9726.822748,-5820.775818,13479.691368
1201.537296,-8118.450483,-6586.667373,12943.567279
1201.537596,-2221.085509,-4518.760174,11718.140791
1201.537896,5973.954129,-2067.907198,9573.644437
1201.538197,5973.954129,459.534933,6356.899906
1201.538497,7735.504705,765.891555,8501.396260
1201.538797,3752.868619,-382.945777,9803.411904
1201.539098,-1148.837332,459.534933,10033.179370
1201.539398,-2450.852976,-76.589155,11335.195014
1201.539693,-5591.008351,-1761.550576,9956.590215
1201.539994,-4442.171019,-2527.442131,13326.513057
1201.540295,-1761.550576,-3752.868619,12713.799813
1201.540595,1684.961421,-2067.907198,10186.357681
1201.540896,4212.403552,-1148.837332,9267.287815
1201.541197,8195.039638,-1761.550576,9267.287815
1201.541498,4212.403552,-3140.155375,9573.644437
1201.541799,5514.419196,-536.124088,8041.861327
1201.542087,612.713244,-2527.442131,9573.644437
1201.542388,-3216.744531,-2067.907198,10875.660081
1201.542689,-5437.830040,-3446.511997,11335.195014
1201.542989,-4748.527641,-1608.372265,10875.660081
1201.543290,-5284.651729,-229.767466,11182.016703
1201.543591,-4748.527641,-2680.620442,13403.102212
1201.543892,-4288.992708,-3293.333686,12560.621502
1201.544192,-995.659021,153.178311,11182.016703
1201.544478,2374.263820,919.069866,9114.109504
1201.544781,1684.961421,-842.480710,6816.434839
1201.545084,3906.046930,-0.000000,9803.411904
1201.545386,3599.690308,306.356622,10416.125148
1201.545689,-0.000000,-995.659021,9343.876971
1201.545992,1225.426488,1378.604799,11258.605858
1201.546295,306.356622,1991.318043,10875.660081
1201.546597,-1302.015643,2450.852976,11105.427547
1201.546904,-2067.907198,3676.279464,11641.551636
1201.547204,-3523.101153,612.713244,11641.551636
1201.547504,-382.945777,-536.124088,12024.497413
1201.547803,3293.333686,-1148.837332,9650.233593
1201.548103,3752.868619,-1914.728887,8118.450483
1201.548403,3599.690308,-3752.868619,10109.768526
1201.548702,2297.674665,-2527.442131,10799.070925
1201.549002,306.356622,-0.000000,9803.411904
1201.549264,-536.124088,2297.674665,10186.357681
1201.549566,-3676.279464,306.356622,10722.481770
1201.549869,-5897.364973,306.356622,11182.016703
1201.550171,-3369.922842,-536.124088,12713.799813
1201.550473,-3829.457775,-3446.511997,12101.086569
1201.550776,-536.124088,-2221.085509,11488.373325
1201.551078,2680.620442,-3752.868619,10722.481770
1201.551380,4748.527641,-2221.085509,6663.256528
1201.551695,8041.861327,2450.852976,7965.272172
1201.551993,4901.705952,1684.961421,8348.217949
1201.552292,919.069866,-0.000000,8577.985416
1201.552591,-689.302399,2144.496354,10875.660081
1201.552890,-2450.852976,-536.124088,10186.357681
1201.553188,-8577.985416,-3599.690308,12101.086569
1201.553487,-8271.628794,-6280.310751,14628.528700
1201.553786,-3982.636086,-5820.775818,12330.854035
1201.554074,-1455.193954,-4365.581863,9726.822748
1201.554374,3906.046930,-2374.263820,8501.396260
1201.554674,765.891555,-2680.620442,9650.233593
1201.554974,1378.604799,459.534933,9267.287815
1201.555274,-229.767466,1072.248177,10186.357681
1201.555574,-229.767466,1684.961421,8960.931193
1201.555874,306.356622,1838.139732,10109.768526
1201.556174,-536.124088,-1302.015643,11028.838392
1201.556473,153.178311,-229.767466,10569.303459
1201.556773,153.178311,-1455.193954,11335.195014
1201.557073,-1302.015643,-3293.333686,15547.598566
1201.557373,-842.480710,-2067.907198,12254.264880
1201.557673,3446.511997,1531.783110,10569.303459
1201.557974,3140.155375,3829.457775,8348.217949
1201.558274,2986.977064,5437.830040,7582.326394
1201.558574,1991.318043,4595.349330,9573.644437
1201.558881,-1914.728887,2450.852976,9880.001059
1201.559182,-995.659021,1531.783110,11182.016703
1201.559484,-1302.015643,-3140.155375,10109.768526
1201.559785,-229.767466,-3752.868619,9420.466126
1201.560087,-842.480710,-5514.419196,13556.280523
1201.560388,-3063.566220,-4901.705952,14781.707011
1201.560690,-1914.728887,-2374.263820,11641.551636
1201.560991,1531.783110,2297.674665,9956.590215
1201.561307,3140.155375,3523.101153,7735.504705
1201.561606,2144.496354,4825.116796,8195.039638
1201.561904,459.534933,1531.783110,9420.466126
1201.562203,-76.589155,153.178311,8807.752882
1201.562501,-2604.031287,-2221.085509,10109.768526
1201.562800,-2604.031287,-5667.597507,12254.264880
1201.563098,-4978.295107,-7046.202306,11641.551636
1201.563396,-3523.101153,-4825.116796,12943.567279
1201.563665,-842.480710,-4365.581863,11947.908258
1201.563967,-1761.550576,-1608.372265,11564.962480
1201.564268,4748.527641,2144.496354,10262.946837
1201.564569,6893.023995,3982.636086,6433.489062
1201.564871,6739.845684,3982.636086,8195.039638
1201.565172,4901.705952,1838.139732,8041.861327
1201.565474,2374.263820,-536.124088,8960.931193
1201.565775,-2374.263820,-6280.310751,9573.644437
1201.566088,-5131.473418,-9343.876971,11718.140791
1201.566387,-10492.714303,-10186.357681,14475.350389
1201.566685,-5591.008351,-6739.845684,12790.388968
1201.566984,-536.124088,-2067.907198,13096.745590
1201.567282,3446.511997,2757.209598,10033.179370
1201.567581,7122.791461,5591.008351,9726.822748
1201.567879,7046.202306,8195.039638,10569.303459
1201.568177,8501.396260,9803.411904,4748.527641
1201.568477,4212.403552,6663.256528,7046.202306
1201.568777,-5284.651729,-76.589155,11182.016703
1201.569077,-10645.892614,-3906.046930,14322.172078
1201.569377,-9343.876971,-3446.511997,12713.799813
1201.569678,-8271.628794,-5514.419196,11028.838392
1201.569978,-6816.434839,-6586.667373,14628.528700
1201.570278,-842.480710,-4671.938485,13632.869679
1201.570578,8501.396260,1684.961421,8041.861327
1201.570885,12943.567279,4978.295107,8807.752882
1201.571182,10109.768526,3369.922842,7735.504705
1201.571479,6893.023995,3216.744531,5591.008351
1201.571776,1225.426488,2297.674665,10416.125148
1201.572073,-5437.830040,-1761.550576,11182.016703
1201.572369,-9343.876971,-4059.225241,11488.373325
1201.572666,-11718.140791,-3752.868619,13096.745590
1201.572963,-9573.644437,-4212.403552,12560.621502
1201.573277,-6969.613150,-2067.907198,14168.993767
1201.573578,1378.604799,1531.783110,11718.140791
1201.573878,5361.240885,1991.318043,9497.055282
1201.574178,8654.574571,1531.783110,9267.287815
1201.574479,12330.854035,2757.209598,8118.450483
1201.574779,10722.481770,2144.496354,6356.899906
1201.575079,7888.683016,-229.767466,6433.489062
1201.575380,-689.302399,-3906.046930,9573.644437
1201.575698,-6816.434839,-4671.938485,10645.892614
1201.575994,-8424.807105,-6127.132440,10875.660081
1201.576289,-11411.784169,-7965.272172,13403.102212
1201.576584,-9497.055282,-5820.775818,13096.745590
1201.576879,-4825.116796,-6433.489062,13096.745590
1201.577174,765.891555,-3446.511997,11718.140791
1201.577469,7735.504705,459.534933,9114.109504
1201.577765,9497.055282,1684.961421,7582.326394
1201.578082,5361.240885,1225.426488,7735.504705
1201.578381,4059.225241,2604.031287,10722.481770
1201.578679,2297.674665,2604.031287,10569.303459
1201.578978,-1761.550576,3982.636086,8424.807105
1201.579276,-5131.473418,765.891555,10109.768526
1201.579575,-10492.714303,-3752.868619,13556.280523
1201.579874,-8731.163727,-3752.868619,12407.443191
1201.580172,-4825.116796,-4671.938485,12407.443191
1201.580472,-3676.279464,-7812.093861,13249.923901
1201.580772,919.069866,-5514.419196,13556.280523
1201.581072,8960.931193,-382.945777,9650.233593
1201.581372,10569.303459,4748.527641,5744.186662
1201.581672,10109.768526,5897.364973,8654.574571
1201.581972,6433.489062,5437.830040,9114.109504
1201.582272,2986.977064,8041.861327,7888.683016
1201.582572,-1148.837332,4288.992708,10416.125148
1201.582879,-6816.434839,-1148.837332,12484.032346
1201.583180,-8884.342038,-4518.760174,11718.140791
1201.583480,-9726.822748,-6433.489062,15088.063633
1201.583780,-10033.179370,-8271.628794,15241.241944
1201.584080,-4595.349330,-2833.798753,12790.388968
1201.584381,8501.396260,3676.279464,8348.217949
1201.584681,12484.032346,7429.148083,6586.667373
1201.584981,14858.296167,9420.466126,5667.597507
1201.585255,12330.854035,9114.109504,6816.434839
1201.585557,3446.511997,4595.349330,7735.504705
1201.585858,-3676.279464,1072.248177,9650.233593
1201.586159,-12866.978124,-7199.380617,13403.102212
1201.586461,-16619.846743,-12024.497413,13173.334746
1201.586762,-12866.978124,-13556.280523,15164.652789
1201.587063,-6816.434839,-11411.784169,13479.691368
1201.587364,2833.798753,-7199.380617,10799.070925
1201.587681,8501.396260,-2374.263820,9803.411904
1201.587982,11871.319102,3063.566220,7582.326394
1201.588282,12177.675724,8348.217949,6510.078217
1201.588583,8195.039638,7275.969772,6203.721595
1201.588884,1531.783110,4748.527641,8960.931193
1201.589184,-3523.101153,2297.674665,10109.768526
1201.589485,-8424.807105,-3906.046930,11335.195014
1201.589786,-13479.691368,-8577.985416,14628.528700
1201.590033,-11411.784169,-11564.962480,16773.025054
1201.590340,-6203.721595,-9497.055282,13556.280523
1201.590648,2374.263820,-4825.116796,10262.946837
1201.590956,8960.931193,-1148.837332,9880.001059
1201.591263,8960.931193,1072.248177,8807.752882
1201.591571,11871.319102,8195.039638,8195.039638
1201.591879,11335.195014,8195.039638,4978.295107
1201.592186,1531.783110,3829.457775,7275.969772
1201.592476,-6356.899906,-382.945777,13862.637145
1201.592772,-10033.179370,-2527.442131,12330.854035
1201.593068,-6969.613150,-536.124088,11258.605858
1201.593363,-7352.558928,-4518.760174,12943.567279
1201.593659,-6816.434839,-6739.845684,15241.241944
1201.593955,2297.674665,765.891555,12484.032346
1201.594251,8807.752882,6203.721595,8960.931193
1201.594547,9420.466126,5284.651729,5973.954129
1201.594856,6893.023995,5897.364973,8807.752882
1201.595154,3752.868619,5744.186662,8960.931193
1201.595453,-76.589155,1991.318043,8884.342038
1201.595751,-6356.899906,1378.604799,11028.838392
1201.596050,-9037.520349,-1302.015643,11335.195014
1201.596348,-11258.605858,-3293.333686,13862.637145
1201.596647,-5744.186662,-2680.620442,12330.854035
1201.596945,-4288.992708,-4825.116796,12560.621502
1201.597252,-842.480710,-5361.240885,12943.567279
1201.597553,5514.419196,-3446.511997,11028.838392
1201.597853,10875.660081,306.356622,7735.504705
1201.598154,12790.388968,1991.318043,5820.775818
1201.598455,9803.411904,1225.426488,7888.683016
1201.598755,2680.620442,-995.659021,9956.590215
1201.599056,-76.589155,1378.604799,9420.466126
1201.599356,-4135.814397,-689.302399,10569.303459
1201.599653,-12407.443191,-5820.775818,11794.729947
1201.599952,-9190.698660,-4671.938485,13709.458834
1201.600252,-7965.272172,-4518.760174,13939.226301
1201.600551,-2450.852976,-3293.333686,11335.195014
1201.600851,2680.620442,-2680.620442,10722.481770
1201.601150,5514.419196,-842.480710,8654.574571
1201.601450,11871.319102,2297.674665,6510.078217
1201.601749,9267.287815,-229.767466,8041.861327
1201.602044,3599.690308,-1914.728887,9420.466126
1201.602344,459.534933,1072.248177,9803.411904
1201.602644,-3216.744531,459.534933,10109.768526
1201.602945,-10186.357681,-4059.225241,11258.605858
1201.603245,-11258.605858,-4901.705952,13862.637145
1201.603545,-8731.163727,-4212.403552,12407.443191
1201.603845,-4978.295107,-5514.419196,10722.481770
1201.604145,-76.589155,-5208.062574,13403.102212
1201.604457,2297.674665,-2680.620442,10416.125148
1201.604754,11028.838392,5437.830040,8424.807105
1201.605052,11794.729947,7429.148083,6050.543284
1201.605349,8501.396260,6816.434839,8118.450483
1201.605647,1991.318043,6356.899906,12024.497413
1201.605944,-3523.101153,7122.791461,11947.908258
1201.606242,-6356.899906,4288.992708,9956.590215
1201.606539,-7122.791461,3369.922842,9880.001059
1201.606839,-10645.892614,-3293.333686,13479.691368
1201.607139,-11564.962480,-9726.822748,15164.652789
1201.607439,-3982.636086,-7658.915550,14092.404612
1201.607739,6433.489062,-4212.403552,9573.644437
1201.608039,10722.481770,-995.659021,7812.093861
1201.608339,13096.745590,1378.604799,7582.326394
1201.608639,8960.931193,3523.101153,9114.109504
1201.608939,5820.775818,5284.651729,8960.931193
1201.609246,-995.659021,5897.364973,9267.287815
1201.609545,-6816.434839,1072.248177,9267.287815
1201.609844,-11105.427547,-2833.798753,12943.567279
1201.610142,-10645.892614,-4059.225241,14322.172078
1201.610441,-4825.116796,-5054.884263,11028.838392
1201.610740,-1914.728887,-5054.884263,13096.745590
1201.611039,1684.961421,-4365.581863,10875.660081
1201.611338,4671.938485,-1302.015643,8577.985416
1201.611654,9803.411904,2910.387909,8041.861327
1201.611952,8501.396260,1838.139732,6510.078217
1201.612250,5054.884263,153.178311,7429.148083
1201.612547,2986.977064,-689.302399,9037.520349
1201.612845,-3982.636086,-6127.132440,11718.140791
1201.613143,-9343.876971,-7658.915550,13326.513057
1201.613441,-10799.070925,-9037.520349,14015.815456
1201.613738,-9190.698660,-7812.093861,11641.551636
1201.614053,-5437.830040,-5208.062574,13403.102212
1201.614352,-1761.550576,-229.767466,11028.838392
1201.614652,4901.705952,5131.473418,7122.791461
1201.614951,9420.466126,8195.039638,7888.683016
1201.615251,10722.481770,6510.078217,7275.969772
1201.615551,5361.240885,4748.527641,9650.233593
1201.615850,2986.977064,4442.171019,11182.016703
1201.616150,-382.945777,-842.480710,9956.590215
1201.616438,-5897.364973,-2833.798753,11794.729947
1201.616738,-7352.558928,-5514.419196,13326.513057
1201.617038,-8884.342038,-7505.737239,12943.567279
1201.617338,-2450.852976,-3906.046930,12790.388968
1201.617638,1991.318043,-382.945777,11488.373325
1201.617937,2680.620442,612.713244,9114.109504
1201.618237,6280.310751,6663.256528,8195.039638
1201.618537,8501.396260,5897.364973,5131.473418
1201.618837,3140.155375,919.069866,9114.109504
1201.619136,-382.945777,1531.783110,11488.373325
1201.619435,-3523.101153,-536.124088,11488.373325
1201.619735,-4595.349330,-1455.193954,12254.264880
1201.620034,-6816.434839,-3599.690308,13096.745590
1201.620333,-7505.737239,-5208.062574,14322.172078
1201.620632,-2221.085509,-689.302399,12177.675724
1201.620931,3752.868619,1225.426488,8654.574571
1201.621239,3752.868619,3063.566220,8041.861327
1201.621539,2833.798753,2757.209598,9037.520349
1201.621839,765.891555,-1761.550576,9343.876971
1201.622139,-229.767466,-3752.868619,9573.644437
1201.622439,1225.426488,-3140.155375,9956.590215
1201.622739,-1302.015643,-3752.868619,10416.125148
1201.623039,-3216.744531,-5667.597507,10569.303459
1201.623339,-1761.550576,-4518.760174,12101.086569
1201.623642,-536.124088,-3140.155375,12790.388968
1201.623943,1991.318043,-689.302399,10722.481770
1201.624243,4671.938485,2910.387909,9267.287815
1201.624543,3446.511997,2450.852976,9190.698660
1201.624844,4212.403552,4825.116796,8577.985416
1201.625144,5208.062574,3523.101153,7352.558928
1201.625444,4901.705952,3216.744531,7122.791461
1201.625745,-2910.387909,-1761.550576,10722.481770
1201.626063,-9573.644437,-7812.093861,14628.528700
1201.626362,-9190.698660,-6893.023995,13249.923901
1201.626660,-4825.116796,-4518.760174,13632.869679
1201.626958,-2067.907198,-5054.884263,10875.660081
1201.627256,-2604.031287,-4825.116796,12560.621502
1201.627554,2986.977064,1684.961421,11335.195014
1201.627853,7122.791461,4978.295107,7275.969772
1201.628151,5973.954129,7275.969772,6280.310751
1201.628464,2144.496354,1225.426488,8577.985416
1201.628759,-5897.364973,-2374.263820,12407.443191
1201.629054,-1914.728887,-1148.837332,12177.675724
1201.629349,-2067.907198,-2221.085509,10645.892614
1201.629645,-2374.263820,-3599.690308,10033.179370
1201.629940,-2910.387909,-2374.263820,12790.388968
1201.630235,-842.480710,-1302.015643,12560.621502
1201.630530,3906.046930,1072.248177,10569.303459
1201.630795,4901.705952,3216.744531,10645.892614
1201.631101,6739.845684,4288.992708,6663.256528
1201.631407,3446.511997,3982.636086,9267.287815
1201.631713,306.356622,3216.744531,10645.892614
1201.632018,-3676.279464,153.178311,10416.125148
1201.632324,-5437.830040,-1761.550576,10416.125148
1201.632630,-4595.349330,-2833.798753,10722.481770
1201.632936,-5897.364973,-6893.023995,11947.908258
1201.633243,-3369.922842,-4671.938485,12484.032346
1201.633540,-382.945777,-1608.372265,11794.729947
1201.633837,1991.318043,-2527.442131,10262.946837
1201.634134,5208.062574,306.356622,10262.946837
1201.634431,6280.310751,3829.457775,8041.861327
1201.634728,9267.287815,5591.008351,5054.884263
1201.635024,4901.705952,3216.744531,7199.380617
1201.635321,612.713244,-1608.372265,9956.590215
1201.635629,-3523.101153,-3752.868619,12637.210657
1201.635928,-5131.473418,-4825.116796,12101.086569
1201.636227,-7122.791461,-6893.023995,11335.195014
1201.636526,-8118.450483,-7199.380617,13173.334746
1201.636825,-4135.814397,-4671.938485,12407.443191
1201.637124,-1148.837332,-2527.442131,10416.125148
1201.637423,2297.674665,-536.124088,10262.946837
1201.637722,919.069866,-1455.193954,11794.729947
1201.638038,2527.442131,765.891555,10569.303459
1201.638337,4901.705952,3829.457775,9114.109504
1201.638635,2833.798753,3216.744531,7275.969772
1201.638933,-382.945777,-76.589155,8807.752882
1201.639232,-4595.349330,-2374.263820,12790.388968
1201.639530,-2450.852976,-3906.046930,11182.016703
1201.639829,-1914.728887,-2527.442131,11105.427547
1201.640127,-842.480710,-2986.977064,12943.567279
1201.640444,-0.000000,-2986.977064,12407.443191
1201.640742,3446.511997,2144.496354,12254.264880
1201.641040,5514.419196,7582.326394,8501.396260
1201.641338,6280.310751,8501.396260,7735.504705
1201.641635,3752.868619,9650.233593,7812.093861
1201.641933,153.178311,7735.504705,10416.125148
1201.642231,-4442.171019,3369.922842,11335.195014
1201.642529,-7965.272172,-1761.550576,11488.373325
1201.642829,-5897.364973,-5054.884263,10339.535992
1201.643129,-6969.613150,-8271.628794,12713.799813
1201.643429,-3829.457775,-7658.915550,13862.637145
1201.643729,3752.868619,-6280.310751,10722.481770
1201.644029,8195.039638,-382.945777,10033.179370
1201.644329,11335.195014,4135.814397,8807.752882
1201.644629,8654.574571,5591.008351,6127.132440
1201.644929,4059.225241,7735.504705,7888.683016
1201.645219,-229.767466,5284.651729,8960.931193
1201.645518,-7658.915550,-842.480710,10109.768526
1201.645817,-11258.605858,-5514.419196,13249.923901
1201.646116,-11947.908258,-10186.357681,14781.707011
1201.646414,-8884.342038,-11411.784169,14015.815456
1201.646713,-1455.193954,-8731.163727,12101.086569
1201.647012,2833.798753,-6127.132440,12024.497413
1201.647310,8041.861327,-1302.015643,9343.876971
1201.647617,8654.574571,3063.566220,8501.396260
1201.647921,9114.109504,5437.830040,7429.148083
1201.648225,3446.511997,5131.473418,9037.520349
1201.648529,1531.783110,4135.814397,9420.466126
1201.648833,-3523.101153,-76.589155,9037.520349
1201.649137,-4135.814397,-1608.372265,10722.481770
1201.649440,-5744.186662,-5973.954129,11105.427547
1201.649744,-5591.008351,-7505.737239,12254.264880
1201.650028,-3829.457775,-6739.845684,14015.815456
1201.650326,-1455.193954,-6433.489062,12866.978124
1201.650625,3906.046930,-229.767466,10952.249236
1201.650924,7888.683016,5284.651729,8501.396260
1201.651223,7429.148083,5744.186662,6586.667373
1201.651522,4748.527641,6663.256528,7965.272172
1201.651821,2297.674665,5897.364973,8577.985416
1201.652120,-2910.387909,919.069866,9803.411904
1201.652415,-8577.985416,-1761.550576,11641.551636
1201.652716,-8271.628794,-4825.116796,13249.923901
1201.653017,-10645.892614,-7199.380617,13479.691368
1201.653318,-6050.543284,-5667.597507,12484.032346
1201.653618,-2604.031287,-5514.419196,13173.334746
1201.653919,4212.403552,-1914.728887,11488.373325
1201.654220,11335.195014,3369.922842,9114.109504
1201.654521,14398.761234,6663.256528,6280.310751
1201.654809,10722.481770,7275.969772,6127.132440
1201.655110,4748.527641,4825.116796,8807.752882
1201.655411,-4288.992708,765.891555,11182.016703
1201.655712,-9880.001059,-1302.015643,12407.443191
1201.656012,-11718.140791,-4518.760174,12101.086569
1201.656313,-14245.582923,-8424.807105,12330.854035
1201.656614,-10033.179370,-7658.915550,15853.955188
1201.656915,-3523.101153,-6739.845684,13709.458834
1201.657228,5514.419196,-1455.193954,10952.249236
1201.657527,14858.296167,4135.814397,8501.396260
1201.657826,16619.846743,4825.116796,6127.132440
1201.658125,11871.319102,4978.295107,6969.613150
1201.658423,7582.326394,6663.256528,6969.613150
1201.658722,-995.659021,2450.852976,8654.574571
1201.659021,-9573.644437,-689.302399,11794.729947
1201.659320,-14092.404612,-4901.705952,13403.102212
1201.659627,-12866.978124,-6127.132440,12330.854035
1201.659926,-9497.055282,-5973.954129,12407.443191
1201.660226,-2374.263820,-7658.915550,12407.443191
1201.660526,2680.620442,-6127.132440,11182.016703
1201.660825,11028.838392,-1148.837332,9497.055282
1201.661125,14015.815456,1684.961421,6816.434839
1201.661425,12330.854035,3523.101153,5820.775818
1201.661724,7046.202306,3369.922842,8041.861327
1201.662021,-842.480710,-689.302399,8960.931193
1201.662320,-7658.915550,-2374.263820,11105.427547
1201.662618,-13173.334746,-3446.511997,13556.280523
1201.662917,-15241.241944,-8271.628794,12254.264880
1201.663216,-14245.582923,-8577.985416,13862.637145
1201.663515,-8118.450483,-6280.310751,14475.350389
1201.663813,-1148.837332,-4518.760174,12713.799813
1201.664112,5973.954129,-76.589155,10722.481770
1201.664407,13709.458834,3982.636086,7735.504705
1201.664706,17385.738298,5437.830040,5973.954129
1201.665006,14398.761234,7735.504705,6510.078217
1201.665305,8348.217949,5284.651729,8271.628794
1201.665604,-1608.372265,3216.744531,10339.535992
1201.665903,-6663.256528,2450.852976,11488.373325
1201.666203,-11258.605858,-1608.372265,11641.551636
1201.666502,-15088.063633,-5667.597507,13939.226301
1201.666814,-14475.350389,-6433.489062,17155.970832
1201.667114,-6203.721595,-5208.062574,13556.280523
1201.667414,3906.046930,306.356622,10186.357681
1201.667714,9420.466126,1991.318043,9573.644437
1201.668014,11794.729947,5897.364973,7122.791461
1201.668314,14245.582923,10262.946837,6663.256528
1201.668614,11871.319102,9803.411904,6280.310751
1201.668914,3752.868619,5591.008351,7505.737239
1201.669213,-3676.279464,765.891555,10569.303459
1201.669512,-8731.163727,-4671.938485,12024.497413
1201.669811,-12560.621502,-9726.822748,12790.388968
1201.670109,-12407.443191,-11411.784169,14245.582923
1201.670408,-10645.892614,-12637.210657,14168.993767
1201.670707,-2757.209598,-8424.807105,12866.978124
1201.671006,6127.132440,-3293.333686,9573.644437
1201.671304,13403.102212,1072.248177,5591.008351
1201.671611,13096.745590,4978.295107,7122.791461
1201.671913,9267.287815,4288.992708,7888.683016
1201.672214,1378.604799,612.713244,7735.504705
1201.672516,-6816.434839,-382.945777,13096.745590
1201.672817,-11105.427547,-4365.581863,11947.908258
1201.673119,-13786.047990,-7965.272172,13403.102212
1201.673420,-10339.535992,-7199.380617,14628.528700
1201.673721,-2374.263820,-7812.093861,11335.195014
1201.674038,3446.511997,-4518.760174,11028.838392
1201.674331,12484.032346,-76.589155,8501.396260
1201.674625,12943.567279,1072.248177,7888.683016
1201.674919,12024.497413,5744.186662,7812.093861
1201.675213,9420.466126,8654.574571,7429.148083
1201.675506,1838.139732,6356.899906,8195.039638
1201.675800,-6816.434839,4595.349330,12101.086569
1201.676094,-12407.443191,-382.945777,12713.799813
1201.676412,-15241.241944,-2833.798753,13096.745590
1201.676711,-13020.156435,-4059.225241,14168.993767
1201.677009,-6816.434839,-6433.489062,12866.978124
1201.677307,306.356622,-1761.550576,11718.140791
1201.677605,10262.946837,3676.279464,9650.233593
1201.677903,14398.761234,6050.543284,6969.613150
1201.678202,11488.373325,5744.186662,8195.039638
1201.678500,8041.861327,5897.364973,9037.520349
1201.678813,2144.496354,3982.636086,8041.861327
1201.679111,-3216.744531,3369.922842,9650.233593
1201.679410,-9037.520349,-4365.581863,12254.264880
1201.679708,-14628.528700,-8577.985416,12484.032346
1201.680007,-10339.535992,-7352.558928,14934.885322
1201.680305,-6969.613150,-8884.342038,13249.923901
1201.680604,-3523.101153,-8884.342038,12560.621502
1201.680902,1991.318043,-4825.116796,12330.854035
1201.681201,8348.217949,-1455.193954,8807.752882
1201.681502,11641.551636,4288.992708,6433.489062
1201.681802,12484.032346,6203.721595,6816.434839
1201.682102,9267.287815,4288.992708,7429.148083
1201.682402,2527.442131,3369.922842,10109.768526
1201.682702,-1914.728887,-1302.015643,10339.535992
1201.683002,-8271.628794,-4901.705952,10722.481770
1201.683302,-11105.427547,-7352.558928,13556.280523
1201.683609,-9726.822748,-10799.070925,13020.156435
1201.683906,-8118.450483,-9650.233593,13709.458834
1201.684203,459.534933,-4365.581863,11718.140791
1201.684500,5973.954129,153.178311,7582.326394
1201.684797,10416.125148,4288.992708,7812.093861
1201.685093,12943.567279,8501.396260,6816.434839
1201.685390,8960.931193,6663.256528,6969.613150
1201.685687,2986.977064,5744.186662,8501.396260
1201.686001,-3063.566220,1991.318043,11411.784169
1201.686302,-9880.001059,-2680.620442,11335.195014
1201.686602,-15088.063633,-3906.046930,13939.226301
1201.686902,-11411.784169,-5973.954129,13249.923901
1201.687202,-11258.605858,-6893.023995,14475.350389
1201.687503,-3676.279464,-4901.705952,13326.513057
1201.687803,7122.791461,1072.248177,8348.217949
1201.688103,12637.210657,4442.171019,6127.132440
1201.688422,11641.551636,5897.364973,7352.558928
1201.688718,7735.504705,3982.636086,10262.946837
1201.689014,3446.511997,4978.295107,8041.861327
1201.689310,-689.302399,4825.116796,8654.574571
1201.689606,-10952.249236,-4212.403552,13403.102212
1201.689903,-13173.334746,-6433.489062,15930.544344
1201.690199,-7199.380617,-4901.705952,14245.582923
1201.690495,-1148.837332,-2833.798753,10799.070925
1201.690812,3140.155375,-1302.015643,10339.535992
1201.691111,7046.202306,-76.589155,10722.481770
1201.691409,10109.768526,4825.116796,7582.326394
1201.691708,11488.373325,8195.039638,7812.093861
1201.692006,8501.396260,6203.721595,6816.434839
1201.692305,2527.442131,4978.295107,8424.807105
1201.692604,-5591.008351,-229.767466,12407.443191
1201.692902,-11258.605858,-3446.511997,12943.567279
1201.693179,-12254.264880,-4901.705952,13096.745590
1201.693479,-8424.807105,-6280.310751,11641.551636
1201.693779,-4978.295107,-9037.520349,11564.962480
1201.694079,-2604.031287,-6280.310751,13632.869679
1201.694379,7735.504705,-995.659021,9726.822748
1201.694679,9267.287815,2604.031287,5437.830040
1201.694979,8654.574571,5284.651729,7429.148083
1201.695279,5054.884263,3676.279464,8654.574571
1201.695609,-382.945777,1838.139732,9420.466126
1201.695906,-2067.907198,919.069866,9497.055282
1201.696203,-5897.364973,-3140.155375,9956.590215
1201.696500,-9343.876971,-9497.055282,13096.745590
1201.696797,-8577.985416,-9880.001059,14168.993767
1201.697094,-3676.279464,-9880.001059,11794.729947
1201.697391,1378.604799,-7046.202306,12254.264880
1201.697688,5514.419196,-2986.977064,9956.590215
1201.697996,12024.497413,1225.426488,6203.721595
1201.698295,10262.946837,4825.116796,7429.148083
1201.698595,6586.667373,3369.922842,8731.163727
1201.698895,-0.000000,-76.589155,10262.946837
1201.699195,-4442.171019,3063.566220,12024.497413
1201.699495,-5131.473418,1225.426488,10033.179370
1201.699795,-9037.520349,-229.767466,11028.838392
1201.700094,-10339.535992,-4059.225241,14934.885322
1201.700378,-6969.613150,-4518.760174,14781.707011
1201.700681,-382.945777,-2374.263820,11182.016703
1201.700983,7046.202306,2604.031287,9037.520349
1201.701286,8960.931193,1991.318043,7275.969772
1201.701589,6127.132440,3063.566220,9114.109504
1201.701892,7046.202306,5131.473418,10569.303459
1201.702195,4212.403552,6050.543284,8195.039638
1201.702498,-76.589155,4748.527641,9803.411904
1201.702780,-4595.349330,2450.852976,12790.388968
1201.703082,-9190.698660,919.069866,12713.799813
1201.703384,-6203.721595,765.891555,13862.637145
1201.703685,-3982.636086,-2067.907198,10492.714303
1201.703987,-2067.907198,-2067.907198,11182.016703
1201.704289,-76.589155,-2833.798753,10645.892614
1201.704591,2144.496354,-2680.620442,9650.233593
1201.704893,5820.775818,1838.139732,9573.644437
1201.705183,6739.845684,2450.852976,7658.915550
1201.705482,1531.783110,-995.659021,8577.985416
1201.705781,-3216.744531,-229.767466,11335.195014
1201.706080,-4978.295107,-995.659021,11105.427547
1201.706380,-7658.915550,-4671.938485,10952.249236
1201.706679,-7812.093861,-5820.775818,12407.443191
1201.706978,-4288.992708,-8424.807105,11794.729947
1201.707277,306.356622,-5514.419196,11335.195014
1201.707614,6893.023995,-3446.511997,8884.342038
1201.707908,9650.233593,-1761.550576,6510.078217
1201.708203,9803.411904,-536.124088,7735.504705
1201.708497,8654.574571,919.069866,9420.466126
1201.708792,3446.511997,-76.589155,8654.574571
1201.709086,-3829.457775,-76.589155,11411.784169
1201.709381,-7505.737239,-1914.728887,12560.621502
1201.709675,-7505.737239,-536.124088,11488.373325
1201.709982,-3523.101153,1072.248177,11258.605858
1201.710282,-2910.387909,-2067.907198,10416.125148
1201.710582,-4748.527641,-3599.690308,12484.032346
1201.710882,-842.480710,-2067.907198,13403.102212
1201.711182,2374.263820,3063.566220,9037.520349
1201.711481,3293.333686,3982.636086,6816.434839
1201.711781,1838.139732,2450.852976,9420.466126
1201.712081,-1302.015643,919.069866,10569.303459
1201.712377,306.356622,2450.852976,11335.195014
1201.712677,1531.783110,4135.814397,9114.109504
1201.712976,-2067.907198,-382.945777,10416.125148
1201.713276,-7122.791461,-4365.581863,14934.885322
1201.713576,-4135.814397,-3752.868619,13862.637145
1201.713875,612.713244,-76.589155,10875.660081
1201.714175,2680.620442,2144.496354,9497.055282
1201.714474,2986.977064,-76.589155,9956.590215
1201.714769,4212.403552,2757.209598,9956.590215
1201.715069,9803.411904,4288.992708,8348.217949
1201.715369,8654.574571,3063.566220,5208.062574
1201.715670,3752.868619,1378.604799,8348.217949
1201.715970,-3369.922842,-2833.798753,12637.210657
1201.716270,-10033.179370,-6280.310751,13249.923901
1201.716570,-9726.822748,-3599.690308,14168.993767
1201.716870,-9037.520349,-4365.581863,11641.551636
1201.717182,-3829.457775,-4518.760174,11488.373325
1201.717479,612.713244,459.534933,11641.551636
1201.717777,6127.132440,1838.139732,7658.915550
1201.718074,8041.861327,1991.318043,6280.310751
1201.718372,7122.791461,1225.426488,8501.396260
1201.718669,5208.062574,-3293.333686,9114.109504
1201.718967,-995.659021,-2986.977064,10875.660081
1201.719264,-689.302399,-4212.403552,10492.714303
1201.719620,-4595.349330,-7352.558928,10262.946837
1201.719912,-4825.116796,-7199.380617,14168.993767
1201.720204,-2450.852976,-4671.938485,12254.264880
1201.720496,-1761.550576,-1455.193954,10033.179370
1201.720788,153.178311,306.356622,12101.086569
1201.721080,1684.961421,919.069866,10722.481770
1201.721372,4901.705952,4288.992708,8501.396260
1201.721664,4748.527641,7735.504705,7658.915550
1201.721971,1072.248177,1991.318043,6586.667373
1201.722269,-6969.613150,-2067.907198,12790.388968
1201.722567,-8577.985416,-4671.938485,13403.102212
1201.722865,-5437.830040,-5208.062574,12713.799813
1201.723163,-4442.171019,-4365.581863,11105.427547
1201.723461,-995.659021,-4365.581863,12101.086569
1201.723760,1838.139732,-2833.798753,12101.086569
1201.724058,8807.752882,3216.744531,9803.411904
1201.724374,13556.280523,5437.830040,5973.954129
1201.724672,8195.039638,7275.969772,6969.613150
1201.724969,2144.496354,3676.279464,9267.287815
1201.725267,-1914.728887,3063.566220,10799.070925
1201.725565,-3216.744531,2757.209598,9880.001059
1201.725863,-7122.791461,-536.124088,10416.125148
1201.726160,-9573.644437,-5208.062574,12943.567279
1201.726458,-8577.985416,-4212.403552,14934.885322
1201.726772,153.178311,-1148.837332,12943.567279
1201.727072,4212.403552,-76.589155,10109.768526
1201.727372,6280.310751,3216.744531,9956.590215
1201.727671,8041.861327,2757.209598,9573.644437
1201.727971,2144.496354,3216.744531,8195.039638
1201.728270,-5131.473418,3829.457775,10569.303459
1201.728570,-13020.156435,919.069866,9420.466126
1201.728870,-22517.211717,-3599.690308,10875.660081
1201.729158,-32473.801932,-6893.023995,16083.722655
1201.729458,-37375.507884,-9650.233593,17155.970832
1201.729759,-36762.794640,-8424.807105,16466.668432
1201.730060,-30712.251355,-4518.760174,15394.420255
1201.730361,-23283.103272,-4365.581863,12790.388968
1201.730662,-13173.334746,153.178311,13096.745590
1201.730962,-382.945777,5131.473418,9573.644437
1201.731263,6280.310751,3829.457775,5514.419196
1201.731551,12177.675724,6356.899906,2450.852976
1201.731853,13249.923901,7122.791461,1991.318043
1201.732154,2680.620442,2604.031287,1072.248177
1201.732456,-15241.241944,-9343.876971,9956.590215
1201.732757,-38524.345216,-17615.505765,15624.187722
1201.733059,-48174.578809,-17462.327454,16236.900966
1201.733361,-47868.222187,-13862.637145,15853.955188
1201.733662,-38983.880149,-7046.202306,10416.125148
1201.733969,-21751.320162,2450.852976,9650.233593
1201.734269,-5131.473418,7735.504705,6356.899906
1201.734568,7582.326394,12101.086569,3676.279464
1201.734867,14398.761234,11794.729947,3369.922842
1201.735166,4365.581863,6203.721595,3369.922842
1201.735466,-11258.605858,1072.248177,6510.078217
1201.735765,-28491.165846,-3446.511997,8577.985416
1201.736064,-45493.958367,-6586.667373,11411.784169
1201.736385,-56522.796759,-8884.342038,15624.187722
1201.736682,-56522.796759,-8271.628794,17615.505765
1201.736979,-46413.028233,-5054.884263,18075.040698
1201.737276,-29946.359800,459.534933,15853.955188
1201.737573,-11258.605858,5591.008351,10569.303459
1201.737870,4365.581863,8501.396260,6663.256528
1201.738167,14168.993767,8348.217949,3063.566220
1201.738464,12484.032346,8654.574571,2604.031287
1201.738765,-229.767466,8195.039638,6050.543284
1201.739067,-18840.932253,4135.814397,12560.621502
1201.739368,-35613.957307,3369.922842,18994.110564
1201.739670,-42813.337924,6969.613150,21368.374384
1201.739971,-41511.322281,11335.195014,20908.839451
1201.740273,-28491.165846,16773.025054,17998.451542
1201.740574,-8424.807105,22364.033406,12943.567279
1201.740875,14168.993767,27955.041757,8195.039638
1201.741189,28414.576690,29869.770645,4442.171019
1201.741484,32550.391087,30329.305578,1991.318043
1201.741779,22900.157494,29869.770645,4288.992708
1201.742075,1378.604799,25810.545403,9650.233593
1201.742370,-20142.947896,25197.832159,13020.156435
1201.742665,-38064.810283,23436.281583,15700.776877
1201.742961,-47868.222187,21598.141851,15930.544344
1201.743256,-45493.958367,20679.071985,16007.133499
1201.743544,-29946.359800,20372.715363,13786.047990
1201.743846,-8424.807105,19606.823808,11028.838392
1201.744149,16926.203365,19913.180430,6969.613150
1201.744451,37452.097039,19223.878030,3140.155375
1201.744754,46795.974010,17845.273231,2144.496354
1201.745056,43655.818635,16466.668432,2910.387909
1201.745359,28108.220068,14092.404612,5591.008351
1201.745661,6586.667373,12407.443191,9803.411904
1201.745968,-16466.668432,11488.373325,13403.102212
1201.746264,-35996.903085,11028.838392,17155.970832
1201.746561,-47561.865565,13173.334746,19070.699719
1201.746857,-49859.540230,14628.528700,20449.304518
1201.747153,-42124.035525,19300.467186,22287.444250
1201.747449,-22364.033406,26423.258647,19683.412963
1201.747745,6893.023995,36073.492240,12254.264880
1201.748042,37911.631972,45111.012589,3752.868619
1201.748350,59280.006357,47868.222187,-3446.511997
1201.748649,63875.355687,41970.857214,-3599.690308
1201.748948,46949.152321,26729.615269,1838.139732
1201.749247,18764.343097,10416.125148,9114.109504
1201.749546,-10339.535992,-3293.333686,13709.458834
1201.749844,-30942.018822,-10033.179370,16543.257588
1201.750143,-39290.236771,-10645.892614,17002.792521
1201.750442,-33469.460953,-5973.954129,17155.970832
1201.750759,-21751.320162,2297.674665,16696.435899
1201.751057,-10645.892614,14398.761234,13249.923901
1201.751356,306.356622,26576.436958,8960.931193
1201.751654,8041.861327,33928.995886,4901.705952
1201.751953,12330.854035,37911.631972,-459.534933
1201.752251,3752.868619,28720.933312,3982.636086
1201.752550,-5897.364973,11335.195014,9726.822748
1201.752848,-10033.179370,-8577.985416,17462.327454
1201.753165,-5897.364973,-21368.374384,16849.614210
1201.753463,765.891555,-32550.391087,13096.745590
1201.753761,2986.977064,-35690.546463,15317.831100
1201.754059,9267.287815,-29180.468245,10875.660081
1201.754357,14168.993767,-17155.970832,6203.721595
1201.754654,10109.768526,-4365.581863,3216.744531
1201.754952,2144.496354,5897.364973,2680.620442
1201.755250,-11871.319102,5897.364973,8807.752882
1201.755538,-21904.498473,2910.387909,13709.458834
1201.755840,-21904.498473,-536.124088,16083.722655
1201.756141,-16619.846743,-7046.202306,15930.544344
1201.756443,-5744.186662,-16390.079277,14322.172078
1201.756744,9956.590215,-24355.351449,14015.815456
1201.757046,21674.731006,-28031.630913,11028.838392
1201.757347,28644.344157,-16543.257588,8501.396260
1201.757648,24355.351449,-4671.938485,6127.132440
1201.757939,9420.466126,1991.318043,8195.039638
1201.758240,-3369.922842,17079.381676,9190.698660
1201.758541,-14475.350389,29257.057401,5897.364973
1201.758843,-25351.010470,32167.445310,6663.256528
1201.759144,-25504.188781,25963.723714,8807.752882
1201.759445,-24738.297226,11182.016703,14628.528700
1201.759746,-16466.668432,-4671.938485,17232.559987
1201.760048,-3063.566220,-18994.110564,16849.614210
1201.760355,12330.854035,-33852.406731,14015.815456
1201.760652,28797.522468,-37222.329573,12637.210657
1201.760949,39213.647616,-25274.421315,9114.109504
1201.761246,34924.654908,-3906.046930,2986.977064
1201.761544,20372.715363,11794.729947,5820.775818
1201.761841,459.534933,24125.583982,7582.326394
1201.762138,-15241.241944,35154.422374,9114.109504
1201.762435,-26959.382736,42277.213836,9650.233593
1201.762732,-35154.422374,36226.670551,12177.675724
1201.763033,-35613.957307,24431.940604,16696.435899
1201.763334,-20755.661140,12254.264880,16926.203365
