#time,accel_x,accel_y,accel_z
1173.145494,-229.767466,-689.302399,10109.768526
1173.145790,-689.302399,-689.302399,10186.357681
1173.146086,-382.945777,-995.659021,10186.357681
1173.146382,-689.302399,-842.480710,10262.946837
1173.146699,-536.124088,-689.302399,10186.357681
1173.146997,612.713244,-229.767466,10569.303459
1173.147295,4748.527641,153.178311,10109.768526
1173.147593,7275.969772,153.178311,9956.590215
1173.147891,12637.210657,459.534933,9573.644437
1173.148189,16083.722655,306.356622,9190.698660
1173.148486,19300.467186,459.534933,9497.055282
1173.148784,22287.444250,306.356622,9114.109504
1173.149084,21291.785229,1072.248177,9956.590215
1173.149381,21981.087628,2297.674665,8960.931193
1173.149679,19147.288875,1225.426488,9037.520349
1173.149976,16619.846743,1378.604799,10109.768526
1173.150274,14245.582923,919.069866,10186.357681
1173.150571,13709.458834,459.534933,11488.373325
1173.150869,18151.629853,459.534933,11028.838392
1173.151166,24508.529760,1838.139732,9803.411904
1173.151497,29716.592334,2144.496354,8501.396260
1173.151794,26040.312870,-1148.837332,8195.039638
1173.152091,18764.343097,-4825.116796,13096.745590
1173.152388,9650.233593,-6739.845684,17155.970832
1173.152685,6739.845684,-4059.225241,15164.652789
1173.152982,5514.419196,-536.124088,14168.993767
1173.153279,1838.139732,306.356622,14168.993767
1173.153576,1684.961421,1072.248177,15394.420255
1173.153883,5361.240885,3063.566220,16083.722655
1173.154182,14398.761234,6663.256528,10416.125148
1173.154480,22287.444250,7735.504705,7429.148083
1173.154779,26576.436958,4748.527641,7275.969772
1173.155078,28414.576690,-76.589155,7582.326394
1173.155377,31171.786288,-2833.798753,6356.899906
1173.155676,34158.763353,-6127.132440,4978.295107
1173.155975,33163.104331,-11105.427547,6663.256528
1173.156258,30482.483889,-11258.605858,8654.574571
1173.156563,26882.793580,-7658.915550,9880.001059
1173.156868,20219.537052,-2221.085509,11488.373325
1173.157172,13249.923901,1991.318043,13556.280523
1173.157477,7122.791461,5591.008351,14322.172078
1173.157782,-2450.852976,7429.148083,13403.102212
1173.158087,-7352.558928,8501.396260,11794.729947
1173.158392,-12407.443191,1838.139732,11028.838392
1173.158709,-13326.513057,-6433.489062,12254.264880
1173.159006,-13632.869679,-12024.497413,15394.420255
1173.159304,-5131.473418,-8577.985416,12866.978124
1173.159601,8654.574571,-2680.620442,7582.326394
1173.159898,17845.273231,4442.171019,3982.636086
1173.160196,21827.909317,6203.721595,7429.148083
1173.160493,16543.257588,7122.791461,12713.799813
1173.160791,21291.785229,6203.721595,9343.876971
1173.161081,18151.629853,1838.139732,7582.326394
1173.161380,12484.032346,-6280.310751,9114.109504
1173.161679,153.178311,-13249.923901,11488.373325
1173.161978,-10952.249236,-13096.745590,13403.102212
1173.162277,-16696.435899,-12943.567279,12407.443191
1173.162576,-22057.676784,-8271.628794,13556.280523
1173.162875,-22364.033406,-1914.728887,13479.691368
1173.163174,-17768.684076,4442.171019,13479.691368
1173.163460,-7505.737239,11028.838392,14475.350389
1173.163762,7735.504705,16466.668432,11028.838392
1173.164064,23895.816516,19223.878030,6433.489062
1173.164366,34618.298286,15241.241944,3982.636086
1173.164668,36073.492240,7582.326394,3676.279464
1173.164970,25887.134559,-1302.015643,6969.613150
1173.165272,12330.854035,-10799.070925,8195.039638
1173.165573,765.891555,-17155.970832,7429.148083
1173.165879,-16466.668432,-21215.196073,11335.195014
1173.166179,-29793.181489,-22593.800872,15853.955188
1173.166479,-34541.709130,-14858.296167,18228.219009
1173.166779,-27418.917669,-3446.511997,14781.707011
1173.167079,-20296.126207,2757.209598,13862.637145
1173.167379,-10339.535992,8348.217949,12790.388968
1173.167679,5361.240885,15853.955188,8041.861327
1173.167979,17998.451542,19223.878030,5054.884263
1173.168275,25121.243004,14092.404612,4288.992708
1173.168575,25274.421315,8348.217949,3140.155375
1173.168874,19760.002119,2144.496354,5591.008351
1173.169174,10109.768526,-5208.062574,8807.752882
1173.169474,-2910.387909,-10492.714303,11488.373325
1173.169773,-10952.249236,-11411.784169,12943.567279
1173.170073,-15394.420255,-13249.923901,13632.869679
1173.170373,-14092.404612,-10952.249236,15241.241944
1173.170667,-10952.249236,-7965.272172,14705.117856
1173.170968,-6663.256528,-4365.581863,14934.885322
1173.171269,4671.938485,1531.783110,10799.070925
1173.171570,14398.761234,7888.683016,7275.969772
1173.171871,18304.808164,10722.481770,6893.023995
1173.172172,18611.164786,12101.086569,6433.489062
1173.172473,16619.846743,14398.761234,4671.938485
1173.172774,5208.062574,10416.125148,8195.039638
1173.173085,-7352.558928,765.891555,13249.923901
1173.173383,-22210.855095,-6280.310751,17921.862387
1173.173680,-25197.832159,-7199.380617,18228.219009
1173.173978,-20755.661140,-9037.520349,16619.846743
1173.174275,-13479.691368,-6893.023995,14168.993767
1173.174572,-1455.193954,-2221.085509,10492.714303
1173.174870,5973.954129,-536.124088,10339.535992
1173.175167,15011.474478,612.713244,7965.272172
1173.175476,20066.358741,2297.674665,6356.899906
1173.175775,19453.645497,1531.783110,4901.705952
1173.176073,14245.582923,919.069866,6663.256528
1173.176371,8807.752882,3216.744531,6510.078217
1173.176669,-1148.837332,1378.604799,8654.574571
1173.176967,-10033.179370,612.713244,13786.047990
1173.177266,-15088.063633,1838.139732,13249.923901
1173.177564,-15853.955188,2757.209598,12560.621502
1173.177871,-15088.063633,1378.604799,13249.923901
1173.178170,-8577.985416,306.356622,12101.086569
1173.178470,-1761.550576,-842.480710,11411.784169
1173.178770,4212.403552,-4365.581863,9956.590215
1173.179069,10569.303459,-7965.272172,6816.434839
1173.179369,14551.939545,-8731.163727,6127.132440
1173.179669,11488.373325,-9650.233593,9037.520349
1173.179968,8041.861327,-8731.163727,8501.396260
1173.180265,5514.419196,-2067.907198,7505.737239
1173.180562,-3216.744531,-1608.372265,9267.287815
1173.180860,-13632.869679,-2067.907198,13862.637145
1173.181157,-20449.304518,1838.139732,16007.133499
1173.181455,-16619.846743,7122.791461,12101.086569
1173.181752,-9726.822748,5591.008351,10645.892614
1173.182049,-2374.263820,6203.721595,11718.140791
1173.182347,6127.132440,2910.387909,9956.590215
1173.182661,11871.319102,-0.000000,10109.768526
1173.182960,15777.366033,-4671.938485,8807.752882
1173.183258,16390.079277,-8271.628794,8041.861327
1173.183557,11335.195014,-9880.001059,8731.163727
1173.183856,7122.791461,-9343.876971,7505.737239
1173.184155,1378.604799,-6586.667373,8041.861327
1173.184453,-8271.628794,-5820.775818,11028.838392
1173.184752,-15547.598566,-2986.977064,14092.404612
1173.185040,-18228.219009,3063.566220,14245.582923
1173.185343,-15088.063633,8960.931193,12790.388968
1173.185645,-10186.357681,9803.411904,12637.210657
1173.185947,-1148.837332,13173.334746,10186.357681
1173.186250,6433.489062,12254.264880,8195.039638
1173.186552,9267.287815,5284.651729,9420.466126
1173.186855,5514.419196,-5667.597507,12254.264880
1173.187157,8195.039638,-10799.070925,10569.303459
1173.187457,7888.683016,-12943.567279,8577.985416
1173.187756,6893.023995,-13862.637145,6356.899906
1173.188055,1838.139732,-12024.497413,7505.737239
1173.188355,-5591.008351,-9343.876971,10875.660081
1173.188654,-9343.876971,-2527.442131,13709.458834
1173.188953,-9726.822748,3216.744531,12407.443191
1173.189252,-7505.737239,8348.217949,10109.768526
1173.189552,-4825.116796,9573.644437,11182.016703
1173.189859,1838.139732,11947.908258,12713.799813
1173.190158,6739.845684,9650.233593,10875.660081
1173.190457,8501.396260,5744.186662,12407.443191
1173.190756,8195.039638,-536.124088,11182.016703
1173.191056,6586.667373,-4365.581863,9956.590215
1173.191355,2680.620442,-9190.698660,9037.520349
1173.191654,-1608.372265,-11411.784169,9650.233593
1173.191953,-2757.209598,-9497.055282,8807.752882
1173.192274,-5897.364973,-7199.380617,9497.055282
1173.192571,-8731.163727,-4059.225241,13249.923901
1173.192868,-9726.822748,1531.783110,12943.567279
1173.193165,-3216.744531,8960.931193,9114.109504
1173.193462,1225.426488,11182.016703,9573.644437
1173.193759,4365.581863,11641.551636,11488.373325
1173.194056,8807.752882,9803.411904,9726.822748
1173.194353,9114.109504,7275.969772,9650.233593
1173.194672,8348.217949,-995.659021,10262.946837
1173.194970,3446.511997,-8884.342038,11028.838392
1173.195268,306.356622,-11411.784169,9267.287815
1173.195566,-2450.852976,-13096.745590,9267.287815
1173.195865,-5437.830040,-12024.497413,9956.590215
1173.196163,-9497.055282,-8884.342038,9497.055282
1173.196461,-9573.644437,-1761.550576,10416.125148
1173.196759,-8731.163727,3523.101153,11028.838392
1173.197072,-5284.651729,7122.791461,10875.660081
1173.197368,306.356622,9650.233593,10339.535992
1173.197664,5820.775818,11335.195014,10569.303459
1173.197960,7429.148083,6510.078217,11028.838392
1173.198256,4671.938485,-1761.550576,11641.551636
1173.198553,3140.155375,-7812.093861,12790.388968
1173.198849,4059.225241,-10799.070925,10186.357681
1173.199145,2680.620442,-13249.923901,8501.396260
1173.199468,306.356622,-12637.210657,10109.768526
1173.199765,-1148.837332,-7199.380617,9114.109504
1173.200062,-2221.085509,-1455.193954,7582.326394
1173.200360,-5284.651729,1991.318043,10109.768526
1173.200657,-8731.163727,4748.527641,12254.264880
1173.200955,-11871.319102,5131.473418,14781.707011
1173.201252,-7505.737239,6816.434839,15088.063633
1173.201549,2680.620442,9420.466126,10033.179370
1173.201857,8654.574571,7582.326394,8960.931193
1173.202153,9267.287815,1072.248177,10262.946837
1173.202449,10722.481770,-4059.225241,11258.605858
1173.202745,10109.768526,-3906.046930,9803.411904
1173.203041,5667.597507,-8424.807105,6510.078217
1173.203338,-1302.015643,-11258.605858,7812.093861
1173.203634,-4748.527641,-10799.070925,8960.931193
1173.203930,-8118.450483,-7199.380617,9880.001059
1173.204238,-7658.915550,-1455.193954,10109.768526
1173.204540,-6969.613150,5744.186662,12101.086569
1173.204842,-4595.349330,10262.946837,12101.086569
1173.205144,-1914.728887,13632.869679,11488.373325
1173.205445,612.713244,14781.707011,12407.443191
1173.205747,1991.318043,10416.125148,10186.357681
1173.206049,1225.426488,2144.496354,12943.567279
1173.206351,3140.155375,-5514.419196,11718.140791
1173.206670,6893.023995,-7505.737239,7888.683016
1173.206965,5208.062574,-11564.962480,7275.969772
1173.207260,-76.589155,-15624.187722,9573.644437
1173.207555,-3063.566220,-13403.102212,10875.660081
1173.207850,-3982.636086,-6586.667373,10033.179370
1173.208146,-6203.721595,-1914.728887,10875.660081
1173.208441,-8424.807105,2604.031287,13556.280523
1173.208736,-4825.116796,7582.326394,12254.264880
1173.209053,1838.139732,11028.838392,10722.481770
1173.209351,5361.240885,11182.016703,11718.140791
1173.209649,4212.403552,6663.256528,11794.729947
1173.209947,3293.333686,2757.209598,12560.621502
1173.210245,5208.062574,-536.124088,10416.125148
1173.210542,2986.977064,-3906.046930,8884.342038
1173.210840,-536.124088,-9726.822748,10109.768526
1173.211138,-2374.263820,-10952.249236,9803.411904
1173.211438,1838.139732,-8118.450483,7658.915550
1173.211738,-76.589155,-7352.558928,8807.752882
1173.212038,-6663.256528,-7658.915550,12254.264880
1173.212338,-6969.613150,-995.659021,13403.102212
1173.212638,-382.945777,6203.721595,9420.466126
1173.212938,2297.674665,9573.644437,9114.109504
1173.213238,1991.318043,9803.411904,10262.946837
1173.213538,3293.333686,8960.931193,10416.125148
1173.213829,4671.938485,6356.899906,8960.931193
1173.214132,4518.760174,-0.000000,8960.931193
1173.214436,-1148.837332,-5667.597507,11411.784169
1173.214739,-4825.116796,-11105.427547,11105.427547
1173.215042,-1455.193954,-10186.357681,9726.822748
1173.215346,1991.318043,-8577.985416,8118.450483
1173.215649,919.069866,-7352.558928,8195.039638
1173.215953,-1455.193954,-5208.062574,10109.768526
1173.216227,-1148.837332,612.713244,11105.427547
1173.216531,-0.000000,4978.295107,9267.287815
1173.216836,-2757.209598,6510.078217,10492.714303
1173.217141,-3676.279464,6510.078217,12790.388968
1173.217445,-4288.992708,4978.295107,12177.675724
1173.217750,-4135.814397,3216.744531,13403.102212
1173.218055,-229.767466,1225.426488,12943.567279
1173.218359,3446.511997,-229.767466,11718.140791
1173.218643,4901.705952,-3140.155375,9803.411904
1173.218945,6739.845684,-2833.798753,9573.644437
1173.219248,7046.202306,-1608.372265,8424.807105
1173.219551,3140.155375,-3599.690308,9037.520349
1173.219854,-2067.907198,-7199.380617,12407.443191
1173.220157,-3982.636086,-3906.046930,11794.729947
1173.220460,-2757.209598,-0.000000,9343.876971
1173.220763,-3829.457775,2144.496354,11182.016703
1173.221044,-3982.636086,4288.992708,12943.567279
1173.221341,-2757.209598,7429.148083,11182.016703
1173.221637,153.178311,7888.683016,10569.303459
1173.221933,153.178311,3982.636086,10339.535992
1173.222229,1225.426488,-536.124088,11028.838392
1173.222525,1072.248177,-5514.419196,9880.001059
1173.222822,5054.884263,-8118.450483,7735.504705
1173.223118,6893.023995,-9880.001059,8348.217949
1173.223430,2527.442131,-11718.140791,8118.450483
1173.223729,1838.139732,-8118.450483,10262.946837
1173.224028,612.713244,-229.767466,9726.822748
1173.224327,-229.767466,4288.992708,7275.969772
1173.224626,-4595.349330,4442.171019,10569.303459
1173.224925,-4825.116796,7429.148083,12177.675724
1173.225225,-3676.279464,5744.186662,11258.605858
1173.225524,-5744.186662,1684.961421,12790.388968
1173.225833,-3063.566220,-1608.372265,12407.443191
1173.226131,1378.604799,-1761.550576,11182.016703
1173.226430,4365.581863,-5667.597507,8960.931193
1173.226728,4365.581863,-6739.845684,9650.233593
1173.227027,3752.868619,-7199.380617,10262.946837
1173.227325,2833.798753,-5973.954129,7658.915550
1173.227624,-229.767466,-3446.511997,9037.520349
1173.227922,-6050.543284,-2067.907198,13249.923901
1173.228229,-9880.001059,-689.302399,13556.280523
1173.228528,-6203.721595,4825.116796,12713.799813
1173.228827,-536.124088,9267.287815,12024.497413
1173.229126,2144.496354,8348.217949,9650.233593
1173.229425,153.178311,6816.434839,12101.086569
1173.229724,4748.527641,5131.473418,12101.086569
1173.230023,7046.202306,919.069866,10186.357681
1173.230322,6893.023995,-3599.690308,8348.217949
1173.230618,4748.527641,-7352.558928,8960.931193
1173.230918,919.069866,-9343.876971,10109.768526
1173.231217,-995.659021,-9497.055282,9803.411904
1173.231517,-3829.457775,-6280.310751,10033.179370
1173.231816,-4595.349330,-1761.550576,11488.373325
1173.232116,-6510.078217,1684.961421,10875.660081
1173.232416,-5744.186662,5744.186662,9956.590215
1173.232715,-1608.372265,8501.396260,9880.001059
1173.233010,-1148.837332,6663.256528,9803.411904
1173.233310,-1302.015643,1991.318043,11411.784169
1173.233610,3140.155375,-1608.372265,11488.373325
1173.233910,7429.148083,-382.945777,7888.683016
1173.234211,8195.039638,-3906.046930,7275.969772
1173.234511,3752.868619,-7352.558928,8654.574571
1173.234811,-689.302399,-8424.807105,10416.125148
1173.235111,-1914.728887,-7658.915550,10722.481770
1173.235423,-3216.744531,-4825.116796,9880.001059
1173.235723,-6969.613150,-1608.372265,11182.016703
1173.236024,-9037.520349,-2986.977064,11947.908258
1173.236325,-6969.613150,306.356622,13249.923901
1173.236626,-1761.550576,4135.814397,13096.745590
1173.236926,-1302.015643,2604.031287,12330.854035
1173.237227,-229.767466,1684.961421,11564.962480
1173.237528,6127.132440,3676.279464,11335.195014
1173.237837,8807.752882,4595.349330,8807.752882
1173.238132,8195.039638,306.356622,7429.148083
1173.238428,5054.884263,-1914.728887,10799.070925
1173.238723,3446.511997,-2067.907198,11335.195014
1173.239018,-0.000000,-3599.690308,10109.768526
1173.239314,-7199.380617,-4671.938485,11718.140791
1173.239609,-8424.807105,-2374.263820,11182.016703
1173.239904,-6356.899906,-1608.372265,10416.125148
1173.240211,-6816.434839,-382.945777,12560.621502
1173.240514,-2757.209598,2604.031287,12790.388968
1173.240816,1378.604799,4135.814397,10416.125148
1173.241118,3752.868619,3523.101153,8195.039638
1173.241420,5973.954129,-689.302399,9573.644437
1173.241723,2144.496354,-3140.155375,11028.838392
1173.242025,2527.442131,-3752.868619,9114.109504
1173.242327,6433.489062,-995.659021,6127.132440
1173.242643,7046.202306,-842.480710,6127.132440
1173.242942,2527.442131,-3599.690308,7735.504705
1173.243240,-3523.101153,-3599.690308,10722.481770
1173.243539,-6356.899906,-1148.837332,11794.729947
1173.243837,-7199.380617,-2067.907198,10875.660081
1173.244135,-8731.163727,-1608.372265,12713.799813
1173.244434,-6356.899906,-1148.837332,13632.869679
1173.244732,-4135.814397,306.356622,12101.086569
1173.245047,-382.945777,-1761.550576,10722.481770
1173.245342,5361.240885,-1608.372265,10875.660081
1173.245636,9114.109504,-536.124088,8731.163727
1173.245931,8960.931193,-1148.837332,7582.326394
1173.246226,5667.597507,-1914.728887,9114.109504
1173.246521,4059.225241,459.534933,9956.590215
1173.246816,-689.302399,153.178311,10569.303459
1173.247111,-7122.791461,-1608.372265,11641.551636
1173.247424,-10952.249236,-229.767466,14015.815456
1173.247722,-10492.714303,-382.945777,12790.388968
1173.248021,-7199.380617,1072.248177,13862.637145
1173.248319,-2450.852976,3216.744531,12790.388968
1173.248618,2297.674665,4595.349330,11794.729947
1173.248916,3599.690308,919.069866,11335.195014
1173.249215,7582.326394,919.069866,10033.179370
1173.249513,8654.574571,-382.945777,8041.861327
1173.249813,7888.683016,-3446.511997,6203.721595
1173.250112,5054.884263,-3752.868619,7429.148083
1173.250411,2297.674665,-2374.263820,8577.985416
1173.250710,-3676.279464,-2833.798753,10262.946837
1173.251009,-9573.644437,-1455.193954,11258.605858
1173.251309,-11564.962480,1072.248177,12254.264880
1173.251608,-10799.070925,765.891555,10722.481770
1173.251907,-7658.915550,1225.426488,11488.373325
1173.252214,-382.945777,1072.248177,11488.373325
1173.252517,7046.202306,1378.604799,8884.342038
1173.252819,8501.396260,-3140.155375,8960.931193
1173.253122,12637.210657,-3599.690308,9343.876971
1173.253425,12177.675724,-3752.868619,7658.915550
1173.253727,8348.217949,-4901.705952,6663.256528
1173.254030,765.891555,-6586.667373,9114.109504
1173.254332,-3829.457775,-3140.155375,11641.551636
1173.254572,-5897.364973,-229.767466,8807.752882
1173.254880,-11411.784169,1225.426488,10569.303459
1173.255189,-17155.970832,-1148.837332,14781.707011
1173.255498,-15853.955188,-0.000000,16236.900966
1173.255806,-8884.342038,2910.387909,15011.474478
1173.256115,3293.333686,5591.008351,11028.838392
1173.256423,8501.396260,4978.295107,9573.644437
1173.256732,6893.023995,-995.659021,10186.357681
1173.257051,11641.551636,-1302.015643,10569.303459
1173.257344,13249.923901,-4212.403552,9114.109504
1173.257638,8654.574571,-7352.558928,8041.861327
1173.257931,306.356622,-9037.520349,10569.303459
1173.258225,-2757.209598,-3599.690308,11182.016703
1173.258518,-4825.116796,306.356622,9114.109504
1173.258812,-9037.520349,1684.961421,11028.838392
1173.259105,-12866.978124,3982.636086,13403.102212
1173.259423,-10339.535992,7275.969772,12254.264880
1173.259721,-3982.636086,9114.109504,10875.660081
1173.260020,3906.046930,7582.326394,9497.055282
1173.260318,7429.148083,3523.101153,9497.055282
1173.260617,5361.240885,-5361.240885,11641.551636
1173.260916,9114.109504,-9497.055282,10722.481770
1173.261214,9114.109504,-9650.233593,6969.613150
1173.261513,4365.581863,-12024.497413,7275.969772
1173.261813,-1455.193954,-12943.567279,8807.752882
1173.262110,-3523.101153,-6893.023995,9497.055282
1173.262408,-2604.031287,-842.480710,7658.915550
1173.262705,-6969.613150,3216.744531,9573.644437
1173.263002,-8577.985416,7888.683016,11182.016703
1173.263300,-5284.651729,10722.481770,11794.729947
1173.263597,-2374.263820,10262.946837,12254.264880
1173.263895,4748.527641,8195.039638,11564.962480
1173.264202,5054.884263,2910.387909,11182.016703
1173.264503,5361.240885,-4825.116796,11335.195014
1173.264805,7429.148083,-9343.876971,11182.016703
1173.265107,5973.954129,-10799.070925,9650.233593
1173.265408,1838.139732,-13403.102212,9956.590215
1173.265710,-4978.295107,-14705.117856,11028.838392
1173.266012,-6356.899906,-7199.380617,11794.729947
1173.266314,-6356.899906,-229.767466,9880.001059
1173.266594,-10186.357681,4748.527641,11641.551636
1173.266893,-7812.093861,10569.303459,12790.388968
1173.267193,-1455.193954,15241.241944,11335.195014
1173.267493,3906.046930,17079.381676,11794.729947
1173.267793,8348.217949,14628.528700,11335.195014
1173.268093,9650.233593,9420.466126,9650.233593
1173.268393,8348.217949,1225.426488,10492.714303
1173.268693,5514.419196,-8577.985416,11258.605858
1173.269009,-1455.193954,-16083.722655,11182.016703
1173.269310,-4442.171019,-18687.753942,10262.946837
1173.269610,-4978.295107,-17002.792521,9114.109504
1173.269911,-3063.566220,-10799.070925,6969.613150
1173.270212,-3829.457775,-5054.884263,7275.969772
1173.270512,-6356.899906,919.069866,9880.001059
1173.270813,-5591.008351,7582.326394,11028.838392
1173.271113,-1761.550576,12254.264880,9420.466126
1173.271360,612.713244,11641.551636,10569.303459
1173.271667,4518.760174,9650.233593,9956.590215
1173.271974,7046.202306,6050.543284,8807.752882
1173.272281,7429.148083,-1914.728887,9956.590215
1173.272588,5973.954129,-8731.163727,11182.016703
1173.272895,4212.403552,-11871.319102,10645.892614
1173.273202,2144.496354,-13556.280523,9420.466126
1173.273509,-1302.015643,-13249.923901,8654.574571
1173.273799,-3063.566220,-10186.357681,9880.001059
1173.274098,-5744.186662,-7352.558928,10339.535992
1173.274397,-7965.272172,-2374.263820,11335.195014
1173.274696,-6969.613150,3982.636086,12713.799813
1173.274995,-3216.744531,8654.574571,12101.086569
1173.275294,-1302.015643,12101.086569,12866.978124
1173.275593,3293.333686,13326.513057,12024.497413
1173.275893,3752.868619,11641.551636,11182.016703
1173.276206,612.713244,5284.651729,13096.745590
1173.276505,2144.496354,-536.124088,12560.621502
1173.276803,1378.604799,-3752.868619,12254.264880
1173.277101,2527.442131,-7199.380617,9573.644437
1173.277399,1225.426488,-10339.535992,9573.644437
1173.277698,1072.248177,-8271.628794,9420.466126
1173.277996,1378.604799,-6127.132440,9573.644437
1173.278294,-3063.566220,-3752.868619,10875.660081
1173.278601,-3982.636086,612.713244,11105.427547
1173.278901,-3369.922842,5897.364973,9650.233593
1173.279200,-2604.031287,8654.574571,9956.590215
1173.279500,-536.124088,8041.861327,10109.768526
1173.279800,-2067.907198,6203.721595,11182.016703
1173.280100,-1455.193954,1838.139732,11182.016703
1173.280400,919.069866,-1455.193954,10569.303459
1173.280699,2680.620442,-5820.775818,9650.233593
1173.280996,3752.868619,-8271.628794,7352.558928
1173.281295,3293.333686,-12943.567279,9037.520349
1173.281595,5054.884263,-10952.249236,8348.217949
1173.281895,8041.861327,-7046.202306,7046.202306
1173.282194,3906.046930,-4059.225241,7275.969772
1173.282494,612.713244,306.356622,8501.396260
1173.282794,-4442.171019,3676.279464,9650.233593
1173.283093,-9190.698660,4442.171019,13709.458834
1173.283388,-9343.876971,5437.830040,14628.528700
1173.283689,-8424.807105,6663.256528,12790.388968
1173.283990,-6356.899906,2297.674665,13249.923901
1173.284291,-3982.636086,-382.945777,13862.637145
1173.284591,2297.674665,-995.659021,11411.784169
1173.284892,6586.667373,-3293.333686,9803.411904
1173.285193,7122.791461,-6586.667373,9650.233593
1173.285494,8348.217949,-4671.938485,9803.411904
1173.285782,8041.861327,-3140.155375,8654.574571
1173.286083,2297.674665,-2221.085509,8654.574571
1173.286384,-1608.372265,1378.604799,10262.946837
1173.286685,-4825.116796,4135.814397,11794.729947
1173.286986,-7965.272172,6510.078217,13249.923901
1173.287286,-7658.915550,8195.039638,14015.815456
1173.287587,-5591.008351,8807.752882,13173.334746
1173.287888,-2910.387909,4595.349330,11947.908258
1173.288197,-536.124088,765.891555,12713.799813
1173.288496,2374.263820,-3446.511997,11794.729947
1173.288796,5054.884263,-6739.845684,8654.574571
1173.289095,7122.791461,-10033.179370,6663.256528
1173.289395,5973.954129,-10339.535992,6969.613150
1173.289694,2986.977064,-11258.605858,8041.861327
1173.289993,-76.589155,-7812.093861,8348.217949
1173.290293,153.178311,-2833.798753,8195.039638
1173.290600,-2221.085509,1072.248177,7122.791461
1173.290899,-4978.295107,4135.814397,10569.303459
1173.291199,-4748.527641,7122.791461,11794.729947
1173.291499,-2067.907198,8348.217949,10186.357681
1173.291798,-2374.263820,4748.527641,12254.264880
1173.292098,-1608.372265,-689.302399,13479.691368
1173.292398,2986.977064,-3140.155375,11411.784169
1173.292697,7122.791461,-5820.775818,8041.861327
1173.292994,7888.683016,-10033.179370,8577.985416
1173.293292,4748.527641,-12177.675724,10109.768526
1173.293590,1225.426488,-10492.714303,10492.714303
1173.293888,-2450.852976,-5820.775818,10416.125148
1173.294187,-5284.651729,612.713244,9803.411904
1173.294485,-8884.342038,6663.256528,10875.660081
1173.294783,-9880.001059,10416.125148,13096.745590
1173.295081,-5284.651729,14628.528700,14168.993767
1173.295395,-1455.193954,16007.133499,12560.621502
1173.295694,-382.945777,10875.660081,13249.923901
1173.295993,1225.426488,5131.473418,12713.799813
1173.296291,6433.489062,153.178311,11947.908258
1173.296590,8041.861327,-5054.884263,9573.644437
1173.296889,7122.791461,-11564.962480,9114.109504
1173.297188,4671.938485,-14168.993767,10952.249236
1173.297486,5361.240885,-13096.745590,8271.628794
1173.297774,612.713244,-10339.535992,7429.148083
1173.298074,-1148.837332,-5667.597507,7658.915550
1173.298374,-7122.791461,-229.767466,9114.109504
1173.298674,-10186.357681,3829.457775,11028.838392
1173.298974,-8731.163727,8348.217949,11411.784169
1173.299274,-6969.613150,10109.768526,11335.195014
1173.299574,-4825.116796,5284.651729,12101.086569
1173.299874,-1761.550576,765.891555,12560.621502
1173.300174,6127.132440,-3599.690308,9956.590215
1173.300474,12484.032346,-5361.240885,7429.148083
1173.300774,14398.761234,-9726.822748,6510.078217
1173.301074,10569.303459,-11718.140791,6816.434839
1173.301374,6586.667373,-12790.388968,7352.558928
1173.301674,-1608.372265,-11564.962480,9573.644437
1173.301974,-4825.116796,-7658.915550,10262.946837
1173.302274,-8271.628794,-1761.550576,10416.125148
1173.302581,-12101.086569,2297.674665,12560.621502
1173.302880,-10339.535992,7429.148083,15394.420255
1173.303180,-4825.116796,13020.156435,14015.815456
1173.303479,-1455.193954,14628.528700,12560.621502
1173.303778,459.534933,11182.016703,12713.799813
1173.304077,3140.155375,8041.861327,13786.047990
1173.304377,8654.574571,6356.899906,9956.590215
1173.304676,9267.287815,1378.604799,6816.434839
1173.304997,4212.403552,-5361.240885,10875.660081
1173.305294,-842.480710,-9497.055282,12177.675724
1173.305591,-3982.636086,-8884.342038,12177.675724
1173.305888,-3369.922842,-7199.380617,10492.714303
1173.306185,-5131.473418,-4212.403552,10722.481770
1173.306482,-6663.256528,-0.000000,13096.745590
1173.306779,-1455.193954,6050.543284,11105.427547
1173.307076,-76.589155,9573.644437,9420.466126
1173.307394,-995.659021,7122.791461,11488.373325
1173.307692,-3063.566220,1378.604799,12407.443191
1173.307991,1531.783110,306.356622,9726.822748
1173.308289,6280.310751,-1608.372265,6816.434839
1173.308587,5514.419196,-7658.915550,7582.326394
1173.308885,7275.969772,-9343.876971,8348.217949
1173.309183,7046.202306,-9190.698660,7658.915550
1173.309482,2986.977064,-9880.001059,8041.861327
1173.309795,-0.000000,-9650.233593,9267.287815
1173.310091,-3369.922842,-7046.202306,8807.752882
1173.310387,-5897.364973,-6127.132440,9343.876971
1173.310683,-4135.814397,-2221.085509,11641.551636
1173.310979,-4135.814397,919.069866,12101.086569
1173.311275,-689.302399,3216.744531,10109.768526
1173.311571,2680.620442,4978.295107,10722.481770
1173.311867,6127.132440,6203.721595,9573.644437
1173.312166,5820.775818,3982.636086,9267.287815
1173.312467,-536.124088,-76.589155,12943.567279
1173.312768,-229.767466,-76.589155,12713.799813
1173.313068,612.713244,-1302.015643,10109.768526
1173.313369,-3829.457775,-2374.263820,11794.729947
1173.313670,-4748.527641,-1914.728887,11488.373325
1173.313971,-6356.899906,1378.604799,10416.125148
1173.314271,-6816.434839,1378.604799,12790.388968
1173.314578,-3982.636086,3216.744531,13556.280523
1173.314875,-4135.814397,6050.543284,12024.497413
1173.315172,-2221.085509,5591.008351,12790.388968
1173.315469,-0.000000,3369.922842,12560.621502
1173.315766,5514.419196,3829.457775,11028.838392
1173.316063,11182.016703,2604.031287,6816.434839
1173.316360,9114.109504,-1608.372265,9420.466126
1173.316657,5973.954129,-3599.690308,10722.481770
1173.316971,5361.240885,-4212.403552,8501.396260
1173.317273,-0.000000,-5820.775818,8271.628794
1173.317576,-4442.171019,-8118.450483,9956.590215
1173.317879,-8731.163727,-7199.380617,10569.303459
1173.318182,-7505.737239,-3293.333686,9650.233593
1173.318484,-3063.566220,765.891555,9114.109504
1173.318787,-1608.372265,2604.031287,9190.698660
1173.319090,-689.302399,1072.248177,11794.729947
1173.319409,612.713244,-382.945777,11641.551636
1173.319705,6433.489062,306.356622,10109.768526
1173.320001,7582.326394,-1914.728887,8960.931193
1173.320297,6739.845684,-5820.775818,9650.233593
1173.320593,4748.527641,-5667.597507,9267.287815
1173.320889,4671.938485,-5514.419196,7505.737239
1173.321185,-2221.085509,-8731.163727,10109.768526
1173.321481,-6050.543284,-6280.310751,11718.140791
1173.321798,-6050.543284,612.713244,11488.373325
1173.322093,-6663.256528,3982.636086,10875.660081
1173.322387,-4978.295107,8960.931193,12407.443191
1173.322682,-3063.566220,11182.016703,12943.567279
1173.322976,-2221.085509,11182.016703,12254.264880
1173.323271,-1761.550576,6969.613150,12943.567279
1173.323565,306.356622,4135.814397,13403.102212
1173.323860,4059.225241,765.891555,10875.660081
1173.324160,7122.791461,-3752.868619,9190.698660
1173.324460,5667.597507,-5514.419196,10109.768526
1173.324760,5667.597507,-7965.272172,9267.287815
1173.325060,-1302.015643,-9497.055282,10109.768526
1173.325360,-2450.852976,-6893.023995,9803.411904
1173.325660,-4442.171019,-2221.085509,8195.039638
1173.325960,-5131.473418,-1455.193954,9956.590215
1173.326260,-5437.830040,1378.604799,11335.195014
1173.326550,-2221.085509,3523.101153,11641.551636
1173.326853,-1455.193954,3063.566220,12101.086569
1173.327155,1838.139732,-76.589155,10875.660081
1173.327458,5667.597507,153.178311,9573.644437
1173.327761,7046.202306,-2067.907198,8195.039638
1173.328063,7582.326394,-4059.225241,7122.791461
1173.328366,4748.527641,-7199.380617,7582.326394
1173.328669,2527.442131,-9343.876971,8807.752882
1173.328977,-4135.814397,-11718.140791,11488.373325
1173.329276,-6816.434839,-10645.892614,11488.373325
1173.329576,-4595.349330,-5514.419196,9956.590215
1173.329876,-5437.830040,-1302.015643,10875.660081
1173.330176,-2067.907198,4595.349330,12560.621502
1173.330476,1072.248177,10875.660081,11335.195014
1173.330775,919.069866,13632.869679,11947.908258
1173.331075,1531.783110,11794.729947,11641.551636
1173.331358,1684.961421,10875.660081,11335.195014
1173.331661,2297.674665,6356.899906,11028.838392
1173.331964,1838.139732,1225.426488,10722.481770
1173.332267,2833.798753,1378.604799,11335.195014
1173.332570,1531.783110,-995.659021,9267.287815
1173.332873,-4978.295107,-6127.132440,11182.016703
1173.333176,-6203.721595,-5514.419196,13556.280523
1173.333479,-2067.907198,-229.767466,10569.303459
1173.333760,-1914.728887,-1302.015643,9726.822748
1173.334063,-1761.550576,-689.302399,11335.195014
1173.334366,765.891555,2450.852976,12254.264880
1173.334668,2144.496354,1991.318043,10262.946837
1173.334971,459.534933,-2067.907198,11411.784169
1173.335274,1531.783110,-1914.728887,11411.784169
1173.335576,3293.333686,-1148.837332,8654.574571
1173.335879,3906.046930,-2067.907198,7888.683016
1173.336169,4748.527641,-2986.977064,7505.737239
1173.336468,1225.426488,-4671.938485,9880.001059
1173.336767,-1914.728887,-5820.775818,10416.125148
1173.337066,-4595.349330,-5514.419196,10109.768526
1173.337365,-4825.116796,-6127.132440,10186.357681
1173.337664,-5897.364973,-8118.450483,11641.551636
1173.337964,-3216.744531,-5973.954129,11028.838392
1173.338263,612.713244,-3140.155375,9573.644437
1173.338548,919.069866,-4212.403552,11028.838392
1173.338847,1225.426488,-3293.333686,11641.551636
1173.339146,4518.760174,1225.426488,9420.466126
1173.339444,5667.597507,3369.922842,8731.163727
1173.339743,3446.511997,2910.387909,9956.590215
1173.340041,3140.155375,5437.830040,9956.590215
1173.340340,3293.333686,7735.504705,7888.683016
1173.340638,-2374.263820,3369.922842,10109.768526
1173.340979,-5131.473418,-0.000000,12943.567279
1173.341274,-7965.272172,-842.480710,14168.993767
1173.341569,-7505.737239,-1148.837332,13403.102212
1173.341864,-4288.992708,-536.124088,11641.551636
1173.342158,-536.124088,1684.961421,11105.427547
1173.342453,2986.977064,2144.496354,9497.055282
1173.342748,612.713244,-536.124088,9650.233593
1173.343043,1838.139732,-229.767466,10033.179370
1173.343339,5361.240885,-1608.372265,9267.287815
1173.343639,1225.426488,-4059.225241,9956.590215
1173.343939,1838.139732,-1761.550576,10262.946837
1173.344238,-842.480710,-842.480710,9803.411904
1173.344538,-1914.728887,1225.426488,10569.303459
1173.344837,153.178311,1991.318043,9573.644437
1173.345137,-2374.263820,1072.248177,9803.411904
1173.345436,-3676.279464,-1455.193954,11641.551636
1173.345764,-1455.193954,-842.480710,12254.264880
1173.346063,4212.403552,306.356622,10875.660081
1173.346361,6127.132440,-1148.837332,9267.287815
1173.346660,153.178311,-7046.202306,10952.249236
1173.346959,919.069866,-5667.597507,10569.303459
1173.347258,612.713244,-4365.581863,9343.876971
1173.347557,-995.659021,-3752.868619,11182.016703
1173.347855,-1455.193954,-1761.550576,11182.016703
1173.348144,-1302.015643,2910.387909,10416.125148
1173.348444,-1455.193954,4288.992708,9037.520349
1173.348745,-4825.116796,4442.171019,11028.838392
1173.349046,-5591.008351,5437.830040,11947.908258
1173.349347,-4825.116796,3829.457775,11947.908258
1173.349648,-1608.372265,2450.852976,11564.962480
1173.349948,3752.868619,1991.318043,10339.535992
1173.350249,5208.062574,-842.480710,11105.427547
1173.350558,4901.705952,-4901.705952,10339.535992
1173.350854,5361.240885,-4518.760174,9650.233593
1173.351150,4518.760174,-4059.225241,9267.287815
1173.351446,-0.000000,-4825.116796,10569.303459
1173.351742,-995.659021,-2680.620442,9267.287815
1173.352039,-1302.015643,153.178311,8041.861327
1173.352335,-6356.899906,-536.124088,10033.179370
1173.352631,-7505.737239,459.534933,11258.605858
1173.352971,-5437.830040,3216.744531,11105.427547
1173.353266,-3523.101153,2450.852976,10339.535992
1173.353560,-76.589155,1684.961421,11105.427547
1173.353854,3752.868619,1225.426488,10645.892614
1173.354148,4365.581863,-1455.193954,9573.644437
1173.354442,2833.798753,-8118.450483,11028.838392
1173.354736,3599.690308,-10186.357681,10875.660081
1173.355030,2680.620442,-9880.001059,10645.892614
1173.355346,1225.426488,-8731.163727,10875.660081
1173.355648,1378.604799,-4059.225241,9420.466126
1173.355950,1684.961421,2450.852976,7582.326394
1173.356252,-4978.295107,1378.604799,9573.644437
1173.356554,-9880.001059,3982.636086,12943.567279
1173.356855,-9497.055282,6816.434839,12637.210657
1173.357157,-4825.116796,8501.396260,10262.946837
1173.357459,1531.783110,8501.396260,11182.016703
1173.357693,4901.705952,6510.078217,11028.838392
1173.358001,7735.504705,3063.566220,10492.714303
1173.358308,4901.705952,-4365.581863,11718.140791
1173.358616,5361.240885,-8424.807105,10416.125148
1173.358924,4212.403552,-10339.535992,9650.233593
1173.359232,-76.589155,-10952.249236,9803.411904
1173.359539,153.178311,-7505.737239,9343.876971
1173.359847,-2221.085509,-2067.907198,8654.574571
1173.360135,-3523.101153,919.069866,9420.466126
1173.360435,-6356.899906,6203.721595,9956.590215
1173.360735,-5897.364973,11335.195014,10416.125148
1173.361035,-4595.349330,12713.799813,11028.838392
1173.361335,-1761.550576,10875.660081,11028.838392
1173.361635,2986.977064,8195.039638,12560.621502
1173.361935,5208.062574,765.891555,10799.070925
1173.362235,5667.597507,-5054.884263,9956.590215
1173.362534,5054.884263,-10492.714303,10262.946837
1173.362834,2680.620442,-13709.458834,10262.946837
1173.363133,-995.659021,-15011.474478,11028.838392
1173.363432,-1608.372265,-11411.784169,9956.590215
1173.363731,-2910.387909,-6586.667373,8041.861327
1173.364030,-6203.721595,-2067.907198,9880.001059
1173.364330,-7122.791461,2450.852976,11488.373325
1173.364629,-3369.922842,9573.644437,10186.357681
1173.364935,-1455.193954,11488.373325,12407.443191
1173.365238,919.069866,11488.373325,12943.567279
1173.365540,4671.938485,10569.303459,11488.373325
1173.365843,7046.202306,6969.613150,10952.249236
1173.366146,3906.046930,-1761.550576,11182.016703
1173.366449,1072.248177,-7046.202306,12024.497413
1173.366751,1225.426488,-9726.822748,9190.698660
1173.367054,306.356622,-12177.675724,8960.931193
1173.367328,-76.589155,-12790.388968,9803.411904
1173.367632,-2604.031287,-9037.520349,8041.861327
1173.367936,-5591.008351,-6586.667373,8884.342038
1173.368239,-7658.915550,-1608.372265,11258.605858
1173.368543,-5897.364973,3829.457775,11488.373325
1173.368846,-2374.263820,7888.683016,10186.357681
1173.369150,2527.442131,8654.574571,10109.768526
1173.369454,6893.023995,9650.233593,10416.125148
1173.369772,9420.466126,8041.861327,9267.287815
1173.370066,6739.845684,1991.318043,8960.931193
1173.370360,919.069866,-5361.240885,10875.660081
1173.370653,-1914.728887,-10033.179370,11182.016703
1173.370947,-4135.814397,-12637.210657,11335.195014
1173.371240,-2067.907198,-10799.070925,9420.466126
1173.371534,-689.302399,-5973.954129,7429.148083
1173.371827,-3063.566220,-3446.511997,9420.466126
1173.372144,-2450.852976,1531.783110,10492.714303
1173.372443,-2067.907198,5284.651729,11182.016703
1173.372742,-2450.852976,7582.326394,12713.799813
1173.373040,-995.659021,7275.969772,12790.388968
1173.373339,1991.318043,9956.590215,11794.729947
1173.373637,3752.868619,8195.039638,10569.303459
1173.373936,612.713244,1225.426488,12943.567279
1173.374235,765.891555,-2221.085509,12790.388968
1173.374535,2144.496354,-2680.620442,10569.303459
1173.374832,2833.798753,-3599.690308,9956.590215
1173.375129,1531.783110,-3906.046930,9573.644437
1173.375427,1531.783110,-2067.907198,9573.644437
1173.375724,-1914.728887,-3293.333686,9650.233593
1173.376022,-5131.473418,-3752.868619,10722.481770
1173.376319,-5437.830040,-1608.372265,11488.373325
1173.376617,-3982.636086,-229.767466,10569.303459
1173.376924,-689.302399,1072.248177,10339.535992
1173.377224,2833.798753,3216.744531,11182.016703
1173.377524,3446.511997,2450.852976,11182.016703
1173.377825,-0.000000,-1914.728887,11335.195014
1173.378125,1991.318043,-3752.868619,9267.287815
1173.378426,2527.442131,-5054.884263,7812.093861
1173.378726,-0.000000,-9343.876971,10109.768526
1173.379026,153.178311,-9726.822748,10569.303459
1173.379334,2986.977064,-5667.597507,7888.683016
1173.379637,2374.263820,-3446.511997,7275.969772
1173.379940,-842.480710,-2527.442131,9803.411904
1173.380242,-3982.636086,1838.139732,11947.908258
1173.380545,-4748.527641,6356.899906,10875.660081
1173.380848,-3676.279464,6356.899906,10339.535992
1173.381151,-1148.837332,7429.148083,11335.195014
1173.381453,-1455.193954,4825.116796,11641.551636
1173.381691,-2450.852976,765.891555,12713.799813
1173.381999,1072.248177,-0.000000,12101.086569
1173.382307,3906.046930,-2833.798753,11028.838392
1173.382614,4901.705952,-3752.868619,10569.303459
1173.382922,3752.868619,-3140.155375,10262.946837
1173.383229,3446.511997,-995.659021,8654.574571
1173.383537,1838.139732,-995.659021,7275.969772
1173.383844,-3216.744531,919.069866,10033.179370
1173.384116,-6510.078217,306.356622,11335.195014
1173.384417,-8731.163727,-0.000000,12330.854035
1173.384718,-6510.078217,-229.767466,14015.815456
1173.385019,-1608.372265,2757.209598,11947.908258
1173.385320,1531.783110,1991.318043,10416.125148
1173.385621,919.069866,-229.767466,10569.303459
1173.385922,3906.046930,-2067.907198,10033.179370
1173.386223,5054.884263,-2527.442131,9420.466126
1173.386523,4059.225241,-7812.093861,8960.931193
1173.386822,2986.977064,-8884.342038,9956.590215
1173.387121,3599.690308,-5667.597507,9267.287815
1173.387420,1378.604799,-4671.938485,6893.023995
1173.387719,-1302.015643,-1761.550576,9037.520349
1173.388018,-5744.186662,1531.783110,11182.016703
1173.388317,-7122.791461,2604.031287,11488.373325
1173.388617,-4595.349330,5897.364973,11488.373325
1173.388930,-1455.193954,8807.752882,11641.551636
1173.389229,153.178311,6356.899906,11335.195014
1173.389528,919.069866,3523.101153,11947.908258
1173.389827,2833.798753,1531.783110,12713.799813
1173.390125,6127.132440,-842.480710,11028.838392
1173.390424,2986.977064,-4365.581863,9803.411904
1173.390723,2680.620442,-4212.403552,9880.001059
1173.391022,1838.139732,-1455.193954,8501.396260
1173.391329,-2067.907198,-2680.620442,9573.644437
1173.391626,-4748.527641,1531.783110,10416.125148
1173.391923,-5897.364973,4748.527641,10569.303459
1173.392220,-5744.186662,6510.078217,10875.660081
1173.392518,-3216.744531,6356.899906,11258.605858
1173.392815,-1914.728887,8041.861327,12484.032346
1173.393112,-1761.550576,3369.922842,12407.443191
1173.393409,-2910.387909,-1914.728887,12560.621502
1173.393706,2527.442131,-5973.954129,11258.605858
1173.394007,2986.977064,-8884.342038,9803.411904
1173.394308,3140.155375,-13096.745590,9726.822748
1173.394609,4059.225241,-12024.497413,10033.179370
1173.394910,5514.419196,-8424.807105,8654.574571
1173.395211,3446.511997,-6893.023995,6969.613150
1173.395512,-2910.387909,-3293.333686,8041.861327
1173.395813,-4978.295107,153.178311,10262.946837
1173.396141,-6050.543284,2450.852976,10492.714303
1173.396437,-4825.116796,4288.992708,11335.195014
1173.396733,-2450.852976,4978.295107,13020.156435
1173.397029,-382.945777,3369.922842,12560.621502
1173.397326,1531.783110,919.069866,11488.373325
1173.397622,5208.062574,-1914.728887,9956.590215
1173.397918,3906.046930,-5514.419196,11335.195014
1173.398214,1072.248177,-8731.163727,11641.551636
1173.398502,4518.760174,-5514.419196,9267.287815
1173.398803,4518.760174,-3293.333686,6739.845684
1173.399104,1072.248177,-2221.085509,8960.931193
1173.399405,-3216.744531,153.178311,10262.946837
1173.399705,-3829.457775,6663.256528,9267.287815
1173.400006,-3216.744531,9420.466126,10109.768526
1173.400307,-5284.651729,8654.574571,12330.854035
1173.400608,-3676.279464,9573.644437,13632.869679
1173.400917,-1302.015643,6510.078217,11411.784169
1173.401216,-76.589155,1225.426488,10416.125148
1173.401516,1531.783110,-3293.333686,11488.373325
1173.401815,1991.318043,-4518.760174,10109.768526
1173.402115,2527.442131,-5514.419196,10033.179370
1173.402414,4212.403552,-4212.403552,8501.396260
1173.402713,2527.442131,-3446.511997,8348.217949
1173.403013,-3369.922842,-4518.760174,10416.125148
1173.403320,-5284.651729,-1148.837332,9650.233593
1173.403619,-4748.527641,1531.783110,10262.946837
1173.403919,-5437.830040,765.891555,10569.303459
1173.404219,-4825.116796,-842.480710,13403.102212
1173.404518,-689.302399,3063.566220,12560.621502
1173.404818,4671.938485,2297.674665,10339.535992
1173.405118,3140.155375,-2067.907198,11411.784169
1173.405417,4901.705952,-2680.620442,11488.373325
1173.405715,6893.023995,-1914.728887,9267.287815
1173.406012,6280.310751,-3446.511997,7429.148083
1173.406309,2833.798753,-5667.597507,10109.768526
1173.406607,-536.124088,-3752.868619,10569.303459
1173.406904,-3369.922842,-1761.550576,10569.303459
1173.407201,-6356.899906,-76.589155,11028.838392
1173.407499,-5897.364973,2450.852976,10952.249236
1173.407796,-5437.830040,3982.636086,11488.373325
1173.408110,-2221.085509,4595.349330,11028.838392
1173.408409,1378.604799,7582.326394,11641.551636
1173.408708,2680.620442,3982.636086,11335.195014
1173.409007,1838.139732,765.891555,10722.481770
1173.409305,4748.527641,-1455.193954,9114.109504
1173.409604,3752.868619,-3752.868619,8807.752882
1173.409903,1684.961421,-7046.202306,9650.233593
1173.410202,-382.945777,-7046.202306,9803.411904
1173.410513,612.713244,-5514.419196,9420.466126
1173.410813,-2374.263820,-3752.868619,9726.822748
1173.411113,-4825.116796,-1761.550576,10033.179370
1173.411413,-5437.830040,2910.387909,9956.590215
1173.411713,-6510.078217,3063.566220,11488.373325
1173.412013,-5437.830040,1378.604799,12330.854035
1173.412313,-1302.015643,2910.387909,11335.195014
1173.412613,3599.690308,3063.566220,9650.233593
1173.412912,2144.496354,-76.589155,10416.125148
1173.413212,6280.310751,-1148.837332,10262.946837
1173.413511,8195.039638,-536.124088,10262.946837
1173.413810,6127.132440,-3906.046930,9114.109504
1173.414109,1225.426488,-5973.954129,10875.660081
1173.414409,-1608.372265,-4365.581863,10875.660081
1173.414708,-4135.814397,-3752.868619,10722.481770
1173.415007,-7199.380617,-2833.798753,10569.303459
1173.415314,-6356.899906,765.891555,12407.443191
1173.415611,-5284.651729,2910.387909,12024.497413
1173.415907,-995.659021,5591.008351,10875.660081
1173.416204,2986.977064,8195.039638,10339.535992
1173.416501,4212.403552,7429.148083,11641.551636
1173.416797,1225.426488,1991.318043,11794.729947
1173.417094,4901.705952,-0.000000,8501.396260
1173.417391,4901.705952,-1914.728887,8501.396260
1173.417711,919.069866,-8577.985416,9956.590215
1173.418008,-2450.852976,-10339.535992,10799.070925
1173.418305,153.178311,-6586.667373,9650.233593
1173.418602,1838.139732,-4212.403552,7352.558928
1173.418899,-2757.209598,-3293.333686,9573.644437
1173.419196,-3063.566220,2910.387909,9420.466126
1173.419493,-2374.263820,6203.721595,8884.342038
1173.419791,-3982.636086,4748.527641,10875.660081
1173.420092,-3982.636086,2604.031287,12484.032346
1173.420394,-3982.636086,1531.783110,12024.497413
1173.420695,-1148.837332,-229.767466,11335.195014
1173.420997,3599.690308,-3140.155375,10109.768526
1173.421298,3906.046930,-4365.581863,11182.016703
1173.421599,3446.511997,-5973.954129,10109.768526
1173.421901,3293.333686,-5667.597507,9573.644437
1173.422202,2374.263820,-3752.868619,10033.179370
1173.422515,-1608.372265,-2833.798753,9956.590215
1173.422811,-6203.721595,-0.000000,9803.411904
1173.423107,-3216.744531,5131.473418,10033.179370
1173.423403,-2067.907198,6050.543284,10952.249236
1173.423699,-2604.031287,4288.992708,13249.923901
1173.423995,919.069866,6510.078217,13020.156435
1173.424291,6433.489062,6203.721595,9420.466126
1173.424587,4518.760174,1684.961421,9956.590215
1173.424887,2833.798753,-4518.760174,10875.660081
1173.425187,306.356622,-6739.845684,10569.303459
1173.425487,459.534933,-9726.822748,11028.838392
1173.425787,-382.945777,-10033.179370,9420.466126
1173.426087,-995.659021,-8271.628794,9343.876971
1173.426387,-2450.852976,-5208.062574,9956.590215
1173.426687,-3982.636086,-2527.442131,9880.001059
1173.426987,-2910.387909,2144.496354,10339.535992
1173.427294,-1302.015643,5591.008351,9803.411904
1173.427597,-1608.372265,5591.008351,10569.303459
1173.427901,1991.318043,6816.434839,10109.768526
1173.428204,2680.620442,3676.279464,10186.357681
1173.428508,612.713244,-2067.907198,10952.249236
1173.428811,3599.690308,-4059.225241,10875.660081
1173.429114,3599.690308,-4059.225241,11258.605858
1173.429418,2833.798753,-6127.132440,9803.411904
1173.429657,459.534933,-3906.046930,9573.644437
1173.429965,612.713244,-382.945777,9114.109504
1173.430273,-4288.992708,-536.124088,10109.768526
1173.430580,-8884.342038,459.534933,11488.373325
1173.430888,-6203.721595,6203.721595,10722.481770
1173.431196,-3829.457775,6203.721595,10875.660081
1173.431504,-2067.907198,4135.814397,12484.032346
1173.431811,1378.604799,4595.349330,12943.567279
1173.432130,4518.760174,3829.457775,10645.892614
1173.432426,4365.581863,-2527.442131,10186.357681
1173.432722,3752.868619,-4212.403552,12560.621502
1173.433018,3446.511997,-4059.225241,9880.001059
1173.433314,3752.868619,-3752.868619,8195.039638
1173.433610,919.069866,-3293.333686,9267.287815
1173.433907,-995.659021,-3446.511997,9956.590215
1173.434203,-4595.349330,-2221.085509,10109.768526
1173.434520,-7658.915550,-995.659021,10109.768526
1173.434814,-6050.543284,306.356622,10722.481770
1173.435109,-4978.295107,-76.589155,11411.784169
1173.435403,-2604.031287,-689.302399,12024.497413
1173.435698,3293.333686,-382.945777,10262.946837
1173.435992,6586.667373,-689.302399,10569.303459
1173.436287,2833.798753,-4212.403552,10722.481770
1173.436581,5973.954129,-2680.620442,9267.287815
1173.436881,5514.419196,-2680.620442,8348.217949
1173.437181,1225.426488,-5208.062574,9573.644437
1173.437481,-382.945777,-4825.116796,10722.481770
1173.437781,-689.302399,-1608.372265,10109.768526
1173.438081,-76.589155,-382.945777,8807.752882
1173.438381,-2910.387909,919.069866,10875.660081
1173.438681,-6050.543284,3063.566220,12713.799813
1173.438981,-3982.636086,5744.186662,10722.481770
1173.439311,-3369.922842,4748.527641,12790.388968
1173.439608,-2450.852976,4288.992708,12330.854035
1173.439905,306.356622,4135.814397,11641.551636
1173.440202,-536.124088,1378.604799,10569.303459
1173.440499,4901.705952,612.713244,9497.055282
1173.440796,5054.884263,-1148.837332,9650.233593
1173.441093,1838.139732,-2986.977064,10569.303459
1173.441390,-1608.372265,-4059.225241,10952.249236
1173.441698,-1455.193954,-2067.907198,10109.768526
1173.441998,-3216.744531,-1914.728887,9343.876971
1173.442297,-6816.434839,-2374.263820,9880.001059
1173.442597,-6050.543284,-229.767466,11641.551636
1173.442897,-2757.209598,-0.000000,10569.303459
1173.443197,306.356622,459.534933,12024.497413
1173.443497,5054.884263,1378.604799,11794.729947
1173.443796,6127.132440,1378.604799,9726.822748
1173.444080,4748.527641,-3752.868619,10033.179370
1173.444383,5820.775818,-4365.581863,8884.342038
1173.444686,5667.597507,-3446.511997,8654.574571
1173.444988,1225.426488,-9037.520349,9190.698660
1173.445291,-3063.566220,-9880.001059,11488.373325
1173.445594,-1302.015643,-4825.116796,10722.481770
1173.445897,-1148.837332,-1455.193954,8807.752882
1173.446200,-6663.256528,-1914.728887,10875.660081
1173.446481,-9726.822748,1991.318043,13786.047990
1173.446783,-5284.651729,6356.899906,11335.195014
1173.447085,-2221.085509,7429.148083,11488.373325
1173.447387,-382.945777,4595.349330,12024.497413
1173.447689,1378.604799,3982.636086,12407.443191
1173.447991,1991.318043,612.713244,10492.714303
1173.448293,7582.326394,306.356622,8424.807105
1173.448595,6739.845684,-2374.263820,9573.644437
1173.448885,2297.674665,-5514.419196,11028.838392
1173.449184,2680.620442,-4901.705952,9726.822748
1173.449483,3446.511997,-229.767466,8195.039638
1173.449782,-76.589155,-2067.907198,8501.396260
1173.450082,-7122.791461,-3752.868619,11028.838392
1173.450381,-6050.543284,1684.961421,11335.195014
1173.450680,-2757.209598,5437.830040,10109.768526
1173.450979,-3523.101153,3216.744531,11641.551636
1173.451293,-2604.031287,2297.674665,12560.621502
1173.451591,1838.139732,4748.527641,10109.768526
1173.451888,1531.783110,-689.302399,9956.590215
1173.452186,2374.263820,-5054.884263,10262.946837
1173.452484,-842.480710,-9726.822748,11641.551636
1173.452782,1531.783110,-9726.822748,11641.551636
1173.453080,4212.403552,-9650.233593,9650.233593
1173.453378,2527.442131,-7505.737239,9420.466126
1173.453685,153.178311,-4212.403552,9650.233593
1173.453984,-3523.101153,-229.767466,9037.520349
1173.454284,-2757.209598,3982.636086,9420.466126
1173.454584,-3369.922842,5437.830040,9343.876971
1173.454884,-5897.364973,4135.814397,12254.264880
1173.455183,-2221.085509,4288.992708,12177.675724
1173.455483,2833.798753,3216.744531,10722.481770
1173.455783,2144.496354,-3140.155375,12254.264880
1173.456080,4518.760174,-5361.240885,12790.388968
1173.456380,4901.705952,-5054.884263,10722.481770
1173.456680,7122.791461,-4365.581863,8731.163727
1173.456981,3599.690308,-4212.403552,8195.039638
1173.457281,1378.604799,-1302.015643,9037.520349
1173.457581,-1761.550576,1531.783110,10109.768526
1173.457882,-4288.992708,3829.457775,9343.876971
1173.458182,-5284.651729,8195.039638,8348.217949
1173.458477,-5591.008351,7582.326394,10262.946837
1173.458777,-6816.434839,5284.651729,11488.373325
1173.459077,-3216.744531,3523.101153,13249.923901
1173.459377,-1608.372265,2757.209598,11641.551636
1173.459678,459.534933,-4212.403552,11335.195014
1173.459978,3446.511997,-5054.884263,11028.838392
1173.460278,6586.667373,-6586.667373,9114.109504
1173.460578,5208.062574,-9190.698660,9803.411904
1173.460866,2833.798753,-9650.233593,10262.946837
1173.461167,1378.604799,-5208.062574,9497.055282
1173.461468,-995.659021,-382.945777,7275.969772
1173.461768,-5591.008351,1991.318043,8807.752882
1173.462069,-7122.791461,5437.830040,11028.838392
1173.462370,-6816.434839,6510.078217,11718.140791
1173.462671,-6203.721595,4978.295107,14168.993767
1173.462972,153.178311,4442.171019,13403.102212
1173.463281,4212.403552,3523.101153,12713.799813
1173.463580,3752.868619,-2833.798753,12254.264880
1173.463880,7582.326394,-3906.046930,9956.590215
1173.464179,8348.217949,-5208.062574,9114.109504
1173.464478,7122.791461,-7046.202306,9114.109504
1173.464778,2986.977064,-8271.628794,9497.055282
1173.465077,1838.139732,-3752.868619,8654.574571
1173.465377,306.356622,-2221.085509,7735.504705
1173.465684,-6510.078217,-1455.193954,9343.876971
1173.465982,-10339.535992,1378.604799,11564.962480
1173.466280,-10492.714303,4288.992708,13403.102212
1173.466578,-7505.737239,3676.279464,12254.264880
1173.466876,-2910.387909,1991.318043,11794.729947
1173.467174,3140.155375,1531.783110,11335.195014
1173.467472,4212.403552,-2833.798753,9956.590215
1173.467771,10416.125148,-3140.155375,8501.396260
1173.468087,11028.838392,-4365.581863,8348.217949
1173.468385,5208.062574,-5667.597507,9420.466126
1173.468684,1072.248177,-6586.667373,10109.768526
1173.468982,-2757.209598,-1761.550576,9420.466126
1173.469281,-5284.651729,-1914.728887,8654.574571
1173.469579,-10186.357681,-1914.728887,9573.644437
1173.469877,-10186.357681,2297.674665,11411.784169
1173.470176,-5591.008351,5591.008351,12254.264880
1173.470490,-2221.085509,6050.543284,12866.978124
1173.470789,2833.798753,5897.364973,12790.388968
1173.471088,4518.760174,6356.899906,12637.210657
1173.471386,4365.581863,1531.783110,11718.140791
1173.471685,6739.845684,1072.248177,8654.574571
1173.471984,7046.202306,-1302.015643,8654.574571
1173.472283,2297.674665,-7658.915550,10109.768526
1173.472581,-842.480710,-8884.342038,11947.908258
1173.472869,1378.604799,-3293.333686,10339.535992
1173.473169,-842.480710,-3140.155375,8195.039638
1173.473468,-8118.450483,-3140.155375,10722.481770
1173.473767,-8884.342038,1378.604799,12254.264880
1173.474066,-7122.791461,3982.636086,10645.892614
1173.474365,-5897.364973,2144.496354,11335.195014
1173.474664,-995.659021,1991.318043,11335.195014
1173.474963,2374.263820,2450.852976,11488.373325
1173.475263,7275.969772,-1608.372265,9726.822748
1173.475562,10109.768526,-2680.620442,9114.109504
1173.475861,10416.125148,-4059.225241,9420.466126
1173.476161,5820.775818,-6893.023995,9420.466126
1173.476460,919.069866,-8271.628794,9573.644437
1173.476759,-0.000000,-4518.760174,9956.590215
1173.477058,-4595.349330,-5208.062574,7812.093861
1173.477358,-9497.055282,-3906.046930,11182.016703
1173.477665,-8884.342038,919.069866,11488.373325
1173.477963,-5131.473418,5284.651729,10722.481770
1173.478262,-4825.116796,6356.899906,12713.799813
1173.478561,-76.589155,8195.039638,11718.140791
1173.478860,1531.783110,10416.125148,11182.016703
1173.479158,1991.318043,5284.651729,10569.303459
1173.479457,2527.442131,1531.783110,9650.233593
1173.479756,3446.511997,-2986.977064,10952.249236
1173.480076,4212.403552,-6433.489062,10875.660081
1173.480377,6127.132440,-8731.163727,8884.342038
1173.480677,6586.667373,-6586.667373,9267.287815
1173.480977,1991.318043,-6280.310751,8960.931193
1173.481278,-3523.101153,-3752.868619,9956.590215
1173.481578,-2910.387909,2144.496354,9420.466126
1173.481879,-5284.651729,4442.171019,9956.590215
1173.482179,-10952.249236,2757.209598,13709.458834
1173.482498,-7812.093861,4288.992708,13862.637145
1173.482791,-3676.279464,4978.295107,11564.962480
1173.483085,-995.659021,-382.945777,11335.195014
1173.483378,-76.589155,-1761.550576,12254.264880
1173.483672,5361.240885,-1914.728887,9880.001059
1173.483965,8348.217949,-5054.884263,8654.574571
1173.484259,6893.023995,-10492.714303,9497.055282
1173.484552,5054.884263,-7658.915550,9037.520349
1173.484870,2986.977064,-7199.380617,8195.039638
1173.485169,765.891555,-5208.062574,7429.148083
1173.485468,153.178311,-1302.015643,7888.683016
1173.485768,-3982.636086,1684.961421,11335.195014
1173.486067,-7658.915550,2450.852976,13249.923901
1173.486366,-4595.349330,7888.683016,14322.172078
1173.486666,-3216.744531,9956.590215,12560.621502
1173.486965,-3982.636086,5897.364973,11258.605858
1173.487265,-2910.387909,4748.527641,13096.745590
1173.487562,2986.977064,4595.349330,10262.946837
1173.487859,4671.938485,612.713244,9267.287815
1173.488157,2527.442131,-6127.132440,11641.551636
1173.488454,4059.225241,-4059.225241,10186.357681
1173.488752,5973.954129,-2833.798753,7429.148083
1173.489049,3446.511997,-2833.798753,6739.845684
1173.489347,-1608.372265,-1761.550576,8348.217949
1173.489654,-6510.078217,919.069866,10875.660081
1173.489955,-7965.272172,306.356622,11258.605858
1173.490257,-5744.186662,1378.604799,11794.729947
1173.490559,-3982.636086,2604.031287,12254.264880
1173.490861,-4288.992708,-1148.837332,12866.978124
1173.491162,153.178311,-2527.442131,11028.838392
1173.491464,4212.403552,-1914.728887,9803.411904
1173.491766,5820.775818,-4825.116796,10875.660081
1173.492046,3293.333686,-7812.093861,10875.660081
1173.492345,5820.775818,-4212.403552,7888.683016
1173.492644,5514.419196,-3293.333686,5667.597507
1173.492942,-1761.550576,-5973.954129,7888.683016
1173.493241,-6203.721595,-3599.690308,10875.660081
1173.493540,-7658.915550,-1914.728887,12407.443191
1173.493839,-8424.807105,-536.124088,12943.567279
1173.494138,-1455.193954,3523.101153,10722.481770
1173.494455,-842.480710,4442.171019,11182.016703
1173.494754,-995.659021,2450.852976,12101.086569
1173.495053,2374.263820,1531.783110,10875.660081
1173.495352,7735.504705,2450.852976,9956.590215
1173.495652,8960.931193,-1455.193954,9650.233593
1173.495951,3906.046930,-4518.760174,11335.195014
1173.496250,3752.868619,-2527.442131,9956.590215
1173.496549,4671.938485,-382.945777,7812.093861
1173.496866,-3676.279464,-2833.798753,10262.946837
1173.497164,-6816.434839,1072.248177,11028.838392
1173.497462,-7965.272172,5591.008351,9650.233593
1173.497760,-6816.434839,5131.473418,11794.729947
1173.498058,-3982.636086,5591.008351,11488.373325
1173.498355,-5897.364973,5437.830040,14168.993767
1173.498653,-2067.907198,1531.783110,11718.140791
1173.498951,2144.496354,-1148.837332,10033.179370
1173.499251,7888.683016,-1608.372265,9573.644437
1173.499551,6893.023995,-4671.938485,8424.807105
1173.499851,3906.046930,-6127.132440,9803.411904
1173.500151,6127.132440,-2833.798753,7888.683016
1173.500451,2144.496354,-3906.046930,8195.039638
1173.500751,-5897.364973,-5973.954129,11028.838392
1173.501051,-6663.256528,-1455.193954,11028.838392
1173.501351,-4135.814397,2604.031287,10109.768526
1173.501641,-5131.473418,1531.783110,11182.016703
1173.501940,-6510.078217,1072.248177,14781.707011
1173.502239,-3369.922842,4288.992708,12713.799813
1173.502538,-536.124088,3216.744531,11182.016703
1173.502836,1531.783110,-842.480710,10262.946837
1173.503135,4212.403552,-1455.193954,9267.287815
1173.503434,6586.667373,-1302.015643,9267.287815
1173.503732,7122.791461,-6739.845684,9420.466126
1173.504040,5667.597507,-6127.132440,9573.644437
1173.504344,4059.225241,-7658.915550,9497.055282
1173.504649,-536.124088,-5820.775818,9420.466126
1173.504953,-1302.015643,-3446.511997,7735.504705
1173.505258,-4978.295107,-382.945777,11105.427547
1173.505563,-9573.644437,-1608.372265,13249.923901
1173.505867,-5284.651729,2144.496354,12254.264880
1173.506172,-1148.837332,5284.651729,10799.070925
1173.506455,306.356622,4748.527641,10569.303459
1173.506757,1072.248177,2297.674665,11794.729947
1173.507059,3906.046930,2604.031287,10569.303459
1173.507362,3906.046930,1072.248177,10262.946837
1173.507664,612.713244,-3293.333686,10875.660081
1173.507966,-76.589155,-1302.015643,9573.644437
1173.508268,2833.798753,-1148.837332,8424.807105
1173.508570,-2604.031287,-2986.977064,9650.233593
1173.508852,-1761.550576,-3293.333686,10262.946837
1173.509151,306.356622,153.178311,10186.357681
1173.509451,-842.480710,612.713244,11641.551636
1173.509751,-2221.085509,2297.674665,11641.551636
1173.510050,-2067.907198,4135.814397,11182.016703
1173.510350,-2757.209598,6203.721595,11641.551636
1173.510649,-382.945777,3216.744531,10722.481770
1173.510949,1531.783110,3369.922842,11182.016703
1173.511237,3446.511997,1838.139732,11028.838392
1173.511538,2986.977064,-4059.225241,10492.714303
1173.511838,4518.760174,-3906.046930,9573.644437
1173.512139,2680.620442,-5361.240885,9573.644437
1173.512440,-3216.744531,-7046.202306,10875.660081
1173.512741,-3523.101153,-5361.240885,8577.985416
1173.513042,-3676.279464,-2221.085509,9573.644437
1173.513342,-6356.899906,-5054.884263,11028.838392
1173.513628,-4595.349330,-3293.333686,12560.621502
1173.513930,-689.302399,919.069866,10722.481770
1173.514232,2680.620442,459.534933,10109.768526
1173.514534,1378.604799,-1914.728887,11488.373325
1173.514836,5361.240885,765.891555,11335.195014
1173.515137,8960.931193,919.069866,8654.574571
1173.515439,6586.667373,-3906.046930,8807.752882
1173.515741,1838.139732,-4518.760174,11641.551636
1173.516048,459.534933,-3446.511997,9956.590215
1173.516348,-2374.263820,-842.480710,10262.946837
1173.516647,-2221.085509,-842.480710,9420.466126
1173.516947,-4748.527641,4135.814397,10875.660081
1173.517247,-6050.543284,4288.992708,12943.567279
1173.517546,-4135.814397,6510.078217,10569.303459
1173.517846,-3523.101153,5284.651729,11335.195014
1173.518146,-4442.171019,4442.171019,12713.799813
1173.518442,-4288.992708,-0.000000,11794.729947
1173.518741,3293.333686,1378.604799,9956.590215
1173.519040,5361.240885,-3293.333686,10109.768526
1173.519339,4748.527641,-8118.450483,10875.660081
1173.519638,7122.791461,-4212.403552,8807.752882
1173.519936,6280.310751,-2680.620442,6969.613150
1173.520235,612.713244,-2986.977064,7812.093861
1173.520534,-3216.744531,-3446.511997,9420.466126
1173.520829,-6203.721595,-689.302399,9956.590215
1173.521128,-4825.116796,-1914.728887,10569.303459
1173.521427,-5437.830040,-536.124088,12254.264880
1173.521727,-2374.263820,-842.480710,11488.373325
1173.522026,-76.589155,-382.945777,11028.838392
1173.522325,-0.000000,-1302.015643,11488.373325
1173.522624,5667.597507,919.069866,8884.342038
1173.522923,6127.132440,-689.302399,8041.861327
1173.523235,2986.977064,-4059.225241,10492.714303
1173.523536,2986.977064,-2680.620442,10033.179370
1173.523837,2374.263820,-2680.620442,9573.644437
1173.524137,-2604.031287,-4518.760174,9803.411904
1173.524438,-3063.566220,-3906.046930,10416.125148
1173.524739,-3982.636086,1684.961421,11564.962480
1173.525040,-4442.171019,3676.279464,11335.195014
1173.525340,-3982.636086,4825.116796,13556.280523
1173.525649,-3216.744531,5744.186662,12943.567279
1173.525945,-2450.852976,6203.721595,13173.334746
1173.526240,-229.767466,1225.426488,11794.729947
1173.526536,5361.240885,2144.496354,8654.574571
1173.526831,8195.039638,-382.945777,9037.520349
1173.527126,5514.419196,-4901.705952,8807.752882
1173.527422,2680.620442,-5054.884263,10569.303459
1173.527717,1378.604799,-5820.775818,9420.466126
1173.528024,-2757.209598,-6586.667373,9803.411904
1173.528326,-4288.992708,-4518.760174,11335.195014
1173.528628,-2450.852976,-229.767466,9267.287815
1173.528931,-1148.837332,-995.659021,10339.535992
1173.529233,-1302.015643,-382.945777,11028.838392
1173.529535,-1148.837332,-382.945777,10952.249236
1173.529837,-1608.372265,306.356622,12713.799813
1173.530139,-229.767466,-1302.015643,10033.179370
1173.530456,2374.263820,765.891555,10109.768526
1173.530754,1225.426488,-0.000000,10262.946837
1173.531052,2297.674665,-689.302399,9956.590215
1173.531351,2986.977064,612.713244,9956.590215
1173.531649,1378.604799,-1148.837332,8654.574571
1173.531948,-2374.263820,-4059.225241,11182.016703
1173.532246,-4442.171019,-4059.225241,11028.838392
1173.532545,-4442.171019,-2833.798753,10416.125148
1173.532859,-5284.651729,-6433.489062,11411.784169
1173.533154,-3829.457775,-3599.690308,12866.978124
1173.533449,306.356622,-1761.550576,11488.373325
1173.533744,2144.496354,-229.767466,9956.590215
1173.534039,3906.046930,153.178311,9420.466126
1173.534334,7735.504705,2450.852976,7888.683016
1173.534629,7429.148083,1531.783110,8195.039638
1173.534923,3293.333686,-1914.728887,10492.714303
1173.535236,459.534933,-2680.620442,11335.195014
1173.535535,-1761.550576,-1761.550576,9880.001059
1173.535833,-3982.636086,-3140.155375,10109.768526
1173.536132,-4748.527641,-2833.798753,11182.016703
1173.536430,-4825.116796,-689.302399,11488.373325
1173.536729,-1455.193954,612.713244,11335.195014
1173.537027,1531.783110,2757.209598,10033.179370
1173.537325,765.891555,2297.674665,10109.768526
1173.537625,612.713244,3216.744531,11028.838392
1173.537925,-995.659021,-842.480710,11564.962480
1173.538225,2680.620442,1838.139732,9880.001059
1173.538525,2527.442131,153.178311,9573.644437
1173.538825,306.356622,-1455.193954,11335.195014
1173.539125,2527.442131,765.891555,9803.411904
1173.539425,1378.604799,1378.604799,10109.768526
1173.539725,-4442.171019,-842.480710,11564.962480
1173.540032,-6969.613150,-1302.015643,12560.621502
1173.540329,-4595.349330,2757.209598,11182.016703
1173.540626,-1148.837332,1225.426488,8654.574571
1173.540923,-1302.015643,-689.302399,10416.125148
1173.541220,-1302.015643,-2374.263820,10645.892614
1173.541517,1991.318043,-2374.263820,9956.590215
1173.541814,3293.333686,-6739.845684,10109.768526
1173.542110,4901.705952,-6127.132440,9573.644437
1173.542424,4365.581863,-5820.775818,9803.411904
1173.542725,3752.868619,-4671.938485,9956.590215
1173.543025,3752.868619,-3140.155375,8731.163727
1173.543325,-536.124088,-1608.372265,10109.768526
1173.543626,-3369.922842,-2374.263820,11182.016703
1173.543926,-4978.295107,-995.659021,10339.535992
1173.544226,-3063.566220,1684.961421,10186.357681
1173.544527,-3982.636086,919.069866,11794.729947
1173.544845,-2757.209598,765.891555,13096.745590
1173.545142,-0.000000,3063.566220,11488.373325
1173.545439,1991.318043,3982.636086,10416.125148
1173.545736,306.356622,-1148.837332,10875.660081
1173.546033,1378.604799,-76.589155,11028.838392
1173.546330,3906.046930,-1302.015643,10569.303459
1173.546627,2374.263820,-2067.907198,10722.481770
1173.546923,2986.977064,-1914.728887,11028.838392
1173.547241,1991.318043,765.891555,9037.520349
1173.547539,-229.767466,153.178311,9420.466126
1173.547836,-2604.031287,1072.248177,9573.644437
1173.548134,-2910.387909,4442.171019,8807.752882
1173.548432,-2067.907198,3369.922842,11411.784169
1173.548730,-3829.457775,-0.000000,12637.210657
1173.549028,-842.480710,306.356622,12560.621502
1173.549326,919.069866,153.178311,10339.535992
1173.549625,-689.302399,-5667.597507,10339.535992
1173.549922,-0.000000,-6127.132440,10722.481770
1173.550219,1991.318043,-5514.419196,9190.698660
1173.550515,1378.604799,-6127.132440,10109.768526
1173.550812,-229.767466,-6127.132440,10416.125148
1173.551109,-229.767466,-2374.263820,9803.411904
1173.551405,-382.945777,306.356622,8654.574571
1173.551702,-1302.015643,1991.318043,8195.039638
1173.552032,-3829.457775,1991.318043,10109.768526
1173.552329,-3063.566220,1684.961421,11641.551636
1173.552626,-229.767466,3216.744531,11488.373325
1173.552923,5208.062574,1838.139732,9956.590215
1173.553220,3906.046930,-0.000000,11488.373325
1173.553517,3293.333686,-5208.062574,12177.675724
1173.553814,4901.705952,-4901.705952,10339.535992
1173.554111,5514.419196,-3599.690308,9573.644437
1173.554419,-1148.837332,-5361.240885,12407.443191
1173.554719,-1608.372265,-4059.225241,10186.357681
1173.555019,-995.659021,2910.387909,8348.217949
1173.555319,-2450.852976,3676.279464,7965.272172
1173.555618,-6050.543284,3829.457775,10875.660081
1173.555918,-7199.380617,7122.791461,12637.210657
1173.556218,-382.945777,8501.396260,9497.055282
1173.556518,2986.977064,6510.078217,9573.644437
1173.556801,765.891555,1684.961421,12560.621502
1173.557106,-2067.907198,-3446.511997,13862.637145
1173.557411,-76.589155,-7812.093861,12713.799813
1173.557715,6127.132440,-7812.093861,9114.109504
1173.558020,4365.581863,-10186.357681,10569.303459
1173.558325,-229.767466,-9650.233593,12254.264880
1173.558630,3906.046930,-1761.550576,8348.217949
1173.558934,2833.798753,3523.101153,6127.132440
1173.559252,-4442.171019,3523.101153,10569.303459
1173.559549,-7658.915550,7122.791461,12177.675724
1173.559846,-5744.186662,10109.768526,9573.644437
1173.560144,-2604.031287,8960.931193,9420.466126
1173.560441,-3829.457775,2604.031287,13709.458834
1173.560739,-3982.636086,-689.302399,16390.079277
1173.561036,2144.496354,-1148.837332,11641.551636
1173.561334,4212.403552,-4901.705952,9726.822748
1173.561624,6280.310751,-7505.737239,10262.946837
1173.561919,4671.938485,-8118.450483,9650.233593
1173.562215,4059.225241,-6739.845684,8960.931193
1173.562511,5667.597507,-4365.581863,7275.969772
1173.562807,1378.604799,-3446.511997,7888.683016
1173.563103,-3216.744531,-2986.977064,10569.303459
1173.563398,-3829.457775,2297.674665,8960.931193
1173.563694,-2604.031287,5284.651729,8654.574571
1173.564031,-4978.295107,3982.636086,12713.799813
1173.564326,-6816.434839,765.891555,15088.063633
1173.564620,-3369.922842,1838.139732,13709.458834
1173.564915,1072.248177,1838.139732,10416.125148
1173.565209,2833.798753,-2221.085509,9803.411904
1173.565504,4748.527641,-2833.798753,10645.892614
1173.565798,6893.023995,-2680.620442,8118.450483
1173.566093,4365.581863,-4212.403552,9267.287815
1173.566400,3906.046930,-2221.085509,8960.931193
1173.566701,1072.248177,-689.302399,8807.752882
1173.567001,-4288.992708,-76.589155,10722.481770
1173.567302,-5744.186662,2604.031287,9956.590215
1173.567602,-6969.613150,3676.279464,10416.125148
1173.567903,-6203.721595,2757.209598,13786.047990
1173.568203,-3829.457775,2757.209598,14015.815456
1173.568504,2833.798753,5284.651729,12254.264880
1173.568800,4059.225241,3676.279464,10186.357681
1173.569101,1838.139732,-1455.193954,11182.016703
1173.569401,1991.318043,-1148.837332,12943.567279
1173.569701,5667.597507,-1608.372265,8195.039638
1173.570001,4901.705952,-3599.690308,6127.132440
1173.570301,1684.961421,-5973.954129,8960.931193
1173.570601,-2910.387909,-4901.705952,9956.590215
1173.570901,-5591.008351,-4518.760174,10799.070925
1173.571195,-4288.992708,-2986.977064,10645.892614
1173.571496,-5744.186662,-2374.263820,11182.016703
1173.571796,-5591.008351,-689.302399,13939.226301
1173.572096,-1914.728887,1378.604799,11794.729947
1173.572396,2986.977064,3982.636086,10416.125148
1173.572696,3140.155375,2450.852976,11335.195014
1173.572996,3140.155375,-0.000000,11028.838392
1173.573296,8041.861327,1991.318043,7582.326394
1173.573608,10109.768526,1072.248177,6816.434839
1173.573906,1991.318043,-4518.760174,11105.427547
1173.574203,-382.945777,-5973.954129,12254.264880
1173.574501,153.178311,-842.480710,8960.931193
1173.574798,-842.480710,-842.480710,8195.039638
1173.575095,-6969.613150,-2680.620442,12484.032346
1173.575393,-10645.892614,306.356622,13479.691368
1173.575690,-4748.527641,6203.721595,10722.481770
1173.576046,765.891555,6356.899906,9114.109504
1173.576338,-2221.085509,4135.814397,11794.729947
1173.576630,-1148.837332,2450.852976,12790.388968
1173.576922,1531.783110,612.713244,9114.109504
1173.577214,4901.705952,-1148.837332,8501.396260
1173.577506,3906.046930,-7658.915550,9956.590215
1173.577798,-3063.566220,-12484.032346,14015.815456
1173.578090,1684.961421,-9190.698660,10186.357681
1173.578397,4671.938485,-4825.116796,6663.256528
1173.578695,-1302.015643,-5973.954129,9114.109504
1173.578994,-2757.209598,-2833.798753,10109.768526
1173.579292,-1455.193954,3369.922842,8884.342038
1173.579591,-1302.015643,5437.830040,9650.233593
1173.579889,-5284.651729,612.713244,12790.388968
1173.580188,-6510.078217,1378.604799,14168.993767
1173.580486,-2067.907198,3369.922842,10416.125148
1173.580802,-689.302399,-2067.907198,10722.481770
1173.581100,-689.302399,-5514.419196,12713.799813
1173.581398,3293.333686,-5667.597507,11488.373325
1173.581695,5973.954129,-4825.116796,10033.179370
1173.581993,9956.590215,-5514.419196,7888.683016
1173.582291,7888.683016,-2067.907198,8348.217949
1173.582589,3906.046930,-1761.550576,9803.411904
1173.582886,1072.248177,2144.496354,8501.396260
1173.583201,-2067.907198,4442.171019,8348.217949
1173.583499,-6816.434839,3523.101153,12560.621502
1173.583798,-6969.613150,4595.349330,12560.621502
1173.584097,-4748.527641,7275.969772,11794.729947
1173.584395,-4288.992708,3216.744531,11794.729947
1173.584694,-3982.636086,-0.000000,13403.102212
1173.584993,153.178311,-0.000000,12484.032346
1173.585292,5973.954129,153.178311,9190.698660
1173.585580,3599.690308,-5054.884263,10722.481770
1173.585882,4059.225241,-6739.845684,10109.768526
1173.586185,5973.954129,-3293.333686,7888.683016
1173.586487,3752.868619,-3293.333686,7888.683016
1173.586790,-1455.193954,-1455.193954,8960.931193
1173.587092,-2910.387909,2757.209598,9267.287815
1173.587394,-2604.031287,6816.434839,9650.233593
1173.587697,-4825.116796,5591.008351,12101.086569
1173.587985,-6969.613150,3829.457775,13709.458834
1173.588286,-6663.256528,2297.674665,13096.745590
1173.588588,-3216.744531,-76.589155,12713.799813
1173.588889,-1914.728887,-4901.705952,12101.086569
1173.589190,2144.496354,-8118.450483,12713.799813
1173.589491,5514.419196,-8118.450483,10109.768526
1173.589793,9650.233593,-6586.667373,7658.915550
1173.590094,9114.109504,-4901.705952,6280.310751
1173.590401,3446.511997,-3906.046930,8041.861327
1173.590700,1838.139732,-229.767466,9114.109504
1173.590999,-3216.744531,-0.000000,9267.287815
1173.591299,-6050.543284,-229.767466,11258.605858
1173.591598,-6969.613150,-1914.728887,11411.784169
1173.591897,-5897.364973,-842.480710,12254.264880
1173.592196,-4288.992708,-3906.046930,13709.458834
1173.592495,-2910.387909,-3752.868619,13862.637145
1173.592816,3906.046930,-2986.977064,10875.660081
1173.593113,7735.504705,-1761.550576,8501.396260
1173.593410,5973.954129,-2986.977064,10109.768526
1173.593707,7046.202306,-689.302399,8731.163727
1173.594004,5973.954129,2910.387909,5973.954129
1173.594301,-76.589155,2450.852976,8041.861327
1173.594598,-4442.171019,2450.852976,9803.411904
1173.594895,-7965.272172,3523.101153,11794.729947
1173.595214,-7352.558928,4748.527641,11794.729947
1173.595512,-9037.520349,1684.961421,13249.923901
1173.595810,-7812.093861,1991.318043,15241.241944
1173.596109,-3063.566220,3063.566220,12790.388968
1173.596407,3446.511997,2757.209598,9956.590215
1173.596705,6893.023995,2450.852976,9114.109504
1173.597003,7735.504705,153.178311,9420.466126
1173.597302,6893.023995,-2067.907198,10262.946837
1173.597615,9420.466126,-2374.263820,6739.845684
1173.597911,2986.977064,-2833.798753,8195.039638
1173.598207,-3829.457775,-5973.954129,9880.001059
1173.598503,-8118.450483,-4365.581863,10569.303459
1173.598799,-6969.613150,-2067.907198,11411.784169
1173.599095,-6816.434839,-76.589155,12790.388968
1173.599391,-7505.737239,-995.659021,12637.210657
1173.599687,1531.783110,4748.527641,11258.605858
1173.599975,5361.240885,3369.922842,10569.303459
1173.600277,2527.442131,765.891555,11488.373325
1173.600579,2527.442131,-1608.372265,10875.660081
1173.600882,7122.791461,-2067.907198,7429.148083
1173.601184,5667.597507,-5514.419196,8501.396260
1173.601487,2986.977064,-7965.272172,10339.535992
1173.601789,-1302.015643,-6433.489062,10262.946837
1173.602091,459.534933,-4901.705952,10109.768526
1173.602398,-3216.744531,-3599.690308,10875.660081
1173.602695,-6510.078217,-536.124088,12790.388968
1173.602992,-5284.651729,3063.566220,10722.481770
1173.603289,-2757.209598,3829.457775,9880.001059
1173.603586,-382.945777,5591.008351,10875.660081
1173.603883,-0.000000,4135.814397,11641.551636
1173.604180,153.178311,3982.636086,12330.854035
1173.604477,8654.574571,3982.636086,7888.683016
1173.604791,6586.667373,1072.248177,9650.233593
1173.605087,612.713244,-6280.310751,10569.303459
1173.605384,1072.248177,-6280.310751,9420.466126
1173.605680,765.891555,-3906.046930,8654.574571
1173.605977,-4442.171019,-7812.093861,9650.233593
1173.606273,-7505.737239,-8424.807105,12790.388968
1173.606570,-3369.922842,-2221.085509,10339.535992
1173.606866,306.356622,919.069866,8807.752882
1173.607183,-2067.907198,-1302.015643,11488.373325
1173.607481,-2757.209598,3063.566220,12101.086569
1173.607780,1991.318043,6816.434839,9573.644437
1173.608078,-76.589155,3829.457775,8807.752882
1173.608377,-2067.907198,1225.426488,11488.373325
1173.608675,-1302.015643,1991.318043,13556.280523
1173.608973,2144.496354,-689.302399,10262.946837
1173.609272,5208.062574,-2527.442131,9343.876971
1173.609589,1838.139732,-3140.155375,10109.768526
1173.609887,-382.945777,-4059.225241,11641.551636
1173.610185,153.178311,-1761.550576,9956.590215
1173.610483,1225.426488,612.713244,7735.504705
1173.610780,-1761.550576,153.178311,10109.768526
1173.611078,-3063.566220,-2374.263820,11871.319102
1173.611376,459.534933,2450.852976,11564.962480
1173.611674,2374.263820,4288.992708,10109.768526
1173.611974,-2604.031287,-382.945777,12254.264880
1173.612274,-2450.852976,-2527.442131,11718.140791
1173.612574,2297.674665,765.891555,10416.125148
1173.612874,-76.589155,-4825.116796,9803.411904
1173.613174,-1914.728887,-7352.558928,11411.784169
1173.613474,-1302.015643,-4518.760174,12177.675724
1173.613774,3752.868619,-1302.015643,8041.861327
1173.614074,4748.527641,-842.480710,7888.683016
1173.614364,153.178311,765.891555,11028.838392
1173.614667,-536.124088,2910.387909,9880.001059
1173.614969,-689.302399,3982.636086,9726.822748
1173.615272,-1761.550576,5131.473418,10722.481770
1173.615575,-4825.116796,1531.783110,11794.729947
1173.615877,-9037.520349,-995.659021,14322.172078
1173.616180,-1455.193954,-842.480710,9880.001059
1173.616482,2374.263820,-2221.085509,10569.303459
1173.616762,2144.496354,-6739.845684,12713.799813
1173.617065,6280.310751,-5820.775818,9650.233593
1173.617368,6586.667373,-1455.193954,6969.613150
1173.617671,3599.690308,-1148.837332,8195.039638
1173.617974,-4825.116796,-3140.155375,10109.768526
1173.618277,-5284.651729,1072.248177,9956.590215
1173.618581,-4978.295107,3829.457775,9573.644437
1173.618884,-5744.186662,765.891555,10952.249236
1173.619167,-4748.527641,-76.589155,11947.908258
1173.619467,-1455.193954,-229.767466,11182.016703
1173.619766,765.891555,-1148.837332,10722.481770
1173.620066,4059.225241,-5361.240885,10262.946837
1173.620366,4212.403552,-3906.046930,11028.838392
1173.620665,4748.527641,-5820.775818,11335.195014
1173.620965,7582.326394,-2374.263820,8348.217949
1173.621264,6280.310751,-0.000000,7352.558928
1173.621559,2986.977064,1684.961421,8348.217949
1173.621860,-3982.636086,-1608.372265,10875.660081
1173.622161,-5591.008351,2910.387909,12254.264880
1173.622462,-5284.651729,3523.101153,11564.962480
1173.622763,-7965.272172,1378.604799,12713.799813
1173.623064,-6203.721595,1378.604799,13709.458834
1173.623365,-1148.837332,2910.387909,11488.373325
1173.623665,919.069866,1072.248177,11641.551636
1173.623977,2986.977064,-2221.085509,10722.481770
1173.624274,8041.861327,-229.767466,9803.411904
1173.624571,6739.845684,-1302.015643,9803.411904
1173.624867,5667.597507,-2067.907198,9420.466126
1173.625164,2374.263820,-842.480710,8501.396260
1173.625461,-1761.550576,1072.248177,10109.768526
1173.625758,-4442.171019,919.069866,8807.752882
1173.626054,-6969.613150,2604.031287,9573.644437
1173.626368,-8424.807105,459.534933,12637.210657
1173.626666,-6050.543284,-2833.798753,12407.443191
1173.626964,-1914.728887,-2527.442131,10569.303459
1173.627262,1991.318043,-4212.403552,9803.411904
1173.627559,1684.961421,-5973.954129,11258.605858
1173.627857,5514.419196,-4365.581863,9956.590215
1173.628155,7122.791461,-689.302399,9573.644437
1173.628453,5208.062574,-1455.193954,10569.303459
1173.628760,4212.403552,2450.852976,9037.520349
1173.629060,2986.977064,4978.295107,7735.504705
1173.629359,-995.659021,3982.636086,7888.683016
1173.629659,-9190.698660,-1914.728887,12101.086569
1173.629959,-8884.342038,-536.124088,12101.086569
1173.630258,-7658.915550,-3140.155375,12254.264880
1173.630558,-6969.613150,-5514.419196,14015.815456
1173.630857,-2450.852976,-5361.240885,12713.799813
1173.631154,2833.798753,-3906.046930,10262.946837
1173.631454,4518.760174,-1761.550576,9803.411904
1173.631753,8960.931193,-1608.372265,9114.109504
1173.632053,10569.303459,1072.248177,8654.574571
1173.632352,6280.310751,-0.000000,9803.411904
1173.632652,3752.868619,612.713244,9880.001059
1173.632951,612.713244,1531.783110,8807.752882
1173.633251,-1302.015643,1991.318043,10109.768526
1173.633579,-4442.171019,-689.302399,9114.109504
1173.633877,-8271.628794,612.713244,12101.086569
1173.634176,-8271.628794,-382.945777,12407.443191
1173.634475,-5591.008351,-842.480710,12713.799813
1173.634774,-995.659021,-76.589155,12866.978124
1173.635072,3599.690308,1225.426488,8731.163727
1173.635371,2374.263820,-0.000000,10186.357681
1173.635670,3140.155375,-689.302399,10645.892614
1173.635958,4901.705952,-536.124088,9803.411904
1173.636259,919.069866,-3446.511997,10416.125148
1173.636560,-689.302399,-2680.620442,10109.768526
1173.636860,-3369.922842,-1914.728887,10186.357681
1173.637161,-2374.263820,153.178311,8807.752882
1173.637462,-4595.349330,1531.783110,9803.411904
1173.637763,-4595.349330,2910.387909,11794.729947
1173.638064,-2757.209598,1684.961421,10262.946837
1173.638373,-1148.837332,153.178311,11794.729947
1173.638669,1225.426488,-1608.372265,12713.799813
1173.638965,2374.263820,-2833.798753,10033.179370
1173.639261,3446.511997,-3140.155375,10033.179370
1173.639557,8807.752882,-3752.868619,7888.683016
1173.639853,5973.954129,-4901.705952,8424.807105
1173.640149,2297.674665,-6280.310751,11105.427547
1173.640445,1225.426488,-6127.132440,10262.946837
1173.640752,-1148.837332,-4059.225241,11335.195014
1173.641054,-2374.263820,-1455.193954,10722.481770
1173.641357,-6510.078217,-689.302399,10569.303459
1173.641659,-4825.116796,5591.008351,9343.876971
1173.641961,-3982.636086,4825.116796,10262.946837
1173.642263,-4595.349330,3369.922842,13403.102212
1173.642566,-2067.907198,3523.101153,12943.567279
1173.642868,1531.783110,3982.636086,10875.660081
1173.643184,1838.139732,-229.767466,11105.427547
1173.643482,4365.581863,-3293.333686,11335.195014
1173.643781,7582.326394,-2374.263820,8807.752882
1173.644079,6893.023995,-3293.333686,7505.737239
1173.644378,3599.690308,-6586.667373,9956.590215
1173.644676,-1148.837332,-5514.419196,10952.249236
1173.644975,-1608.372265,-1455.193954,9573.644437
1173.645273,-3676.279464,306.356622,9420.466126
1173.645587,-4442.171019,3523.101153,9343.876971
1173.645884,-4442.171019,3369.922842,10262.946837
1173.646180,-4595.349330,4288.992708,12943.567279
1173.646476,-2374.263820,1378.604799,11794.729947
1173.646772,-689.302399,-76.589155,11028.838392
1173.647069,-76.589155,-3599.690308,11182.016703
1173.647365,3752.868619,-5667.597507,10262.946837
1173.647661,3752.868619,-6739.845684,10645.892614
1173.647949,919.069866,-7965.272172,11488.373325
1173.648249,2527.442131,-5973.954129,11411.784169
1173.648549,2527.442131,-2221.085509,9037.520349
1173.648849,1531.783110,2910.387909,7275.969772
1173.649149,-2450.852976,1531.783110,8577.985416
1173.649449,-7199.380617,3523.101153,10875.660081
1173.649749,-5591.008351,3829.457775,12101.086569
1173.650049,-3982.636086,3216.744531,12407.443191
1173.650348,-2221.085509,-0.000000,11641.551636
1173.650648,3446.511997,306.356622,9880.001059
1173.650947,2986.977064,-4059.225241,12101.086569
1173.651246,6433.489062,-6127.132440,10416.125148
1173.651545,7429.148083,-5208.062574,9343.876971
1173.651845,5361.240885,-5820.775818,10109.768526
1173.652144,2297.674665,-6127.132440,10109.768526
1173.652443,-689.302399,-2221.085509,9803.411904
1173.652750,-2067.907198,3982.636086,7735.504705
1173.653053,-4595.349330,4135.814397,8118.450483
1173.653355,-4748.527641,5437.830040,11182.016703
1173.653658,-3982.636086,6356.899906,11641.551636
1173.653960,-1914.728887,7122.791461,12101.086569
1173.654263,306.356622,3216.744531,9956.590215
1173.654566,-1455.193954,2450.852976,13709.458834
1173.654868,-1761.550576,-3140.155375,14858.296167
1173.655142,3293.333686,-3446.511997,9803.411904
1173.655446,7046.202306,-0.000000,6663.256528
1173.655750,5514.419196,-4825.116796,9420.466126
1173.656053,-382.945777,-6433.489062,11488.373325
1173.656357,3752.868619,459.534933,7965.272172
1173.656660,-0.000000,3829.457775,6510.078217
1173.656964,-8271.628794,-76.589155,11182.016703
1173.657268,-11871.319102,1378.604799,14475.350389
1173.657586,-8118.450483,4288.992708,11258.605858
1173.657879,-3982.636086,4748.527641,11411.784169
1173.658172,-3829.457775,-2680.620442,12254.264880
1173.658465,-995.659021,-3293.333686,13709.458834
1173.658757,4748.527641,-4671.938485,12254.264880
1173.659050,9956.590215,-3293.333686,7965.272172
1173.659343,9267.287815,-5361.240885,8807.752882
1173.659636,4212.403552,-8118.450483,9956.590215
1173.659953,2833.798753,-5820.775818,9803.411904
1173.660251,1838.139732,-995.659021,8501.396260
1173.660550,-1148.837332,-536.124088,8041.861327
1173.660848,-7122.791461,-1914.728887,10722.481770
1173.661147,-4978.295107,2450.852976,10722.481770
1173.661446,-1761.550576,3063.566220,9956.590215
1173.661744,-5131.473418,1531.783110,13939.226301
1173.662043,-3369.922842,-1455.193954,14475.350389
1173.662343,1684.961421,3063.566220,11028.838392
1173.662643,2986.977064,1225.426488,9420.466126
1173.662944,4518.760174,153.178311,9573.644437
1173.663245,2527.442131,-842.480710,10262.946837
1173.663546,2680.620442,-2067.907198,9880.001059
1173.663846,3293.333686,-4212.403552,8807.752882
1173.664147,153.178311,-3752.868619,8731.163727
1173.664448,-842.480710,-2527.442131,9497.055282
1173.664755,-4748.527641,-2833.798753,9650.233593
1173.665052,-3829.457775,919.069866,9573.644437
1173.665349,-2221.085509,2910.387909,9880.001059
1173.665646,-4135.814397,2604.031287,12484.032346
1173.665943,-1302.015643,459.534933,12254.264880
1173.666240,765.891555,1531.783110,10722.481770
1173.666537,153.178311,-536.124088,10952.249236
1173.666834,1838.139732,-1914.728887,9956.590215
1173.667142,2374.263820,-3140.155375,10109.768526
1173.667441,919.069866,-3446.511997,12101.086569
1173.667739,-0.000000,-3446.511997,10722.481770
1173.668038,1838.139732,765.891555,8348.217949
1173.668337,-229.767466,612.713244,10416.125148
1173.668636,-1914.728887,-536.124088,11028.838392
1173.668935,-229.767466,5131.473418,8348.217949
1173.669234,-382.945777,4978.295107,8041.861327
1173.669551,-5897.364973,-1148.837332,13862.637145
1173.669850,-5897.364973,-2986.977064,14322.172078
1173.670149,-689.302399,612.713244,12024.497413
1173.670448,765.891555,-2527.442131,10569.303459
1173.670747,765.891555,-4212.403552,11794.729947
1173.671047,6586.667373,-2374.263820,9573.644437
1173.671346,8654.574571,-842.480710,6586.667373
1173.671645,7046.202306,-4059.225241,9573.644437
1173.671962,2680.620442,-4518.760174,10875.660081
1173.672260,2374.263820,-1302.015643,9573.644437
1173.672558,1531.783110,1072.248177,8041.861327
1173.672856,-3523.101153,3676.279464,10033.179370
1173.673154,-8118.450483,3523.101153,12254.264880
1173.673451,-10339.535992,5284.651729,12713.799813
1173.673749,-7122.791461,8195.039638,11258.605858
1173.674047,-7965.272172,4825.116796,12101.086569
1173.674324,-8884.342038,-0.000000,13862.637145
1173.674624,-0.000000,-536.124088,9880.001059
1173.674924,8041.861327,-2067.907198,7965.272172
1173.675224,9497.055282,-8118.450483,9726.822748
1173.675524,10416.125148,-10645.892614,10109.768526
1173.675824,12024.497413,-5973.954129,7582.326394
1173.676124,9650.233593,-2680.620442,5591.008351
1173.676424,-842.480710,-3906.046930,9267.287815
1173.676737,-8731.163727,-1455.193954,11564.962480
1173.677036,-10033.179370,3523.101153,11028.838392
1173.677335,-10645.892614,3829.457775,12254.264880
1173.677633,-11871.319102,306.356622,12713.799813
1173.677932,-8424.807105,1684.961421,13020.156435
1173.678231,-2757.209598,-689.302399,11411.784169
1173.678530,2986.977064,-1914.728887,10416.125148
1173.678828,6433.489062,-5361.240885,10569.303459
1173.679135,8960.931193,-7046.202306,10875.660081
1173.679435,10875.660081,-7352.558928,9497.055282
1173.679734,10569.303459,-5820.775818,7735.504705
1173.680033,6280.310751,-4365.581863,8195.039638
1173.680332,3140.155375,-1608.372265,8348.217949
1173.680632,612.713244,3829.457775,8807.752882
1173.680931,-6050.543284,4442.171019,11871.319102
1173.681230,-11947.908258,3982.636086,13326.513057
1173.681527,-9497.055282,6203.721595,12254.264880
1173.681828,-7352.558928,7122.791461,12790.388968
1173.682129,-6816.434839,2450.852976,15241.241944
1173.682430,-229.767466,1378.604799,12407.443191
1173.682731,7888.683016,2910.387909,7429.148083
1173.683032,11335.195014,-536.124088,8960.931193
1173.683333,5820.775818,-6280.310751,11488.373325
1173.683634,5973.954129,-2680.620442,8577.985416
1173.683929,5054.884263,-1302.015643,6510.078217
1173.684230,-842.480710,-1761.550576,8195.039638
1173.684531,-5591.008351,-2374.263820,11335.195014
1173.684832,-7965.272172,1072.248177,11028.838392
1173.685133,-5897.364973,4595.349330,9650.233593
1173.685433,-4978.295107,2144.496354,11182.016703
1173.685734,-6816.434839,1531.783110,14015.815456
1173.686035,-4748.527641,-229.767466,14858.296167
1173.686323,2374.263820,1225.426488,9956.590215
1173.686624,6586.667373,-0.000000,8577.985416
1173.686925,5820.775818,-4212.403552,11641.551636
1173.687226,5054.884263,-5667.597507,10033.179370
1173.687526,7122.791461,-1302.015643,8501.396260
1173.687827,3446.511997,-2833.798753,6586.667373
1173.688128,-4595.349330,-5514.419196,10569.303459
1173.688429,-7199.380617,-4059.225241,10569.303459
1173.688715,-5284.651729,-229.767466,9650.233593
1173.689017,-8271.628794,-1914.728887,13403.102212
1173.689320,-5437.830040,-3293.333686,13020.156435
1173.689623,-0.000000,1531.783110,11335.195014
1173.689925,3599.690308,765.891555,10033.179370
1173.690228,4671.938485,-1455.193954,10262.946837
1173.690531,4365.581863,-2986.977064,11258.605858
1173.690833,6280.310751,-2067.907198,10262.946837
1173.691141,6739.845684,-3752.868619,8654.574571
1173.691440,6280.310751,-2221.085509,8807.752882
1173.691740,5054.884263,1072.248177,8731.163727
1173.692040,612.713244,2604.031287,8884.342038
1173.692339,-4135.814397,3523.101153,9267.287815
1173.692639,-8118.450483,5284.651729,10722.481770
1173.692939,-12254.264880,3216.744531,13173.334746
1173.693238,-11411.784169,1531.783110,14475.350389
1173.693535,-10492.714303,1378.604799,13326.513057
1173.693832,-3982.636086,-76.589155,12407.443191
1173.694130,3906.046930,-842.480710,10109.768526
1173.694427,9956.590215,-229.767466,8654.574571
1173.694725,12790.388968,-1608.372265,8271.628794
1173.695022,9956.590215,-3293.333686,8501.396260
1173.695319,6280.310751,-382.945777,7812.093861
1173.695617,3293.333686,-689.302399,8424.807105
1173.695931,-5437.830040,-2221.085509,11335.195014
1173.696230,-6969.613150,-536.124088,9267.287815
1173.696528,-8424.807105,919.069866,10569.303459
1173.696827,-9880.001059,-689.302399,15241.241944
1173.697126,-5897.364973,-2067.907198,13556.280523
1173.697424,-2374.263820,2757.209598,11947.908258
1173.697723,1531.783110,3063.566220,10339.535992
1173.698022,3293.333686,459.534933,10109.768526
1173.698275,4671.938485,765.891555,9956.590215
1173.698580,7582.326394,-0.000000,7888.683016
1173.698885,4748.527641,-4825.116796,9420.466126
1173.699190,4059.225241,-5973.954129,9650.233593
1173.699495,3446.511997,-4671.938485,8807.752882
1173.699800,612.713244,-3599.690308,10262.946837
1173.700105,-3063.566220,-2067.907198,11028.838392
1173.700410,-5131.473418,-229.767466,12101.086569
1173.700710,-6663.256528,-0.000000,12484.032346
1173.701010,-5591.008351,1378.604799,11182.016703
1173.701310,-4748.527641,3523.101153,11028.838392
1173.701610,-1608.372265,1225.426488,10569.303459
1173.701910,3293.333686,-76.589155,11335.195014
1173.702210,7888.683016,-76.589155,9267.287815
1173.702510,8654.574571,-995.659021,9267.287815
1173.702810,3906.046930,-4671.938485,11794.729947
1173.703117,4212.403552,-1608.372265,8731.163727
1173.703418,2374.263820,-689.302399,8041.861327
1173.703720,-4825.116796,-382.945777,9650.233593
1173.704021,-7199.380617,-2221.085509,10875.660081
1173.704323,-6510.078217,306.356622,12177.675724
1173.704624,-4135.814397,1225.426488,11794.729947
1173.704926,-1608.372265,153.178311,9650.233593
1173.705227,-842.480710,306.356622,10645.892614
1173.705544,-842.480710,-536.124088,12254.264880
1173.705841,3906.046930,-382.945777,9573.644437
1173.706138,3906.046930,-382.945777,9420.466126
1173.706435,2527.442131,-2986.977064,10875.660081
1173.706732,1684.961421,-6739.845684,11028.838392
1173.707029,2297.674665,-3293.333686,11028.838392
1173.707326,1684.961421,-1761.550576,7888.683016
1173.707623,-2221.085509,-2680.620442,9573.644437
1173.707941,-3216.744531,-2527.442131,11028.838392
1173.708236,-2067.907198,919.069866,11488.373325
1173.708531,-3676.279464,612.713244,12101.086569
1173.708826,-2757.209598,1072.248177,9420.466126
1173.709121,-2374.263820,2144.496354,12024.497413
1173.709416,-1608.372265,-995.659021,13326.513057
1173.709711,3906.046930,-76.589155,9343.876971
1173.710006,6893.023995,765.891555,7582.326394
1173.710319,3906.046930,-4365.581863,10875.660081
1173.710618,1531.783110,-7658.915550,12790.388968
1173.710917,2986.977064,-1914.728887,10339.535992
1173.711217,4518.760174,1072.248177,6510.078217
1173.711516,-995.659021,-76.589155,9114.109504
1173.711815,-3982.636086,1072.248177,11641.551636
1173.712115,-2374.263820,5897.364973,10952.249236
1173.712414,-3676.279464,5284.651729,9956.590215
1173.712714,-5284.651729,2144.496354,10569.303459
1173.713014,-7352.558928,-229.767466,12407.443191
1173.713315,-2910.387909,-76.589155,12254.264880
1173.713616,-229.767466,-1608.372265,9956.590215
1173.713917,1531.783110,-4212.403552,9267.287815
1173.714217,2374.263820,-7505.737239,12407.443191
1173.714518,4671.938485,-9343.876971,12330.854035
1173.714819,8041.861327,-3293.333686,7735.504705
1173.715126,7046.202306,-382.945777,6816.434839
1173.715423,1838.139732,-995.659021,9190.698660
1173.715720,-382.945777,1378.604799,9956.590215
1173.716017,-536.124088,6816.434839,9803.411904
1173.716313,-6203.721595,3216.744531,10875.660081
1173.716610,-8424.807105,2297.674665,13096.745590
1173.716907,-5437.830040,2910.387909,11718.140791
1173.717204,-4288.992708,1225.426488,10645.892614
1173.717518,-5591.008351,-3752.868619,13096.745590
1173.717821,-3063.566220,-5514.419196,11182.016703
1173.718124,1684.961421,-5514.419196,11641.551636
1173.718426,6586.667373,-6586.667373,9956.590215
1173.718729,6893.023995,-4671.938485,7275.969772
1173.719032,6127.132440,-3752.868619,9573.644437
1173.719335,5208.062574,-2067.907198,8041.861327
1173.719637,4518.760174,-689.302399,7735.504705
1173.719875,1991.318043,2910.387909,9573.644437
1173.720183,-4135.814397,-76.589155,12101.086569
1173.720491,-6050.543284,-76.589155,13403.102212
1173.720798,-6969.613150,1378.604799,12407.443191
1173.721106,-6969.613150,1991.318043,12101.086569
1173.721413,-4825.116796,919.069866,11947.908258
1173.721721,-382.945777,4595.349330,9497.055282
1173.722029,2833.798753,3063.566220,10722.481770
1173.722346,2144.496354,-1148.837332,10875.660081
1173.722641,4059.225241,-536.124088,9803.411904
1173.722936,5667.597507,-536.124088,9114.109504
1173.723232,3140.155375,-2986.977064,9190.698660
1173.723527,3293.333686,-2221.085509,7735.504705
1173.723822,765.891555,-842.480710,10109.768526
1173.724117,-3982.636086,-3140.155375,12254.264880
1173.724413,-4595.349330,-3293.333686,12790.388968
1173.724712,-3829.457775,765.891555,11028.838392
1173.725010,-1608.372265,765.891555,10799.070925
1173.725307,-2910.387909,-1761.550576,12713.799813
1173.725605,-382.945777,612.713244,9573.644437
1173.725902,1838.139732,306.356622,9880.001059
1173.726199,-2067.907198,-3293.333686,12254.264880
1173.726497,-0.000000,-2221.085509,10262.946837
1173.726794,2833.798753,-229.767466,8960.931193
1173.727125,1378.604799,-1302.015643,9343.876971
1173.727422,919.069866,-2527.442131,10109.768526
1173.727718,306.356622,-76.589155,11028.838392
1173.728015,-2450.852976,-1914.728887,12713.799813
1173.728312,-3523.101153,-2374.263820,11335.195014
1173.728609,-4288.992708,-1914.728887,11488.373325
1173.728906,-2450.852976,-1302.015643,9956.590215
1173.729203,153.178311,-3599.690308,10416.125148
1173.729511,2144.496354,-1761.550576,9573.644437
1173.729811,7046.202306,-229.767466,10262.946837
1173.730110,6739.845684,-1914.728887,9956.590215
1173.730410,9650.233593,1225.426488,8118.450483
1173.730710,7888.683016,3216.744531,7352.558928
1173.731010,2144.496354,1838.139732,8807.752882
1173.731310,-4135.814397,-229.767466,10799.070925
1173.731610,-8424.807105,-1302.015643,12560.621502
1173.731893,-11564.962480,-2986.977064,13403.102212
1173.732196,-11564.962480,-3599.690308,12484.032346
1173.732499,-6969.613150,-536.124088,12177.675724
1173.732802,-2450.852976,612.713244,10109.768526
1173.733104,1225.426488,919.069866,11028.838392
1173.733407,5208.062574,3063.566220,9267.287815
1173.733710,8348.217949,2910.387909,8960.931193
1173.734013,5667.597507,-689.302399,10109.768526
1173.734295,2527.442131,-1761.550576,10109.768526
1173.734594,1838.139732,-1455.193954,10416.125148
1173.734892,-995.659021,-1455.193954,10109.768526
1173.735191,-382.945777,-1914.728887,9956.590215
1173.735490,-2067.907198,459.534933,10799.070925
1173.735789,-4288.992708,-229.767466,11182.016703
1173.736087,-1761.550576,-689.302399,10569.303459
1173.736386,-3523.101153,919.069866,11335.195014
1173.736698,-3523.101153,-842.480710,12330.854035
1173.736997,-2067.907198,-2986.977064,10875.660081
1173.737296,4212.403552,-689.302399,7582.326394
1173.737595,4901.705952,-3599.690308,9726.822748
1173.737895,306.356622,-9650.233593,13556.280523
1173.738194,2144.496354,-5054.884263,11641.551636
1173.738493,5667.597507,919.069866,7658.915550
1173.738792,-76.589155,919.069866,9573.644437
1173.739106,-3523.101153,1531.783110,11182.016703
1173.739404,-4288.992708,6050.543284,10262.946837
1173.739701,-4748.527641,5591.008351,10109.768526
1173.739999,-6356.899906,612.713244,11641.551636
1173.740297,-3982.636086,153.178311,13096.745590
1173.740595,1378.604799,-536.124088,9956.590215
1173.740893,4901.705952,-1914.728887,8195.039638
1173.741191,5667.597507,-3293.333686,9114.109504
1173.741498,4748.527641,-4825.116796,11028.838392
1173.741797,2297.674665,-6586.667373,12713.799813
1173.742097,2374.263820,-2833.798753,9343.876971
1173.742397,3599.690308,-995.659021,7888.683016
1173.742697,-3523.101153,-1914.728887,10569.303459
1173.742996,-1761.550576,-1455.193954,9267.287815
1173.743296,-3063.566220,3369.922842,9114.109504
1173.743596,-5591.008351,2144.496354,11411.784169
1173.743892,-5897.364973,1225.426488,14015.815456
1173.744192,-4978.295107,1838.139732,12101.086569
1173.744492,-229.767466,3982.636086,10722.481770
1173.744791,-76.589155,-689.302399,9880.001059
1173.745091,-382.945777,-2221.085509,10875.660081
1173.745390,3599.690308,-3293.333686,10875.660081
1173.745690,4901.705952,-5820.775818,9956.590215
1173.745989,4365.581863,-5667.597507,9956.590215
1173.746284,4901.705952,-3293.333686,9573.644437
1173.746584,612.713244,-3140.155375,9573.644437
1173.746884,-536.124088,-689.302399,8654.574571
1173.747184,-2910.387909,3216.744531,9573.644437
1173.747485,-7658.915550,765.891555,11182.016703
1173.747785,-6969.613150,-1608.372265,12713.799813
1173.748085,-7122.791461,-1302.015643,13862.637145
1173.748385,-2450.852976,-842.480710,11411.784169
1173.748697,306.356622,-3293.333686,10722.481770
1173.748994,4901.705952,-2067.907198,10262.946837
1173.749291,10262.946837,153.178311,9573.644437
1173.749589,10262.946837,-1302.015643,7888.683016
1173.749886,9420.466126,1378.604799,7735.504705
1173.750184,4748.527641,3829.457775,10109.768526
1173.750481,-2374.263820,459.534933,10109.768526
1173.750779,-3676.279464,2450.852976,8807.752882
1173.751088,-5744.186662,3523.101153,8807.752882
1173.751387,-10645.892614,-2527.442131,12943.567279
1173.751687,-12254.264880,-6127.132440,15930.544344
1173.751986,-6203.721595,-2527.442131,12713.799813
1173.752285,-2067.907198,-1455.193954,11028.838392
1173.752585,-0.000000,-4671.938485,12560.621502
1173.752884,5514.419196,-1914.728887,10262.946837
1173.753183,11488.373325,2144.496354,9114.109504
1173.753490,8807.752882,-229.767466,7735.504705
1173.753789,6127.132440,-76.589155,8654.574571
1173.754087,5054.884263,1684.961421,9037.520349
1173.754385,1072.248177,1838.139732,8501.396260
1173.754683,-3216.744531,2144.496354,9956.590215
1173.754981,-8577.985416,2297.674665,10875.660081
1173.755279,-11105.427547,-1608.372265,13556.280523
1173.755577,-9573.644437,-2986.977064,14168.993767
1173.755894,-7122.791461,-1914.728887,13096.745590
1173.756192,-2374.263820,-3599.690308,11488.373325
1173.756490,4518.760174,-5973.954129,10262.946837
1173.756789,7735.504705,-5667.597507,10492.714303
1173.757087,11488.373325,-3446.511997,8884.342038
1173.757386,7582.326394,-3599.690308,8501.396260
1173.757684,8348.217949,-76.589155,7582.326394
1173.757983,4059.225241,3676.279464,6433.489062
1173.758297,-5131.473418,2450.852976,10033.179370
1173.758596,-10799.070925,1991.318043,11641.551636
1173.758894,-9573.644437,3063.566220,12101.086569
1173.759193,-9190.698660,1072.248177,13556.280523
1173.759492,-5437.830040,-2221.085509,12101.086569
1173.759790,-382.945777,-1148.837332,11335.195014
1173.760089,4365.581863,-1455.193954,10492.714303
1173.760388,6893.023995,-4365.581863,9650.233593
1173.760676,6893.023995,-3293.333686,9956.590215
1173.760976,7582.326394,-995.659021,9880.001059
1173.761276,5514.419196,-1914.728887,8807.752882
1173.761576,2374.263820,153.178311,9726.822748
1173.761876,-1455.193954,2297.674665,9267.287815
1173.762176,-4288.992708,3676.279464,8960.931193
1173.762476,-5284.651729,3829.457775,10033.179370
1173.762775,-6663.256528,5131.473418,11564.962480
1173.763075,-7965.272172,1072.248177,12790.388968
1173.763374,-5284.651729,-842.480710,13403.102212
1173.763673,-842.480710,-382.945777,11641.551636
1173.763973,1378.604799,-1302.015643,12790.388968
1173.764272,4518.760174,-4518.760174,9650.233593
1173.764571,10262.946837,-1608.372265,7735.504705
1173.764870,9956.590215,-2680.620442,8424.807105
1173.765170,1684.961421,-6127.132440,11794.729947
1173.765477,-1302.015643,-3293.333686,12101.086569
1173.765776,-1455.193954,1684.961421,8348.217949
1173.766075,-6203.721595,765.891555,10109.768526
1173.766375,-8731.163727,1225.426488,11028.838392
1173.766674,-6816.434839,4595.349330,12024.497413
1173.766973,-3063.566220,4825.116796,10722.481770
1173.767272,-995.659021,765.891555,10952.249236
1173.767571,-689.302399,-1761.550576,12484.032346
1173.767892,2374.263820,-1914.728887,11335.195014
1173.768192,4671.938485,-5361.240885,9267.287815
1173.768493,4059.225241,-5208.062574,9497.055282
1173.768793,5361.240885,-5667.597507,10339.535992
1173.769093,2144.496354,-5820.775818,10186.357681
1173.769394,4365.581863,-3140.155375,8501.396260
1173.769694,4518.760174,153.178311,7582.326394
1173.769994,-1608.372265,459.534933,8731.163727
1173.770313,-2450.852976,2450.852976,9726.822748
1173.770607,-4978.295107,5744.186662,10109.768526
1173.770900,-6663.256528,4978.295107,11258.605858
1173.771194,-6203.721595,2604.031287,13249.923901
1173.771487,-3216.744531,4288.992708,11411.784169
1173.771781,-995.659021,2604.031287,11182.016703
1173.772074,1684.961421,-1608.372265,10416.125148
1173.772368,1531.783110,-4901.705952,11488.373325
1173.772685,6739.845684,-4671.938485,11564.962480
1173.772984,3599.690308,-7812.093861,10952.249236
1173.773283,2297.674665,-6280.310751,9880.001059
1173.773581,3906.046930,-842.480710,8501.396260
1173.773880,-842.480710,-382.945777,8960.931193
1173.774178,-2374.263820,3369.922842,8654.574571
1173.774477,-2374.263820,6356.899906,9497.055282
1173.774776,-3829.457775,4978.295107,10569.303459
1173.775075,-2910.387909,1531.783110,12407.443191
1173.775373,-4442.171019,-76.589155,13939.226301
1173.775670,-4978.295107,-3599.690308,13096.745590
1173.775968,-2757.209598,-6586.667373,12560.621502
1173.776265,1072.248177,-6433.489062,11488.373325
1173.776562,5514.419196,-4825.116796,9726.822748
1173.776860,3446.511997,-7046.202306,10569.303459
1173.777157,4365.581863,-4059.225241,9267.287815
1173.777464,5973.954129,153.178311,7582.326394
1173.777766,1838.139732,765.891555,9343.876971
1173.778068,-1914.728887,1378.604799,9114.109504
1173.778369,-842.480710,4442.171019,9114.109504
1173.778671,-2374.263820,4825.116796,9956.590215
1173.778973,-2604.031287,1531.783110,10569.303459
1173.779275,-3063.566220,3216.744531,11641.551636
1173.779576,-3063.566220,1225.426488,13020.156435
1173.779856,-842.480710,-2221.085509,10875.660081
1173.780161,765.891555,-3293.333686,11335.195014
1173.780466,4212.403552,-2833.798753,9803.411904
1173.780770,1072.248177,-7046.202306,11028.838392
1173.781075,1072.248177,-6280.310751,10799.070925
1173.781380,2986.977064,-2221.085509,8118.450483
1173.781684,919.069866,-0.000000,7965.272172
1173.781989,-995.659021,1225.426488,8807.752882
1173.782262,-1608.372265,5897.364973,10569.303459
1173.782565,306.356622,7122.791461,9420.466126
1173.782867,-76.589155,4978.295107,10109.768526
1173.783170,-3982.636086,1684.961421,12790.388968
1173.783472,-4978.295107,-1761.550576,14092.404612
1173.783775,-3063.566220,-4059.225241,12330.854035
1173.784077,306.356622,-4671.938485,11028.838392
1173.784380,2680.620442,-4212.403552,11028.838392
1173.784617,1225.426488,-6739.845684,13096.745590
1173.784923,4901.705952,-1455.193954,9726.822748
1173.785229,7046.202306,3676.279464,6816.434839
1173.785535,3599.690308,3523.101153,5973.954129
1173.785841,-229.767466,2604.031287,8884.342038
1173.786147,-4288.992708,2144.496354,11182.016703
1173.786452,-6816.434839,-1914.728887,12101.086569
1173.786758,-7199.380617,-3293.333686,12866.978124
1173.787082,-5591.008351,-3446.511997,12484.032346
1173.787377,-3829.457775,-4671.938485,13709.458834
1173.787673,153.178311,-5208.062574,11258.605858
1173.787969,5820.775818,-1455.193954,9037.520349
1173.788265,9114.109504,459.534933,8807.752882
1173.788561,4518.760174,-995.659021,9803.411904
1173.788856,4901.705952,-229.767466,9267.287815
1173.789152,3446.511997,3982.636086,8195.039638
1173.789466,-0.000000,3063.566220,7735.504705
1173.789765,-2450.852976,459.534933,7888.683016
1173.790063,-6510.078217,-382.945777,12101.086569
1173.790362,-6663.256528,-842.480710,11258.605858
1173.790661,-4748.527641,-1148.837332,12177.675724
1173.790959,-3829.457775,-689.302399,12943.567279
1173.791258,-2221.085509,-2221.085509,13249.923901
1173.791557,306.356622,-2833.798753,12407.443191
1173.791864,5208.062574,765.891555,10262.946837
1173.792168,7735.504705,459.534933,8195.039638
1173.792471,3752.868619,-2527.442131,9956.590215
1173.792775,4671.938485,306.356622,9573.644437
1173.793079,5208.062574,2910.387909,7888.683016
1173.793383,-2604.031287,612.713244,10109.768526
1173.793687,-6356.899906,-689.302399,12024.497413
1173.793991,-4825.116796,2910.387909,11028.838392
1173.794274,-3523.101153,1531.783110,9267.287815
1173.794570,-3982.636086,-2221.085509,13020.156435
1173.794867,-5591.008351,-3599.690308,15088.063633
1173.795163,-1148.837332,-2680.620442,12101.086569
1173.795459,2374.263820,-1914.728887,9114.109504
1173.795756,2680.620442,-2680.620442,9956.590215
1173.796052,2986.977064,-4365.581863,10875.660081
1173.796348,1072.248177,-4365.581863,11182.016703
1173.796643,5054.884263,-2527.442131,8041.861327
1173.796944,2374.263820,-1914.728887,8654.574571
1173.797245,-3523.101153,-4059.225241,11641.551636
1173.797546,-2067.907198,-1455.193954,9114.109504
1173.797847,2986.977064,4595.349330,6969.613150
1173.798148,-76.589155,2144.496354,10109.768526
1173.798448,-3369.922842,-689.302399,11641.551636
1173.798749,-2757.209598,3369.922842,14705.117856
1173.799084,2680.620442,5897.364973,9190.698660
1173.799378,2986.977064,2604.031287,7582.326394
1173.799672,306.356622,-689.302399,11182.016703
1173.799966,-382.945777,-2680.620442,11335.195014
1173.800261,-3063.566220,-6433.489062,12560.621502
1173.800555,-0.000000,-4059.225241,10492.714303
1173.800849,-229.767466,-4059.225241,8501.396260
1173.801143,-2067.907198,-5054.884263,10875.660081
1173.801452,-76.589155,-1914.728887,8654.574571
1173.801750,1225.426488,4748.527641,9267.287815
1173.802049,-382.945777,3829.457775,10416.125148
1173.802347,-4288.992708,765.891555,12484.032346
1173.802646,-2450.852976,3829.457775,12407.443191
1173.802945,765.891555,5284.651729,10109.768526
1173.803243,459.534933,2910.387909,9190.698660
1173.803542,-76.589155,-1761.550576,10875.660081
1173.803849,-0.000000,-3752.868619,12407.443191
1173.804148,919.069866,-5973.954129,11105.427547
1173.804448,4365.581863,-4518.760174,9573.644437
1173.804748,5208.062574,-3752.868619,8960.931193
1173.805047,1531.783110,-5820.775818,10722.481770
1173.805347,919.069866,-3599.690308,10339.535992
1173.805647,1378.604799,2144.496354,9650.233593
1173.805946,-3369.922842,1838.139732,9267.287815
1173.806243,-7199.380617,-382.945777,12101.086569
1173.806546,-7122.791461,-76.589155,13403.102212
1173.806848,-4442.171019,765.891555,12101.086569
1173.807151,-2067.907198,1225.426488,10875.660081
1173.807454,1378.604799,-995.659021,10416.125148
1173.807757,3752.868619,-2833.798753,9956.590215
1173.808060,4748.527641,-4518.760174,9420.466126
1173.808363,4671.938485,-4212.403552,9343.876971
1173.808658,4365.581863,-1761.550576,9420.466126
1173.808958,3906.046930,-689.302399,8960.931193
1173.809258,2680.620442,919.069866,8807.752882
1173.809558,459.534933,4748.527641,8807.752882
1173.809858,-4825.116796,2604.031287,11028.838392
1173.810159,-5744.186662,3523.101153,11028.838392
1173.810459,-4748.527641,3369.922842,11028.838392
1173.810759,-5897.364973,153.178311,13249.923901
1173.811036,-7122.791461,-5361.240885,13709.458834
1173.811337,-382.945777,-2527.442131,13096.745590
1173.811639,7735.504705,-995.659021,7888.683016
1173.811940,7735.504705,-2986.977064,8884.342038
1173.812241,6433.489062,-2833.798753,10875.660081
1173.812543,7582.326394,1072.248177,9573.644437
1173.812844,4671.938485,2604.031287,8424.807105
1173.813145,-842.480710,3216.744531,8884.342038
1173.813445,-4978.295107,4748.527641,10722.481770
1173.813745,-9190.698660,3063.566220,11258.605858
1173.814045,-11947.908258,-995.659021,14092.404612
1173.814345,-9726.822748,-1455.193954,13403.102212
1173.814645,-6356.899906,-1455.193954,12790.388968
1173.814945,919.069866,-3140.155375,9956.590215
1173.815245,5667.597507,-3906.046930,9420.466126
1173.815545,9267.287815,-4901.705952,9114.109504
1173.815852,6433.489062,-7812.093861,10033.179370
1173.816154,4748.527641,-8271.628794,11335.195014
1173.816455,4365.581863,-4212.403552,9114.109504
1173.816757,2833.798753,-689.302399,7429.148083
1173.817058,765.891555,1378.604799,7199.380617
1173.817360,-2604.031287,1684.961421,8348.217949
1173.817661,-5744.186662,1378.604799,11794.729947
1173.817963,-4978.295107,-0.000000,12101.086569
1173.818198,-4135.814397,612.713244,11488.373325
1173.818503,-2910.387909,-0.000000,12560.621502
1173.818808,-2604.031287,-1455.193954,11105.427547
1173.819113,153.178311,-229.767466,11182.016703
1173.819419,7582.326394,2757.209598,6969.613150
1173.819724,5208.062574,-2067.907198,8348.217949
1173.820029,3446.511997,-3599.690308,11411.784169
1173.820335,4365.581863,-2067.907198,11335.195014
1173.820653,1838.139732,-76.589155,8195.039638
1173.820951,-0.000000,459.534933,8195.039638
1173.821250,-8118.450483,-1148.837332,12560.621502
1173.821548,-9037.520349,-995.659021,12713.799813
1173.821846,-9497.055282,-1302.015643,12866.978124
1173.822144,-9037.520349,-1608.372265,13479.691368
1173.822442,-4288.992708,-536.124088,13632.869679
1173.822740,1531.783110,306.356622,12254.264880
1173.823090,9956.590215,4288.992708,9803.411904
1173.823383,12330.854035,4978.295107,8577.985416
1173.823676,7429.148083,2450.852976,8960.931193
1173.823970,4748.527641,2297.674665,9267.287815
1173.824263,2374.263820,1072.248177,9420.466126
1173.824556,-3829.457775,-2833.798753,9803.411904
1173.824850,-8118.450483,-4825.116796,11028.838392
1173.825143,-5897.364973,-3752.868619,9573.644437
1173.825442,-4442.171019,-4518.760174,10875.660081
1173.825742,-4442.171019,-7965.272172,12407.443191
1173.826042,-3523.101153,-6586.667373,14781.707011
1173.826343,1072.248177,-3140.155375,11488.373325
1173.826643,3140.155375,-536.124088,7735.504705
1173.826943,3599.690308,765.891555,10492.714303
1173.827243,4059.225241,3216.744531,8807.752882
1173.827543,6280.310751,4748.527641,9037.520349
1173.827850,8195.039638,5131.473418,8654.574571
1173.828147,6280.310751,4825.116796,8348.217949
1173.828444,765.891555,3216.744531,10186.357681
1173.828740,-2067.907198,1991.318043,8807.752882
1173.829037,-2374.263820,1531.783110,9267.287815
1173.829334,-7812.093861,-4518.760174,11028.838392
1173.829631,-10799.070925,-9497.055282,13556.280523
1173.829928,-10645.892614,-9880.001059,16236.900966
1173.830242,-3676.279464,-7046.202306,12330.854035
1173.830545,1838.139732,-5514.419196,8960.931193
1173.830848,6433.489062,-3293.333686,11028.838392
1173.831150,9114.109504,-842.480710,9573.644437
1173.831453,8501.396260,1838.139732,8654.574571
1173.831756,6127.132440,4748.527641,8348.217949
1173.832059,2374.263820,4288.992708,9267.287815
1173.832361,-3216.744531,2910.387909,10262.946837
1173.832680,-4595.349330,2604.031287,9956.590215
1173.832976,-7199.380617,1072.248177,11028.838392
1173.833272,-9037.520349,-2374.263820,12560.621502
1173.833568,-5744.186662,-4671.938485,13403.102212
1173.833864,-2067.907198,-5054.884263,11641.551636
1173.834160,1225.426488,-4825.116796,11794.729947
1173.834456,1378.604799,-7352.558928,10875.660081
1173.834753,4748.527641,-4518.760174,10033.179370
1173.835098,7122.791461,-1302.015643,10262.946837
1173.835390,4748.527641,-842.480710,8118.450483
1173.835682,3599.690308,-842.480710,9267.287815
1173.835974,1684.961421,1684.961421,9573.644437
1173.836266,-1302.015643,2450.852976,9267.287815
1173.836558,-3676.279464,3523.101153,9956.590215
1173.836850,-4135.814397,6050.543284,9573.644437
1173.837142,-5744.186662,4135.814397,11564.962480
1173.837418,-5131.473418,-229.767466,11641.551636
1173.837718,-2067.907198,-229.767466,12713.799813
1173.838018,1838.139732,306.356622,10109.768526
1173.838318,3599.690308,-3906.046930,10109.768526
1173.838619,4671.938485,-6280.310751,10722.481770
1173.838919,8654.574571,-3599.690308,8195.039638
1173.839219,4748.527641,-4518.760174,9956.590215
1173.839519,765.891555,-3140.155375,10416.125148
1173.839849,-1302.015643,-689.302399,11488.373325
1173.840146,-4978.295107,1531.783110,10109.768526
1173.840443,-4288.992708,4135.814397,10109.768526
1173.840740,-5131.473418,6356.899906,10109.768526
1173.841037,-3216.744531,4595.349330,10262.946837
1173.841333,-3676.279464,1531.783110,12790.388968
1173.841630,-1608.372265,-536.124088,12790.388968
1173.841927,-1148.837332,-2680.620442,12713.799813
1173.842235,-76.589155,-6739.845684,11641.551636
1173.842535,4059.225241,-6127.132440,11182.016703
1173.842835,7888.683016,-5054.884263,9267.287815
1173.843135,4748.527641,-5361.240885,9956.590215
1173.843434,3446.511997,-5054.884263,10262.946837
1173.843734,1684.961421,-2067.907198,9650.233593
1173.844034,-2221.085509,-1455.193954,9497.055282
1173.844334,-3369.922842,919.069866,9650.233593
1173.844617,-4825.116796,4135.814397,8960.931193
1173.844922,-4442.171019,3369.922842,10416.125148
1173.845227,-5744.186662,-76.589155,12713.799813
1173.845531,-3369.922842,-995.659021,12790.388968
1173.845836,-382.945777,-1914.728887,12024.497413
1173.846141,1378.604799,-5820.775818,9650.233593
1173.846445,4671.938485,-5054.884263,11258.605858
1173.846750,6739.845684,-4518.760174,8960.931193
1173.847016,4059.225241,-4059.225241,9880.001059
1173.847321,4518.760174,-536.124088,9650.233593
1173.847625,1684.961421,3523.101153,7888.683016
1173.847930,-2067.907198,6050.543284,9803.411904
1173.848235,-4595.349330,7429.148083,9497.055282
1173.848540,-1455.193954,9803.411904,8348.217949
1173.848845,-995.659021,7429.148083,9573.644437
1173.849150,-5744.186662,-229.767466,13096.745590
1173.849439,-3829.457775,-3446.511997,15853.955188
1173.849735,459.534933,-2833.798753,11105.427547
1173.850031,3293.333686,-7658.915550,10262.946837
1173.850327,2527.442131,-9880.001059,12101.086569
1173.850623,3752.868619,-5361.240885,11564.962480
1173.850918,4901.705952,-3599.690308,11182.016703
1173.851214,5514.419196,2450.852976,7735.504705
1173.851510,4748.527641,7429.148083,7658.915550
1173.851819,-2604.031287,7275.969772,9037.520349
1173.852118,-7505.737239,7582.326394,11028.838392
1173.852416,-8884.342038,8195.039638,11028.838392
1173.852715,-8271.628794,6050.543284,10416.125148
1173.853013,-8731.163727,-2833.798753,13249.923901
1173.853312,-7505.737239,-7199.380617,14781.707011
1173.853610,459.534933,-8884.342038,14168.993767
1173.853909,3140.155375,-12484.032346,11335.195014
1173.854216,9114.109504,-10339.535992,9956.590215
1173.854516,12177.675724,-6127.132440,7582.326394
1173.854817,9497.055282,-5054.884263,8654.574571
1173.855118,7888.683016,-995.659021,8501.396260
1173.855418,4748.527641,4595.349330,7429.148083
1173.855719,-536.124088,4748.527641,7275.969772
1173.856019,-5591.008351,4135.814397,9037.520349
1173.856320,-6510.078217,5437.830040,11335.195014
1173.856616,-6510.078217,3369.922842,10799.070925
1173.856917,-6816.434839,-995.659021,12024.497413
1173.857217,-9880.001059,-4671.938485,15394.420255
1173.857517,-6050.543284,-4901.705952,13939.226301
1173.857818,-3216.744531,-6127.132440,12790.388968
1173.858118,4212.403552,-2986.977064,9650.233593
1173.858418,8654.574571,-1302.015643,7582.326394
1173.858719,6433.489062,-995.659021,9420.466126
1173.859013,8654.574571,-76.589155,7275.969772
1173.859314,7888.683016,3523.101153,8348.217949
1173.859614,3293.333686,1531.783110,7888.683016
1173.859914,-382.945777,919.069866,9114.109504
1173.860214,-4135.814397,2144.496354,10952.249236
1173.860514,-4442.171019,2297.674665,11641.551636
1173.860814,-10492.714303,-2221.085509,13862.637145
1173.861115,-9573.644437,-0.000000,14475.350389
1173.861403,-6510.078217,459.534933,14168.993767
1173.861704,-4978.295107,-995.659021,13709.458834
1173.862004,2374.263820,1072.248177,9956.590215
1173.862305,7046.202306,1838.139732,8424.807105
1173.862606,6893.023995,-842.480710,9114.109504
1173.862907,4059.225241,-4671.938485,12101.086569
1173.863208,5973.954129,-0.000000,8960.931193
1173.863508,6127.132440,459.534933,4825.116796
1173.863818,306.356622,-2221.085509,8577.985416
1173.864117,-5437.830040,-4365.581863,12254.264880
1173.864416,-5437.830040,-1148.837332,12943.567279
1173.864716,-3369.922842,153.178311,9880.001059
1173.865015,-4748.527641,153.178311,12254.264880
1173.865314,-6510.078217,-1302.015643,13556.280523
1173.865614,-4978.295107,-0.000000,11794.729947
1173.865913,2986.977064,3829.457775,9726.822748
1173.866220,5514.419196,2604.031287,8041.861327
1173.866518,-0.000000,-3599.690308,12713.799813
1173.866817,2527.442131,-3293.333686,10875.660081
1173.867115,7582.326394,1684.961421,8041.861327
1173.867413,7735.504705,919.069866,5973.954129
1173.867711,459.534933,-2374.263820,8884.342038
1173.868009,-1761.550576,306.356622,11182.016703
1173.868307,-842.480710,3216.744531,9267.287815
1173.868624,-4978.295107,-0.000000,10033.179370
1173.868922,-9497.055282,-2833.798753,14168.993767
1173.869220,-9343.876971,-3446.511997,13862.637145
1173.869519,-6050.543284,-4671.938485,13709.458834
1173.869817,1225.426488,-1148.837332,10262.946837
1173.870116,4671.938485,-382.945777,9726.822748
1173.870414,4748.527641,-1302.015643,10722.481770
1173.870712,8195.039638,765.891555,9190.698660
1173.871027,7888.683016,3982.636086,8807.752882
1173.871325,4748.527641,4288.992708,7582.326394
1173.871624,153.178311,765.891555,8041.861327
1173.871923,-2450.852976,1531.783110,8884.342038
1173.872222,-5591.008351,306.356622,12254.264880
1173.872520,-9726.822748,-4671.938485,12560.621502
1173.872819,-6969.613150,-2986.977064,12943.567279
