#time,accel_x,accel_y,accel_z
1160.068927,153.178311,-229.767466,10262.946837
1160.069224,-0.000000,-382.945777,10186.357681
1160.069522,-0.000000,-536.124088,10262.946837
1160.069819,-76.589155,-842.480710,10569.303459
1160.070146,-382.945777,-842.480710,10569.303459
1160.070443,-382.945777,-689.302399,10569.303459
1160.070739,-536.124088,-842.480710,10416.125148
1160.071035,-229.767466,-536.124088,10416.125148
1160.071331,-0.000000,-229.767466,10109.768526
1160.071627,-76.589155,-229.767466,10569.303459
1160.071923,306.356622,-229.767466,10339.535992
1160.072219,-0.000000,-229.767466,10262.946837
1160.072531,-0.000000,-536.124088,10722.481770
1160.072831,-76.589155,-842.480710,10569.303459
1160.073131,-382.945777,-689.302399,10875.660081
1160.073431,-0.000000,-689.302399,10569.303459
1160.073731,-382.945777,-536.124088,10722.481770
1160.074031,-229.767466,-689.302399,10722.481770
1160.074331,-0.000000,-689.302399,10569.303459
1160.074631,-76.589155,-382.945777,10722.481770
1160.074940,2833.798753,-229.767466,10109.768526
1160.075238,5208.062574,-382.945777,10109.768526
1160.075537,9497.055282,-76.589155,9343.876971
1160.075835,13249.923901,-382.945777,9573.644437
1160.076134,18764.343097,306.356622,8807.752882
1160.076432,20372.715363,306.356622,8960.931193
1160.076731,22134.265939,306.356622,9420.466126
1160.077030,22287.444250,1378.604799,9114.109504
1160.077337,19453.645497,2144.496354,9267.287815
1160.077636,18611.164786,1531.783110,9114.109504
1160.077936,14015.815456,1225.426488,9803.411904
1160.078236,13556.280523,612.713244,10339.535992
1160.078536,15777.366033,153.178311,10262.946837
1160.078836,20219.537052,612.713244,10262.946837
1160.079136,27648.685135,1531.783110,9420.466126
1160.079435,31018.607977,1378.604799,7812.093861
1160.079732,24661.708071,-1302.015643,9573.644437
1160.080031,16773.025054,-4825.116796,14015.815456
1160.080330,5973.954129,-6586.667373,17845.273231
1160.080629,2833.798753,-2680.620442,15853.955188
1160.080927,2144.496354,612.713244,15088.063633
1160.081226,459.534933,2144.496354,14934.885322
1160.081525,2527.442131,3216.744531,15700.776877
1160.081824,7735.504705,5284.651729,15547.598566
1160.082152,17232.559987,7275.969772,10339.535992
1160.082447,25733.956248,7888.683016,8041.861327
1160.082743,28644.344157,4442.171019,6969.613150
1160.083038,32856.747709,-1302.015643,5820.775818
1160.083334,34158.763353,-4365.581863,6127.132440
1160.083629,34618.298286,-8118.450483,6127.132440
1160.083925,33699.228420,-11564.962480,6816.434839
1160.084220,27035.971891,-11718.140791,9267.287815
1160.084508,18994.110564,-7199.380617,12713.799813
1160.084809,10722.481770,-3293.333686,13173.334746
1160.085110,1684.961421,765.891555,13786.047990
1160.085411,-6050.543284,4825.116796,14781.707011
1160.085712,-18840.932253,4748.527641,14934.885322
1160.086012,-24891.475537,3829.457775,15317.831100
1160.086313,-21751.320162,1072.248177,12254.264880
1160.086614,-12407.443191,-4365.581863,8807.752882
1160.086913,-1148.837332,-5054.884263,7582.326394
1160.087213,11028.838392,-3446.511997,5361.240885
1160.087513,22900.157494,-2374.263820,5514.419196
1160.087812,31171.786288,2450.852976,7275.969772
1160.088112,29869.770645,5591.008351,7429.148083
1160.088411,23742.638205,5284.651729,8501.396260
1160.088711,12330.854035,1838.139732,9956.590215
1160.089010,-1914.728887,-4518.760174,10799.070925
1160.089317,-18075.040698,-10952.249236,13709.458834
1160.089615,-31401.553755,-15930.544344,15853.955188
1160.089914,-30942.018822,-16849.614210,14322.172078
1160.090212,-27418.917669,-15471.009411,15241.241944
1160.090510,-16007.133499,-7812.093861,14858.296167
1160.090808,2144.496354,3982.636086,12560.621502
1160.091106,22593.800872,14628.528700,7429.148083
1160.091404,39979.539171,20372.715363,3829.457775
1160.091720,43808.996946,19300.467186,3829.457775
1160.092017,41434.733125,16313.490121,3216.744531
1160.092315,30176.127267,7429.148083,4442.171019
1160.092612,12177.675724,-4212.403552,8731.163727
1160.092909,-10492.714303,-14168.993767,13403.102212
1160.093206,-30405.894733,-19683.412963,16236.900966
1160.093503,-42966.516235,-21981.087628,18764.343097
1160.093800,-45800.314989,-17768.684076,18994.110564
1160.094118,-39290.236771,-10492.714303,17462.327454
1160.094418,-22364.033406,-1302.015643,12943.567279
1160.094718,-689.302399,8348.217949,9114.109504
1160.095017,19453.645497,15394.420255,6127.132440
1160.095317,29410.235712,17692.094920,4135.814397
1160.095616,34771.476597,16007.133499,3523.101153
1160.095916,30865.429666,11488.373325,3599.690308
1160.096216,17232.559987,3982.636086,8041.861327
1160.096504,5973.954129,-2680.620442,9420.466126
1160.096804,-4748.527641,-4365.581863,8654.574571
1160.097104,-13786.047990,-7812.093861,8807.752882
1160.097403,-24585.118915,-13709.458834,13709.458834
1160.097703,-25657.367092,-14322.172078,17309.149143
1160.098003,-14245.582923,-7199.380617,15547.598566
1160.098303,-382.945777,-1302.015643,13249.923901
1160.098603,12484.032346,2604.031287,9956.590215
1160.098903,19913.180430,6816.434839,9650.233593
1160.099202,26882.793580,10262.946837,7275.969772
1160.099501,23359.692427,10722.481770,5820.775818
1160.099800,12177.675724,5437.830040,8960.931193
1160.100100,-1761.550576,-0.000000,12713.799813
1160.100399,-13479.691368,-536.124088,15088.063633
1160.100698,-18381.397320,-689.302399,12790.388968
1160.100997,-21904.498473,-1761.550576,14168.993767
1160.101304,-19836.591274,-3446.511997,14705.117856
1160.101608,-18228.219009,-3906.046930,15547.598566
1160.101911,-6663.256528,-2680.620442,14475.350389
1160.102214,5208.062574,-995.659021,10262.946837
1160.102518,15317.831100,-842.480710,8654.574571
1160.102821,21981.087628,-2374.263820,5973.954129
1160.103124,22440.622561,-3140.155375,7582.326394
1160.103428,18994.110564,-2221.085509,7199.380617
1160.103748,8960.931193,-2680.620442,9114.109504
1160.104045,-382.945777,-842.480710,10416.125148
1160.104342,-7122.791461,2450.852976,8501.396260
1160.104639,-15088.063633,4748.527641,9650.233593
1160.104936,-21904.498473,1684.961421,13096.745590
1160.105233,-23436.281583,-995.659021,17538.916609
1160.105530,-13939.226301,1531.783110,12943.567279
1160.105827,-1455.193954,4748.527641,7888.683016
1160.106100,9114.109504,2910.387909,6280.310751
1160.106400,14245.582923,-76.589155,6969.613150
1160.106701,17845.273231,-1914.728887,7735.504705
1160.107001,16926.203365,-3752.868619,5973.954129
1160.107301,9497.055282,-7658.915550,8424.807105
1160.107601,306.356622,-11258.605858,9037.520349
1160.107901,-11564.962480,-12637.210657,12790.388968
1160.108201,-16696.435899,-10339.535992,13249.923901
1160.108547,-18228.219009,-6739.845684,13862.637145
1160.108839,-15241.241944,-995.659021,14168.993767
1160.109132,-7122.791461,5897.364973,11028.838392
1160.109425,1684.961421,11794.729947,10033.179370
1160.109717,10416.125148,14245.582923,8654.574571
1160.110010,12943.567279,13326.513057,8041.861327
1160.110303,14551.939545,8195.039638,8807.752882
1160.110595,11871.319102,2604.031287,9956.590215
1160.110919,5208.062574,-4671.938485,12713.799813
1160.111216,765.891555,-10339.535992,12713.799813
1160.111513,-4748.527641,-12484.032346,12713.799813
1160.111811,-6816.434839,-10645.892614,10109.768526
1160.112108,-15394.420255,-11718.140791,13249.923901
1160.112406,-18840.932253,-9880.001059,15547.598566
1160.112703,-14781.707011,-3906.046930,14245.582923
1160.113000,-3216.744531,4288.992708,9956.590215
1160.113307,6739.845684,8807.752882,6663.256528
1160.113604,12943.567279,12101.086569,7812.093861
1160.113901,18151.629853,12713.799813,7812.093861
1160.114198,18151.629853,14398.761234,6280.310751
1160.114495,13556.280523,10416.125148,6816.434839
1160.114792,2527.442131,3369.922842,10799.070925
1160.115089,-7199.380617,-2527.442131,12254.264880
1160.115386,-11258.605858,-5514.419196,11947.908258
1160.115694,-15394.420255,-10339.535992,12407.443191
1160.115993,-17462.327454,-13862.637145,13020.156435
1160.116292,-18534.575631,-15471.009411,15700.776877
1160.116591,-11718.140791,-11871.319102,13709.458834
1160.116890,-0.000000,-6739.845684,9956.590215
1160.117189,9803.411904,-1914.728887,7582.326394
1160.117488,16236.900966,3982.636086,6356.899906
1160.117786,19606.823808,8501.396260,6280.310751
1160.118103,18304.808164,11947.908258,5591.008351
1160.118402,9803.411904,12407.443191,6816.434839
1160.118702,-1914.728887,8654.574571,11794.729947
1160.119001,-9037.520349,5131.473418,12790.388968
1160.119300,-11947.908258,1838.139732,11947.908258
1160.119599,-12254.264880,-2374.263820,10722.481770
1160.119898,-12713.799813,-9343.876971,13403.102212
1160.120198,-12101.086569,-16083.722655,16390.079277
1160.120543,-8424.807105,-19836.591274,16160.311810
1160.120838,1378.604799,-15777.366033,12407.443191
1160.121132,13556.280523,-9726.822748,7275.969772
1160.121427,17385.738298,-4518.760174,5514.419196
1160.121721,17079.381676,2144.496354,6356.899906
1160.122016,14705.117856,11028.838392,6510.078217
1160.122310,7735.504705,14245.582923,6127.132440
1160.122605,-5897.364973,12254.264880,10262.946837
1160.122881,-15547.598566,9267.287815,13709.458834
1160.123181,-18381.397320,7582.326394,13709.458834
1160.123481,-16849.614210,4978.295107,13249.923901
1160.123781,-10339.535992,765.891555,11794.729947
1160.124081,-2450.852976,-3599.690308,12484.032346
1160.124381,7046.202306,-6586.667373,12024.497413
1160.124681,12024.497413,-9343.876971,9650.233593
1160.124982,16236.900966,-9497.055282,8195.039638
1160.125295,18611.164786,-8118.450483,5820.775818
1160.125594,12330.854035,-6586.667373,6969.613150
1160.125893,1684.961421,-5054.884263,9420.466126
1160.126191,-5744.186662,1225.426488,10875.660081
1160.126490,-8884.342038,8501.396260,9573.644437
1160.126789,-15241.241944,11794.729947,10262.946837
1160.127088,-20908.839451,11947.908258,14781.707011
1160.127386,-18687.753942,13479.691368,16083.722655
1160.127693,-5897.364973,13326.513057,12866.978124
1160.127996,3293.333686,9114.109504,10569.303459
1160.128300,9267.287815,765.891555,11105.427547
1160.128603,13709.458834,-6586.667373,12101.086569
1160.128906,15471.009411,-12484.032346,7658.915550
1160.129209,16390.079277,-16083.722655,6586.667373
1160.129512,6586.667373,-22746.979183,10109.768526
1160.129815,-3369.922842,-23666.049049,11641.551636
1160.130098,-7199.380617,-13556.280523,10799.070925
1160.130397,-9343.876971,-4671.938485,9420.466126
1160.130696,-11258.605858,3829.457775,10033.179370
1160.130995,-14475.350389,9650.233593,13096.745590
1160.131294,-10492.714303,15700.776877,13556.280523
1160.131593,-2910.387909,19606.823808,11335.195014
1160.131892,6739.845684,17998.451542,8654.574571
1160.132191,11028.838392,9650.233593,8960.931193
1160.132486,13556.280523,-995.659021,9497.055282
1160.132787,14015.815456,-9497.055282,9037.520349
1160.133088,8348.217949,-16696.435899,8960.931193
1160.133388,459.534933,-23359.692427,9803.411904
1160.133689,-7122.791461,-26040.312870,10875.660081
1160.133990,-10492.714303,-21981.087628,11028.838392
1160.134291,-11718.140791,-13403.102212,8960.931193
1160.134592,-8731.163727,-1761.550576,9650.233593
1160.134880,-2450.852976,9420.466126,9803.411904
1160.135181,-689.302399,15853.955188,11947.908258
1160.135482,3293.333686,22210.855095,12101.086569
1160.135782,8960.931193,25963.723714,9267.287815
1160.136083,12637.210657,22976.746650,6816.434839
1160.136384,8960.931193,12713.799813,8654.574571
1160.136685,3446.511997,2297.674665,11794.729947
1160.136986,-0.000000,-5361.240885,12254.264880
1160.137295,-6510.078217,-13862.637145,11947.908258
1160.137594,-12866.978124,-22593.800872,13709.458834
1160.137894,-14781.707011,-23666.049049,15164.652789
1160.138193,-11411.784169,-19836.591274,14015.815456
1160.138492,-3982.636086,-8577.985416,10186.357681
1160.138792,3293.333686,3063.566220,8960.931193
1160.139091,8960.931193,12254.264880,9420.466126
1160.139390,11488.373325,18917.521408,9267.287815
1160.139698,12484.032346,22364.033406,9420.466126
1160.139997,11028.838392,22823.568339,8501.396260
1160.140297,5820.775818,15853.955188,8731.163727
1160.140597,-1761.550576,5131.473418,11028.838392
1160.140896,-6356.899906,-4901.705952,14398.761234
1160.141196,-10492.714303,-12943.567279,14781.707011
1160.141496,-13939.226301,-18994.110564,13249.923901
1160.141795,-15700.776877,-21827.909317,14015.815456
1160.142092,-8884.342038,-19683.412963,11947.908258
1160.142389,-0.000000,-14475.350389,8807.752882
1160.142687,8960.931193,-6280.310751,6356.899906
1160.142984,13403.102212,-229.767466,6663.256528
1160.143281,14705.117856,4978.295107,6739.845684
1160.143579,13556.280523,11335.195014,6356.899906
1160.143876,8348.217949,13786.047990,7275.969772
1160.144174,306.356622,11335.195014,9956.590215
1160.144488,-7122.791461,8041.861327,11641.551636
1160.144787,-8731.163727,5744.186662,10416.125148
1160.145085,-11258.605858,919.069866,12713.799813
1160.145384,-11564.962480,-7199.380617,14168.993767
1160.145683,-9726.822748,-11105.427547,13786.047990
1160.145981,-3829.457775,-12943.567279,13096.745590
1160.146280,3140.155375,-13556.280523,10109.768526
1160.146579,8501.396260,-11564.962480,7888.683016
1160.146832,11335.195014,-6280.310751,7429.148083
1160.147137,13862.637145,-842.480710,6969.613150
1160.147442,12330.854035,7582.326394,7275.969772
1160.147747,5054.884263,11641.551636,8654.574571
1160.148052,-4442.171019,13173.334746,11105.427547
1160.148357,-9880.001059,13786.047990,13862.637145
1160.148662,-11105.427547,13479.691368,13556.280523
1160.148967,-11871.319102,9573.644437,13020.156435
1160.149267,-12713.799813,4135.814397,14781.707011
1160.149567,-8271.628794,-2067.907198,14322.172078
1160.149867,-4288.992708,-9343.876971,14322.172078
1160.150167,2144.496354,-12943.567279,11794.729947
1160.150467,9650.233593,-14705.117856,8960.931193
1160.150767,14705.117856,-14015.815456,6280.310751
1160.151067,14168.993767,-11258.605858,5514.419196
1160.151367,12790.388968,-5054.884263,6127.132440
1160.151674,8348.217949,1531.783110,6969.613150
1160.151975,-995.659021,5131.473418,8884.342038
1160.152277,-10799.070925,6663.256528,11335.195014
1160.152578,-15700.776877,8348.217949,13709.458834
1160.152880,-14475.350389,9956.590215,13939.226301
1160.153182,-10186.357681,9267.287815,12713.799813
1160.153483,-3523.101153,5744.186662,11641.551636
1160.153785,1991.318043,612.713244,12866.978124
1160.154101,4212.403552,-7199.380617,11411.784169
1160.154399,7582.326394,-11105.427547,8960.931193
1160.154698,9956.590215,-14475.350389,7888.683016
1160.154996,8348.217949,-17921.862387,6510.078217
1160.155295,3599.690308,-16543.257588,8654.574571
1160.155593,2374.263820,-8271.628794,8960.931193
1160.155891,1531.783110,-229.767466,8348.217949
1160.156190,-1148.837332,6816.434839,9650.233593
1160.156504,-4288.992708,13479.691368,11641.551636
1160.156799,-6816.434839,18917.521408,13709.458834
1160.157094,-3063.566220,21138.606918,12790.388968
1160.157389,-3523.101153,18611.164786,12024.497413
1160.157684,-995.659021,10875.660081,12407.443191
1160.157979,-1608.372265,612.713244,14168.993767
1160.158274,-76.589155,-7199.380617,12407.443191
1160.158568,-0.000000,-13709.458834,10722.481770
1160.158889,-842.480710,-20296.126207,10416.125148
1160.159187,-995.659021,-21674.731006,11028.838392
1160.159484,-689.302399,-16083.722655,10952.249236
1160.159781,2144.496354,-5054.884263,8654.574571
1160.160079,1225.426488,3982.636086,6969.613150
1160.160376,1991.318043,11182.016703,7888.683016
1160.160674,-842.480710,15853.955188,10416.125148
1160.160971,-995.659021,18304.808164,11411.784169
1160.161271,1378.604799,17079.381676,9880.001059
1160.161572,-995.659021,9956.590215,10262.946837
1160.161872,153.178311,306.356622,11564.962480
1160.162173,-1302.015643,-7965.272172,11641.551636
1160.162474,-1608.372265,-14551.939545,11335.195014
1160.162775,-2221.085509,-20142.947896,10722.481770
1160.163075,-3676.279464,-23359.692427,10492.714303
1160.163376,-995.659021,-19989.769585,9420.466126
1160.163683,1531.783110,-14322.172078,7965.272172
1160.163980,4212.403552,-4825.116796,5667.597507
1160.164277,4748.527641,4135.814397,7199.380617
1160.164574,1225.426488,9114.109504,10109.768526
1160.164871,-1302.015643,13479.691368,11488.373325
1160.165168,459.534933,17079.381676,10186.357681
1160.165464,3446.511997,16466.668432,7582.326394
1160.165761,153.178311,10262.946837,9420.466126
1160.166076,-2067.907198,919.069866,12943.567279
1160.166378,-3216.744531,-5820.775818,14781.707011
1160.166681,-2221.085509,-10492.714303,13939.226301
1160.166984,-3676.279464,-13862.637145,12101.086569
1160.167286,-5284.651729,-16390.079277,12407.443191
1160.167589,-3982.636086,-13862.637145,12024.497413
1160.167892,-382.945777,-5208.062574,9420.466126
1160.168195,2986.977064,3369.922842,6816.434839
1160.168468,5820.775818,9267.287815,8654.574571
1160.168766,2833.798753,13632.869679,9956.590215
1160.169065,459.534933,16926.203365,10875.660081
1160.169363,612.713244,17692.094920,10569.303459
1160.169661,306.356622,13786.047990,9956.590215
1160.169960,-2910.387909,5437.830040,11488.373325
1160.170258,-3369.922842,-995.659021,13556.280523
1160.170557,-3216.744531,-6739.845684,13556.280523
1160.170902,-536.124088,-10645.892614,10875.660081
1160.171198,-1914.728887,-15777.366033,9650.233593
1160.171493,-3982.636086,-16390.079277,11028.838392
1160.171788,-3369.922842,-15471.009411,10569.303459
1160.172083,-0.000000,-9037.520349,8654.574571
1160.172378,3752.868619,-2221.085509,6816.434839
1160.172674,7046.202306,2757.209598,6510.078217
1160.172969,5361.240885,5897.364973,8501.396260
1160.173257,1072.248177,10262.946837,9880.001059
1160.173556,-842.480710,10109.768526,10416.125148
1160.173855,-3369.922842,8041.861327,11335.195014
1160.174154,-4748.527641,3369.922842,12254.264880
1160.174454,-4288.992708,-1302.015643,11488.373325
1160.174753,-2910.387909,-6127.132440,12101.086569
1160.175052,-689.302399,-10339.535992,11028.838392
1160.175351,-1608.372265,-14858.296167,10722.481770
1160.175681,153.178311,-15930.544344,10722.481770
1160.175978,1531.783110,-14705.117856,9267.287815
1160.176275,612.713244,-10339.535992,8960.931193
1160.176572,3906.046930,-3293.333686,8501.396260
1160.176869,5820.775818,3982.636086,8195.039638
1160.177166,5208.062574,9803.411904,9956.590215
1160.177463,1838.139732,13939.226301,11794.729947
1160.177760,1838.139732,16466.668432,11028.838392
1160.178068,2297.674665,17385.738298,10262.946837
1160.178367,-76.589155,11947.908258,10416.125148
1160.178667,-5284.651729,4748.527641,11794.729947
1160.178967,-9343.876971,-2067.907198,13709.458834
1160.179267,-9726.822748,-8424.807105,14092.404612
1160.179567,-11258.605858,-14475.350389,13862.637145
1160.179866,-8271.628794,-17921.862387,12330.854035
1160.180166,-1914.728887,-15777.366033,9956.590215
1160.180449,5514.419196,-9037.520349,7888.683016
1160.180752,10875.660081,-689.302399,6663.256528
1160.181055,13096.745590,6816.434839,6280.310751
1160.181358,10109.768526,12407.443191,7505.737239
1160.181661,2680.620442,14781.707011,9573.644437
1160.181964,-2450.852976,13173.334746,9420.466126
1160.182267,-6203.721595,9114.109504,11641.551636
1160.182570,-9497.055282,3523.101153,12713.799813
1160.182884,-7965.272172,-2986.977064,12101.086569
1160.183184,-6050.543284,-7199.380617,14015.815456
1160.183484,-4442.171019,-11871.319102,12101.086569
1160.183784,-3676.279464,-15011.474478,10569.303459
1160.184084,-382.945777,-15471.009411,10722.481770
1160.184383,3906.046930,-12790.388968,8960.931193
1160.184683,5820.775818,-9650.233593,8424.807105
1160.184983,9267.287815,-2527.442131,7275.969772
1160.185296,11182.016703,3982.636086,7582.326394
1160.185589,10109.768526,8654.574571,7582.326394
1160.185881,2986.977064,10722.481770,9803.411904
1160.186174,-3829.457775,11794.729947,12790.388968
1160.186466,-8424.807105,10416.125148,12560.621502
1160.186759,-10186.357681,7735.504705,12790.388968
1160.187051,-9726.822748,1225.426488,13709.458834
1160.187344,-9497.055282,-4901.705952,15011.474478
1160.187653,-4135.814397,-8884.342038,14628.528700
1160.187951,1991.318043,-10645.892614,10722.481770
1160.188249,9114.109504,-11105.427547,9650.233593
1160.188547,10875.660081,-9880.001059,9420.466126
1160.188845,11488.373325,-4671.938485,8501.396260
1160.189143,10262.946837,3063.566220,5820.775818
1160.189441,6280.310751,8960.931193,7582.326394
1160.189739,-2757.209598,9650.233593,10416.125148
1160.190046,-11258.605858,10262.946837,12943.567279
1160.190347,-10799.070925,11335.195014,11718.140791
1160.190647,-11411.784169,9573.644437,11488.373325
1160.190948,-11258.605858,2910.387909,12560.621502
1160.191248,-7122.791461,-1455.193954,13709.458834
1160.191549,-382.945777,-5054.884263,11794.729947
1160.191849,7888.683016,-7199.380617,8501.396260
1160.192150,7122.791461,-12024.497413,8654.574571
1160.192446,7888.683016,-15777.366033,8960.931193
1160.192746,9420.466126,-13862.637145,8041.861327
1160.193045,10262.946837,-9650.233593,6127.132440
1160.193345,7046.202306,-3906.046930,5667.597507
1160.193645,765.891555,612.713244,9650.233593
1160.193944,-5131.473418,6203.721595,10416.125148
1160.194244,-10645.892614,8960.931193,11411.784169
1160.194543,-15241.241944,8501.396260,13939.226301
1160.194836,-14092.404612,6203.721595,14322.172078
1160.195136,-8731.163727,4595.349330,13632.869679
1160.195437,-536.124088,1531.783110,12560.621502
1160.195737,7735.504705,-2221.085509,10569.303459
1160.196038,12484.032346,-6739.845684,9267.287815
1160.196338,10416.125148,-12637.210657,10416.125148
1160.196639,11794.729947,-13862.637145,8654.574571
1160.196939,7046.202306,-13556.280523,8195.039638
1160.197251,2527.442131,-10339.535992,8807.752882
1160.197548,-382.945777,-4059.225241,9420.466126
1160.197846,-2450.852976,3523.101153,9956.590215
1160.198143,-4825.116796,9803.411904,10875.660081
1160.198441,-10033.179370,12560.621502,14322.172078
1160.198738,-8731.163727,17538.916609,14781.707011
1160.199035,-2450.852976,19913.180430,11028.838392
1160.199333,919.069866,15088.063633,9956.590215
1160.199632,919.069866,7275.969772,12560.621502
1160.199932,2833.798753,-689.302399,13326.513057
1160.200232,6127.132440,-6586.667373,10262.946837
1160.200532,3446.511997,-13709.458834,8960.931193
1160.200833,2527.442131,-19683.412963,9420.466126
1160.201133,-2374.263820,-20449.304518,11335.195014
1160.201433,-842.480710,-14475.350389,8195.039638
1160.201733,612.713244,-6127.132440,6356.899906
1160.202040,-2910.387909,765.891555,9650.233593
1160.202338,-3216.744531,8195.039638,9956.590215
1160.202637,-3369.922842,15700.776877,10262.946837
1160.202936,153.178311,20679.071985,9803.411904
1160.203235,-76.589155,16619.846743,10109.768526
1160.203534,-1914.728887,8960.931193,12407.443191
1160.203833,-995.659021,1838.139732,12943.567279
1160.204132,-382.945777,-6280.310751,12790.388968
1160.204448,-1148.837332,-14551.939545,11641.551636
1160.204746,-3829.457775,-20602.482829,10722.481770
1160.205044,-1302.015643,-22593.800872,10569.303459
1160.205341,153.178311,-21674.731006,9956.590215
1160.205639,1991.318043,-15777.366033,8195.039638
1160.205937,4212.403552,-6893.023995,7812.093861
1160.206234,6127.132440,1991.318043,8654.574571
1160.206532,8807.752882,10109.768526,8960.931193
1160.206847,4518.760174,15700.776877,9803.411904
1160.207145,2833.798753,18917.521408,10109.768526
1160.207444,-842.480710,18917.521408,11182.016703
1160.207743,-3829.457775,12713.799813,12177.675724
1160.208041,-7199.380617,2604.031287,14168.993767
1160.208340,-9343.876971,-4365.581863,15547.598566
1160.208639,-6969.613150,-9650.233593,13479.691368
1160.208938,-4748.527641,-14168.993767,10952.249236
1160.209226,-382.945777,-16543.257588,9726.822748
1160.209528,1378.604799,-16083.722655,9573.644437
1160.209831,4518.760174,-11258.605858,8960.931193
1160.210133,6893.023995,-3599.690308,7429.148083
1160.210436,10722.481770,5591.008351,6356.899906
1160.210738,10109.768526,13020.156435,7275.969772
1160.211041,2680.620442,16466.668432,9803.411904
1160.211343,-842.480710,18764.343097,10722.481770
1160.211643,-3063.566220,17538.916609,9650.233593
1160.211942,-5591.008351,10109.768526,10569.303459
1160.212241,-11105.427547,153.178311,14628.528700
1160.212540,-13479.691368,-7352.558928,14781.707011
1160.212839,-9573.644437,-13403.102212,12407.443191
1160.213139,-6663.256528,-16390.079277,11718.140791
1160.213438,-3063.566220,-19836.591274,11641.551636
1160.213737,4212.403552,-16696.435899,10262.946837
1160.214078,11794.729947,-8884.342038,8348.217949
1160.214372,13403.102212,-2527.442131,5820.775818
1160.214667,15471.009411,4288.992708,5514.419196
1160.214961,10875.660081,10109.768526,7735.504705
1160.215256,2144.496354,11335.195014,9573.644437
1160.215550,-7658.915550,11028.838392,13403.102212
1160.215844,-11871.319102,10875.660081,14168.993767
1160.216139,-9880.001059,9114.109504,12407.443191
1160.216460,-10339.535992,1838.139732,14015.815456
1160.216757,-9190.698660,-4901.705952,14858.296167
1160.217054,-5437.830040,-8731.163727,14475.350389
1160.217351,-995.659021,-11411.784169,11488.373325
1160.217648,4212.403552,-14322.172078,10109.768526
1160.217945,9114.109504,-14705.117856,8884.342038
1160.218242,10416.125148,-11871.319102,8195.039638
1160.218539,11641.551636,-5361.240885,6586.667373
1160.218886,12177.675724,2604.031287,5667.597507
1160.219176,7275.969772,9267.287815,8041.861327
1160.219467,-2374.263820,12560.621502,9956.590215
1160.219757,-8577.985416,16466.668432,11105.427547
1160.220047,-9880.001059,19223.878030,11028.838392
1160.220337,-10799.070925,13939.226301,11258.605858
1160.220628,-13479.691368,4748.527641,14092.404612
1160.220918,-7199.380617,-995.659021,15241.241944
1160.221235,-1148.837332,-7046.202306,13249.923901
1160.221534,1991.318043,-12024.497413,10109.768526
1160.221832,5820.775818,-16083.722655,8960.931193
1160.222131,7275.969772,-17155.970832,9573.644437
1160.222429,7888.683016,-15011.474478,7505.737239
1160.222728,5973.954129,-9190.698660,6510.078217
1160.223027,4059.225241,-1761.550576,8041.861327
1160.223325,3293.333686,4978.295107,7888.683016
1160.223625,-2450.852976,12254.264880,9956.590215
1160.223926,-4288.992708,15547.598566,10262.946837
1160.224227,-6816.434839,16926.203365,11335.195014
1160.224527,-4825.116796,13020.156435,11641.551636
1160.224828,-4978.295107,5744.186662,12943.567279
1160.225129,-2067.907198,-1302.015643,14168.993767
1160.225430,-76.589155,-9726.822748,14015.815456
1160.225730,919.069866,-15777.366033,11488.373325
1160.226037,2374.263820,-19147.288875,11182.016703
1160.226334,1991.318043,-21521.552695,11028.838392
1160.226631,3293.333686,-17921.862387,9190.698660
1160.226928,2680.620442,-11564.962480,7429.148083
1160.227225,2680.620442,-2680.620442,8271.628794
1160.227522,4059.225241,6203.721595,8348.217949
1160.227819,919.069866,13479.691368,8960.931193
1160.228116,-2374.263820,17998.451542,11028.838392
1160.228424,-2374.263820,19913.180430,11488.373325
1160.228723,-2910.387909,17538.916609,11182.016703
1160.229022,-2221.085509,11641.551636,12407.443191
1160.229321,-1148.837332,2450.852976,13862.637145
1160.229620,-536.124088,-5667.597507,12101.086569
1160.229919,1531.783110,-13556.280523,10952.249236
1160.230218,-536.124088,-18840.932253,11335.195014
1160.230517,1225.426488,-20449.304518,10875.660081
1160.230833,765.891555,-16849.614210,10722.481770
1160.231132,1378.604799,-9497.055282,8041.861327
1160.231430,3140.155375,-229.767466,6969.613150
1160.231729,765.891555,8654.574571,7735.504705
1160.232027,-2757.209598,15088.063633,8884.342038
1160.232325,-3523.101153,19913.180430,11335.195014
1160.232624,-995.659021,23283.103272,10109.768526
1160.232922,2144.496354,18611.164786,8731.163727
1160.233239,153.178311,9803.411904,11028.838392
1160.233537,-1608.372265,-0.000000,14322.172078
1160.233835,-1455.193954,-9726.822748,12943.567279
1160.234133,-2757.209598,-17615.505765,12101.086569
1160.234431,-5437.830040,-22440.622561,12943.567279
1160.234728,-3676.279464,-23359.692427,12254.264880
1160.235026,306.356622,-18994.110564,10262.946837
1160.235324,4212.403552,-11105.427547,7888.683016
1160.235624,7046.202306,-1608.372265,8501.396260
1160.235924,7582.326394,6356.899906,8348.217949
1160.236224,4059.225241,13939.226301,7888.683016
1160.236524,1684.961421,17692.094920,10262.946837
1160.236824,-842.480710,18917.521408,10722.481770
1160.237124,-995.659021,15700.776877,9650.233593
1160.237424,-4135.814397,9267.287815,11182.016703
1160.237724,-4748.527641,-689.302399,13709.458834
1160.238015,-6969.613150,-11105.427547,14475.350389
1160.238313,-5897.364973,-18075.040698,13862.637145
1160.238612,-3676.279464,-20602.482829,12560.621502
1160.238911,2144.496354,-19683.412963,9573.644437
1160.239209,4365.581863,-17462.327454,7812.093861
1160.239508,4748.527641,-11411.784169,7199.380617
1160.239807,5667.597507,-2067.907198,8195.039638
1160.240106,5514.419196,5744.186662,8348.217949
1160.240413,3599.690308,12407.443191,7888.683016
1160.240717,459.534933,17232.559987,10109.768526
1160.241022,-382.945777,21291.785229,10109.768526
1160.241327,306.356622,20679.071985,9573.644437
1160.241631,-2221.085509,14245.582923,10722.481770
1160.241936,-2374.263820,4748.527641,12866.978124
1160.242241,-3982.636086,-4518.760174,13939.226301
1160.242545,-5437.830040,-12484.032346,12560.621502
1160.242829,-5284.651729,-18687.753942,12177.675724
1160.243131,-2604.031287,-20142.947896,12254.264880
1160.243433,1378.604799,-17462.327454,10109.768526
1160.243735,2986.977064,-10952.249236,9114.109504
1160.244037,3446.511997,-2833.798753,9114.109504
1160.244340,3906.046930,5897.364973,9114.109504
1160.244642,2144.496354,13020.156435,8960.931193
1160.244944,306.356622,17998.451542,9956.590215
1160.245226,-1914.728887,19760.002119,11641.551636
1160.245528,-2910.387909,18764.343097,11488.373325
1160.245831,-2604.031287,13173.334746,12713.799813
1160.246134,919.069866,6203.721595,11794.729947
1160.246436,-0.000000,-3599.690308,12560.621502
1160.246739,-3523.101153,-14168.993767,11718.140791
1160.247042,-3982.636086,-19683.412963,11564.962480
1160.247344,-536.124088,-21215.196073,10875.660081
1160.247634,2833.798753,-21215.196073,8960.931193
1160.247931,2374.263820,-18228.219009,9267.287815
1160.248229,3752.868619,-9497.055282,9956.590215
1160.248526,5514.419196,919.069866,7888.683016
1160.248824,4365.581863,8501.396260,7965.272172
1160.249121,-1455.193954,13173.334746,10722.481770
1160.249419,-3676.279464,16160.311810,11028.838392
1160.249716,-1761.550576,18764.343097,8884.342038
1160.250025,-1302.015643,15547.598566,9573.644437
1160.250324,-995.659021,7122.791461,10875.660081
1160.250622,-2450.852976,-3293.333686,12560.621502
1160.250921,-1302.015643,-11105.427547,12101.086569
1160.251219,-1914.728887,-18228.219009,11641.551636
1160.251518,306.356622,-21674.731006,10492.714303
1160.251816,2374.263820,-20908.839451,8960.931193
1160.252115,2144.496354,-16696.435899,9803.411904
1160.252422,1991.318043,-9190.698660,10262.946837
1160.252718,919.069866,1378.604799,10109.768526
1160.253015,1838.139732,10109.768526,10033.179370
1160.253311,-382.945777,17385.738298,9650.233593
1160.253607,-1608.372265,21291.785229,10262.946837
1160.253904,-1302.015643,22364.033406,9420.466126
1160.254200,-3369.922842,18304.808164,10569.303459
1160.254496,-2067.907198,9267.287815,12101.086569
1160.254826,-5131.473418,-1761.550576,13709.458834
1160.255124,-4825.116796,-11411.784169,13862.637145
1160.255422,-5131.473418,-18228.219009,12713.799813
1160.255720,-842.480710,-20449.304518,11182.016703
1160.256019,3752.868619,-21368.374384,9267.287815
1160.256317,3906.046930,-16849.614210,10262.946837
1160.256615,7582.326394,-8577.985416,8960.931193
1160.256913,7046.202306,1072.248177,7658.915550
1160.257208,4748.527641,7735.504705,7429.148083
1160.257508,-1455.193954,12866.978124,10109.768526
1160.257808,-3676.279464,15547.598566,12177.675724
1160.258108,-3676.279464,17079.381676,9650.233593
1160.258408,-2604.031287,13632.869679,9343.876971
1160.258709,-1148.837332,7582.326394,10262.946837
1160.259009,-1761.550576,-1455.193954,12560.621502
1160.259309,-842.480710,-9343.876971,12177.675724
1160.259597,-1148.837332,-16083.722655,11182.016703
1160.259897,306.356622,-19836.591274,11641.551636
1160.260197,4059.225241,-18840.932253,8501.396260
1160.260497,1378.604799,-14705.117856,9114.109504
1160.260797,3752.868619,-7658.915550,8501.396260
1160.261097,2680.620442,-536.124088,8501.396260
1160.261397,1838.139732,7735.504705,8041.861327
1160.261697,-2757.209598,13173.334746,11258.605858
1160.261997,-5897.364973,16619.846743,12713.799813
1160.262297,-3982.636086,20372.715363,10109.768526
1160.262597,-1455.193954,18304.808164,9650.233593
1160.262897,-1761.550576,10109.768526,11564.962480
1160.263197,-2221.085509,1225.426488,13556.280523
1160.263497,2374.263820,-5054.884263,10722.481770
1160.263797,1225.426488,-12177.675724,11335.195014
1160.264097,459.534933,-19300.467186,12254.264880
1160.264404,765.891555,-20142.947896,10262.946837
1160.264705,1531.783110,-16390.079277,9956.590215
1160.265007,612.713244,-9190.698660,8960.931193
1160.265308,-2067.907198,-3140.155375,9956.590215
1160.265610,-1302.015643,5591.008351,9573.644437
1160.265911,-2067.907198,12866.978124,9956.590215
1160.266213,-3216.744531,16466.668432,11028.838392
1160.266514,-2910.387909,15700.776877,10033.179370
1160.266830,-1608.372265,12866.978124,11028.838392
1160.267124,3140.155375,6816.434839,10492.714303
1160.267418,3752.868619,-689.302399,11411.784169
1160.267712,5208.062574,-7352.558928,10033.179370
1160.268005,2986.977064,-13709.458834,9803.411904
1160.268299,1378.604799,-18994.110564,10416.125148
1160.268593,1378.604799,-19836.591274,9267.287815
1160.268886,-2604.031287,-17921.862387,9650.233593
1160.269205,-2221.085509,-10799.070925,9726.822748
1160.269503,-2374.263820,-4365.581863,10416.125148
1160.269801,-2604.031287,5131.473418,9956.590215
1160.270100,-2757.209598,10569.303459,10262.946837
1160.270398,-3676.279464,14398.761234,10875.660081
1160.270696,-0.000000,16313.490121,10339.535992
1160.270994,612.713244,14781.707011,10033.179370
1160.271292,3906.046930,10875.660081,9190.698660
1160.271605,3140.155375,3523.101153,11182.016703
1160.271904,3752.868619,-4059.225241,11488.373325
1160.272202,-536.124088,-10645.892614,11794.729947
1160.272501,-1608.372265,-14015.815456,11028.838392
1160.272799,-1761.550576,-15471.009411,9037.520349
1160.273098,-4135.814397,-14322.172078,10262.946837
1160.273396,-4595.349330,-10339.535992,10875.660081
1160.273695,-4748.527641,-5054.884263,12713.799813
1160.273994,-2450.852976,2910.387909,11182.016703
1160.274294,1072.248177,10875.660081,9114.109504
1160.274594,3293.333686,15853.955188,9956.590215
1160.274894,3906.046930,16926.203365,10109.768526
1160.275194,4748.527641,14781.707011,8654.574571
1160.275494,4671.938485,9573.644437,9726.822748
1160.275795,1531.783110,459.534933,12177.675724
1160.276095,-2067.907198,-9037.520349,12024.497413
1160.276402,-6510.078217,-14551.939545,12407.443191
1160.276698,-5591.008351,-17462.327454,11488.373325
1160.276995,-4442.171019,-19683.412963,10109.768526
1160.277292,-2604.031287,-15930.544344,10109.768526
1160.277589,-76.589155,-8577.985416,9803.411904
1160.277886,3293.333686,-76.589155,9114.109504
1160.278183,7046.202306,8348.217949,9420.466126
1160.278479,5054.884263,14934.885322,9420.466126
1160.278794,3906.046930,17079.381676,10186.357681
1160.279097,919.069866,15853.955188,10109.768526
1160.279401,306.356622,11641.551636,8807.752882
1160.279705,-2221.085509,3676.279464,10109.768526
1160.280008,-7352.558928,-6433.489062,13096.745590
1160.280312,-7122.791461,-11718.140791,13249.923901
1160.280616,-6510.078217,-15011.474478,12407.443191
1160.280919,-2067.907198,-15777.366033,11028.838392
1160.281157,765.891555,-14168.993767,10109.768526
1160.281462,2144.496354,-9190.698660,9267.287815
1160.281766,5973.954129,-2374.263820,8501.396260
1160.282070,5973.954129,3523.101153,8960.931193
1160.282374,6127.132440,9573.644437,9650.233593
1160.282679,2527.442131,13020.156435,10799.070925
1160.282983,2833.798753,16773.025054,10569.303459
1160.283287,2297.674665,16619.846743,8654.574571
1160.283605,-2604.031287,10416.125148,11028.838392
1160.283903,-6663.256528,1531.783110,12943.567279
1160.284202,-8731.163727,-6280.310751,14628.528700
1160.284500,-7199.380617,-11871.319102,13556.280523
1160.284799,-6816.434839,-15624.187722,11335.195014
1160.285097,-2604.031287,-16696.435899,10186.357681
1160.285396,1225.426488,-15011.474478,10875.660081
1160.285694,5361.240885,-9650.233593,8807.752882
1160.285994,9420.466126,-1761.550576,8195.039638
1160.286292,9267.287815,5284.651729,8577.985416
1160.286589,7275.969772,9650.233593,7429.148083
1160.286887,153.178311,13173.334746,10109.768526
1160.287184,-2757.209598,13939.226301,10109.768526
1160.287482,-4748.527641,11335.195014,9956.590215
1160.287779,-6510.078217,5897.364973,11182.016703
1160.288076,-5897.364973,-2067.907198,12101.086569
1160.288407,-5131.473418,-10033.179370,12943.567279
1160.288703,-2221.085509,-13556.280523,13709.458834
1160.289000,-689.302399,-15777.366033,11182.016703
1160.289296,3599.690308,-15164.652789,9114.109504
1160.289592,5208.062574,-11718.140791,8960.931193
1160.289889,5667.597507,-6586.667373,7275.969772
1160.290185,6280.310751,-1302.015643,7505.737239
1160.290482,4901.705952,4442.171019,9956.590215
1160.290790,919.069866,6663.256528,9803.411904
1160.291090,-4748.527641,9420.466126,11488.373325
1160.291389,-6510.078217,13020.156435,11028.838392
1160.291689,-7199.380617,11028.838392,11182.016703
1160.291989,-6356.899906,6203.721595,12024.497413
1160.292289,-3982.636086,2910.387909,12101.086569
1160.292589,2527.442131,-842.480710,11028.838392
1160.292888,6280.310751,-4825.116796,10722.481770
1160.293172,4671.938485,-9880.001059,11182.016703
1160.293477,7275.969772,-10645.892614,10109.768526
1160.293781,6280.310751,-10186.357681,9650.233593
1160.294086,3293.333686,-8884.342038,9267.287815
1160.294391,-1302.015643,-4671.938485,11182.016703
1160.294696,-5131.473418,1225.426488,12254.264880
1160.295000,-2067.907198,8807.752882,9650.233593
1160.295305,-6356.899906,12254.264880,9880.001059
1160.295577,-7965.272172,12560.621502,11028.838392
1160.295881,-7199.380617,12560.621502,12177.675724
1160.296185,-2757.209598,9114.109504,11641.551636
1160.296489,2144.496354,4825.116796,10262.946837
1160.296793,3446.511997,-1914.728887,11718.140791
1160.297097,5361.240885,-6586.667373,10262.946837
1160.297401,4901.705952,-10952.249236,9114.109504
1160.297704,5667.597507,-13556.280523,9803.411904
1160.297994,1991.318043,-17002.792521,11028.838392
1160.298293,-689.302399,-14475.350389,9267.287815
1160.298593,459.534933,-6893.023995,8501.396260
1160.298892,-1148.837332,-1914.728887,9650.233593
1160.299191,-2604.031287,2144.496354,10109.768526
1160.299490,-5284.651729,8041.861327,11335.195014
1160.299789,-3829.457775,12407.443191,10262.946837
1160.300088,-76.589155,13326.513057,9037.520349
1160.300374,-0.000000,9420.466126,9803.411904
1160.300676,1072.248177,4135.814397,9880.001059
1160.300978,2680.620442,-2833.798753,12101.086569
1160.301279,1838.139732,-9726.822748,12101.086569
1160.301581,-1914.728887,-14858.296167,11641.551636
1160.301883,-1455.193954,-17002.792521,11794.729947
1160.302185,-689.302399,-14858.296167,9956.590215
1160.302487,1991.318043,-12790.388968,8501.396260
1160.302794,2297.674665,-7199.380617,7429.148083
1160.303090,1072.248177,919.069866,9956.590215
1160.303387,2680.620442,7275.969772,9956.590215
1160.303683,-536.124088,12560.621502,11028.838392
1160.303980,-229.767466,15394.420255,11335.195014
1160.304276,-76.589155,16466.668432,10262.946837
1160.304572,1072.248177,12560.621502,10262.946837
1160.304869,-1455.193954,5131.473418,10645.892614
1160.305199,-1608.372265,-1302.015643,12713.799813
1160.305493,-2067.907198,-7965.272172,13249.923901
1160.305788,-3063.566220,-12790.388968,12713.799813
1160.306083,-2374.263820,-15930.544344,11335.195014
1160.306378,-1914.728887,-15624.187722,11335.195014
1160.306672,919.069866,-10645.892614,10262.946837
1160.306967,3293.333686,-2221.085509,8195.039638
1160.307262,4365.581863,5744.186662,8041.861327
1160.307590,5208.062574,11641.551636,8654.574571
1160.307889,919.069866,15088.063633,10109.768526
1160.308189,153.178311,16619.846743,10033.179370
1160.308488,-995.659021,15394.420255,9650.233593
1160.308788,-842.480710,7735.504705,10109.768526
1160.309087,-5897.364973,-1761.550576,13249.923901
1160.309387,-5437.830040,-9497.055282,13862.637145
1160.309686,-1148.837332,-12177.675724,10722.481770
1160.309974,-689.302399,-16543.257588,9880.001059
1160.310275,-1455.193954,-18381.397320,10416.125148
1160.310576,-842.480710,-16236.900966,11028.838392
1160.310877,4518.760174,-8118.450483,8041.861327
1160.311178,6127.132440,-2986.977064,7046.202306
1160.311478,3599.690308,1684.961421,9037.520349
1160.311779,2144.496354,8041.861327,11258.605858
1160.312080,612.713244,13173.334746,8960.931193
1160.312366,-689.302399,14092.404612,9726.822748
1160.312665,-4748.527641,10569.303459,12560.621502
1160.312965,-4442.171019,6203.721595,12254.264880
1160.313264,-3676.279464,1991.318043,11258.605858
1160.313563,-229.767466,-3140.155375,11794.729947
1160.313863,-1302.015643,-10339.535992,12943.567279
1160.314162,-2450.852976,-14015.815456,13403.102212
1160.314461,919.069866,-12943.567279,10109.768526
1160.314768,3446.511997,-12177.675724,8960.931193
1160.315067,3140.155375,-9497.055282,9956.590215
1160.315366,2833.798753,-2221.085509,8501.396260
1160.315665,4212.403552,4748.527641,9114.109504
1160.315964,4365.581863,10875.660081,9573.644437
1160.316263,-995.659021,13326.513057,9114.109504
1160.316562,-4288.992708,14245.582923,10262.946837
1160.316861,-6356.899906,13326.513057,10952.249236
1160.317177,-5437.830040,7582.326394,11028.838392
1160.317476,-5131.473418,1684.961421,10722.481770
1160.317774,-3063.566220,-2067.907198,11794.729947
1160.318073,-1148.837332,-8884.342038,11641.551636
1160.318371,-3216.744531,-15011.474478,12101.086569
1160.318669,-76.589155,-16236.900966,11182.016703
1160.318968,3906.046930,-14475.350389,9956.590215
1160.319266,6433.489062,-12024.497413,8195.039638
1160.319581,5514.419196,-6893.023995,7505.737239
1160.319879,7275.969772,919.069866,8195.039638
1160.320178,7429.148083,7275.969772,8195.039638
1160.320477,1225.426488,9420.466126,8807.752882
1160.320775,-5284.651729,10262.946837,10799.070925
1160.321074,-7122.791461,11641.551636,11258.605858
1160.321373,-5591.008351,9573.644437,12024.497413
1160.321672,-4288.992708,5897.364973,12254.264880
1160.321960,-3216.744531,1838.139732,12560.621502
1160.322260,-2910.387909,-3293.333686,12713.799813
1160.322560,-2910.387909,-9497.055282,12177.675724
1160.322860,-689.302399,-13403.102212,11564.962480
1160.323160,1225.426488,-13862.637145,11641.551636
1160.323460,4059.225241,-14322.172078,9497.055282
1160.323760,3906.046930,-10339.535992,9420.466126
1160.324060,6127.132440,-3446.511997,10492.714303
1160.324359,9650.233593,4442.171019,7429.148083
1160.324659,5973.954129,10569.303459,7812.093861
1160.324958,919.069866,13939.226301,10186.357681
1160.325257,-4135.814397,16466.668432,11794.729947
1160.325556,-3063.566220,16466.668432,10186.357681
1160.325856,-4288.992708,12254.264880,10569.303459
1160.326155,-6663.256528,3523.101153,12943.567279
1160.326454,-9880.001059,-5054.884263,15088.063633
1160.326761,-7812.093861,-10492.714303,12101.086569
1160.327061,-3369.922842,-14015.815456,9803.411904
1160.327361,-2450.852976,-20296.126207,12024.497413
1160.327661,1838.139732,-20602.482829,10109.768526
1160.327961,8041.861327,-11564.962480,7735.504705
1160.328261,13096.745590,-3906.046930,6816.434839
1160.328561,11488.373325,1991.318043,6510.078217
1160.328861,4671.938485,8041.861327,9190.698660
1160.329182,765.891555,14398.761234,9420.466126
1160.329479,-4825.116796,15853.955188,9956.590215
1160.329776,-6816.434839,13632.869679,10722.481770
1160.330073,-10186.357681,8041.861327,11641.551636
1160.330370,-8577.985416,765.891555,13709.458834
1160.330667,-6203.721595,-4671.938485,13862.637145
1160.330964,-4135.814397,-11564.962480,13173.334746
1160.331261,-1455.193954,-15777.366033,12713.799813
1160.331580,2986.977064,-17462.327454,10569.303459
1160.331878,8041.861327,-14322.172078,8348.217949
1160.332176,9497.055282,-10186.357681,6816.434839
1160.332474,8960.931193,-5054.884263,7582.326394
1160.332773,7046.202306,2450.852976,8041.861327
1160.333071,1991.318043,6816.434839,10109.768526
1160.333369,-4748.527641,11028.838392,12024.497413
1160.333667,-6356.899906,14475.350389,11718.140791
1160.333980,-4825.116796,14475.350389,9956.590215
1160.334276,-5437.830040,10569.303459,10722.481770
1160.334572,-4135.814397,4595.349330,12637.210657
1160.334868,-2221.085509,-689.302399,14015.815456
1160.335164,1684.961421,-6586.667373,12407.443191
1160.335460,4059.225241,-10952.249236,10875.660081
1160.335756,3906.046930,-13709.458834,11028.838392
1160.336052,4365.581863,-13709.458834,9420.466126
1160.336352,2374.263820,-11411.784169,9573.644437
1160.336653,2680.620442,-4671.938485,9420.466126
1160.336953,1378.604799,2757.209598,9114.109504
1160.337254,-3369.922842,7888.683016,9420.466126
1160.337555,-5591.008351,13173.334746,9726.822748
1160.337856,-5591.008351,17079.381676,10492.714303
1160.338157,-1761.550576,17692.094920,9880.001059
1160.338457,-4135.814397,11947.908258,11335.195014
1160.338764,-1302.015643,6663.256528,12866.978124
1160.339065,2144.496354,1072.248177,12330.854035
1160.339365,4901.705952,-6127.132440,10109.768526
1160.339665,1378.604799,-13556.280523,10569.303459
1160.339965,-1761.550576,-18228.219009,12943.567279
1160.340265,612.713244,-17921.862387,10875.660081
1160.340566,2374.263820,-14551.939545,9037.520349
1160.340866,919.069866,-10339.535992,8807.752882
1160.341146,-3216.744531,-5054.884263,10875.660081
1160.341445,-1148.837332,4135.814397,9956.590215
1160.341744,765.891555,11641.551636,7582.326394
1160.342043,-382.945777,14245.582923,9573.644437
1160.342342,-536.124088,14092.404612,10569.303459
1160.342641,1225.426488,14781.707011,9803.411904
1160.342940,4212.403552,10875.660081,9803.411904
1160.343238,1838.139732,919.069866,13173.334746
1160.343555,-2757.209598,-9037.520349,14475.350389
1160.343854,-3982.636086,-14168.993767,11947.908258
1160.344152,-2757.209598,-17002.792521,11028.838392
1160.344450,-2374.263820,-18840.932253,9650.233593
1160.344749,-2910.387909,-19836.591274,10875.660081
1160.345047,-1455.193954,-15011.474478,12254.264880
1160.345345,2986.977064,-4365.581863,9880.001059
1160.345644,6739.845684,4978.295107,7582.326394
1160.345961,6893.023995,12560.621502,7429.148083
1160.346259,4518.760174,18151.629853,9420.466126
1160.346557,4518.760174,22517.211717,9267.287815
1160.346855,3293.333686,21291.785229,8654.574571
1160.347152,612.713244,16313.490121,9880.001059
1160.347450,-6816.434839,6510.078217,14551.939545
1160.347748,-12407.443191,-5208.062574,15394.420255
1160.348046,-12254.264880,-11718.140791,13862.637145
1160.348346,-9343.876971,-17155.970832,14015.815456
1160.348646,-4825.116796,-19989.769585,11028.838392
1160.348946,1684.961421,-17462.327454,9420.466126
1160.349246,8501.396260,-10339.535992,7888.683016
1160.349546,12024.497413,-4059.225241,6969.613150
1160.349846,10262.946837,2144.496354,7275.969772
1160.350146,6127.132440,8807.752882,6663.256528
1160.350446,3140.155375,13786.047990,9420.466126
1160.350737,-229.767466,15394.420255,10875.660081
1160.351039,-2757.209598,14245.582923,9803.411904
1160.351342,-3216.744531,11641.551636,10186.357681
1160.351644,-5591.008351,5284.651729,14322.172078
1160.351947,-10645.892614,-4518.760174,14322.172078
1160.352249,-11258.605858,-9880.001059,13862.637145
1160.352552,-8731.163727,-13249.923901,13403.102212
1160.352855,-689.302399,-15164.652789,10416.125148
1160.353163,3752.868619,-16236.900966,9420.466126
1160.353462,9803.411904,-13709.458834,8501.396260
1160.353762,13403.102212,-7352.558928,8654.574571
1160.354062,15930.544344,-536.124088,6816.434839
1160.354362,10109.768526,4442.171019,6510.078217
1160.354662,1684.961421,10109.768526,10262.946837
1160.354962,-4825.116796,14245.582923,11411.784169
1160.355261,-9190.698660,14628.528700,10569.303459
1160.355578,-12407.443191,10569.303459,12560.621502
1160.355875,-16007.133499,4748.527641,16543.257588
1160.356173,-9726.822748,-0.000000,14475.350389
1160.356470,-2450.852976,-1761.550576,9956.590215
1160.356767,3446.511997,-7352.558928,10262.946837
1160.357065,6127.132440,-12943.567279,10722.481770
1160.357362,9956.590215,-12024.497413,9420.466126
1160.357659,14245.582923,-9190.698660,5973.954129
1160.357946,8960.931193,-6433.489062,7888.683016
1160.358243,3140.155375,-4825.116796,9956.590215
1160.358541,-2221.085509,1378.604799,9114.109504
1160.358838,-3829.457775,8041.861327,8807.752882
1160.359136,-8118.450483,10875.660081,10416.125148
1160.359433,-10952.249236,10722.481770,11641.551636
1160.359731,-9037.520349,10262.946837,12407.443191
1160.360028,-5897.364973,7429.148083,13556.280523
1160.360340,-3063.566220,1684.961421,12790.388968
1160.360639,-76.589155,-4901.705952,11182.016703
1160.360938,4365.581863,-8271.628794,10109.768526
1160.361237,8960.931193,-12943.567279,9573.644437
1160.361536,10569.303459,-14322.172078,7965.272172
1160.361836,9650.233593,-13096.745590,7888.683016
1160.362135,3752.868619,-10492.714303,11488.373325
1160.362434,-2067.907198,-5361.240885,10722.481770
1160.362748,-5131.473418,919.069866,10262.946837
1160.363046,-7812.093861,5744.186662,9956.590215
1160.363343,-10799.070925,9420.466126,11488.373325
1160.363641,-7199.380617,11947.908258,11488.373325
1160.363939,-0.000000,14092.404612,9114.109504
1160.364237,3140.155375,10262.946837,11641.551636
1160.364535,4365.581863,3982.636086,12866.978124
1160.364833,4212.403552,-2221.085509,11182.016703
1160.365140,9114.109504,-6586.667373,8348.217949
1160.365439,5208.062574,-13862.637145,9420.466126
1160.365737,-229.767466,-19530.234652,11488.373325
1160.366036,-536.124088,-18381.397320,10569.303459
1160.366335,-536.124088,-11564.962480,9880.001059
1160.366634,-3063.566220,-4901.705952,9114.109504
1160.366933,-6203.721595,3369.922842,9803.411904
1160.367232,-6356.899906,11028.838392,11335.195014
1160.367528,-4288.992708,16466.668432,11335.195014
1160.367828,-1914.728887,19070.699719,10645.892614
1160.368127,153.178311,17079.381676,9420.466126
1160.368427,3293.333686,12101.086569,11028.838392
1160.368727,5208.062574,5284.651729,11182.016703
1160.369026,2833.798753,-4365.581863,9956.590215
1160.369326,1378.604799,-11564.962480,11182.016703
1160.369625,-382.945777,-15471.009411,11488.373325
1160.369953,-1761.550576,-17615.505765,10569.303459
1160.370252,-1302.015643,-15624.187722,9573.644437
1160.370550,-6203.721595,-12024.497413,11794.729947
1160.370849,-4748.527641,-4365.581863,10875.660081
1160.371148,-1608.372265,4748.527641,7429.148083
1160.371447,1072.248177,10109.768526,8041.861327
1160.371746,612.713244,11947.908258,11182.016703
1160.372044,1072.248177,13173.334746,13403.102212
1160.372332,6280.310751,14398.761234,9650.233593
1160.372633,6280.310751,9650.233593,8960.931193
1160.372934,765.891555,-76.589155,13096.745590
1160.373235,-4978.295107,-7965.272172,12790.388968
1160.373536,-2910.387909,-11258.605858,10569.303459
1160.373836,-2221.085509,-15930.544344,9267.287815
1160.374137,-3369.922842,-19300.467186,10109.768526
1160.374438,-995.659021,-17155.970832,10339.535992
1160.374747,1378.604799,-9343.876971,10569.303459
1160.375043,4212.403552,-2833.798753,8960.931193
1160.375339,3599.690308,3829.457775,9114.109504
1160.375635,2986.977064,10569.303459,8960.931193
1160.375931,3140.155375,14092.404612,9956.590215
1160.376228,3446.511997,13786.047990,8195.039638
1160.376524,1531.783110,9267.287815,9880.001059
1160.376820,-2604.031287,2910.387909,13403.102212
1160.377127,-6203.721595,-3446.511997,14168.993767
1160.377426,-7505.737239,-6586.667373,13096.745590
1160.377725,-4978.295107,-9190.698660,11028.838392
1160.378023,-4825.116796,-11871.319102,11488.373325
1160.378322,-2067.907198,-11258.605858,10875.660081
1160.378621,2527.442131,-7658.915550,9114.109504
1160.378920,6433.489062,-1914.728887,8501.396260
1160.379219,7429.148083,3829.457775,9114.109504
1160.379535,5208.062574,6663.256528,9803.411904
1160.379832,3293.333686,12407.443191,8654.574571
1160.380130,612.713244,13786.047990,10262.946837
1160.380427,-3523.101153,10569.303459,10722.481770
1160.380724,-5284.651729,6969.613150,12330.854035
1160.381021,-4825.116796,2757.209598,12560.621502
1160.381318,-4135.814397,-2374.263820,12024.497413
1160.381615,-3676.279464,-5667.597507,11411.784169
1160.381962,-382.945777,-8424.807105,10033.179370
1160.382258,612.713244,-11105.427547,11028.838392
1160.382555,1991.318043,-12024.497413,10722.481770
1160.382851,3599.690308,-9726.822748,9037.520349
1160.383147,6586.667373,-5667.597507,8654.574571
1160.383444,7582.326394,-842.480710,7582.326394
1160.383740,2833.798753,1225.426488,9573.644437
1160.384036,-689.302399,4978.295107,9726.822748
1160.384324,-3523.101153,8654.574571,11182.016703
1160.384624,-6356.899906,8041.861327,10492.714303
1160.384924,-8271.628794,5897.364973,11488.373325
1160.385224,-9726.822748,1684.961421,14628.528700
1160.385523,-5744.186662,-229.767466,12790.388968
1160.385823,-3063.566220,-4518.760174,11564.962480
1160.386123,2374.263820,-7199.380617,9650.233593
1160.386423,6739.845684,-9726.822748,9956.590215
1160.386723,10262.946837,-10645.892614,8654.574571
1160.387022,11641.551636,-8577.985416,7965.272172
1160.387321,9497.055282,-5820.775818,8501.396260
1160.387620,5973.954129,-1608.372265,8577.985416
1160.387920,-229.767466,2450.852976,10645.892614
1160.388219,-3829.457775,6663.256528,10722.481770
1160.388518,-7199.380617,9803.411904,11641.551636
1160.388817,-8884.342038,9114.109504,11182.016703
1160.389124,-10186.357681,7888.683016,12713.799813
1160.389427,-8884.342038,4442.171019,14934.885322
1160.389729,-5284.651729,2450.852976,13326.513057
1160.390031,-1455.193954,-536.124088,11794.729947
1160.390333,4365.581863,-3752.868619,8960.931193
1160.390635,6893.023995,-7505.737239,8807.752882
1160.390937,8041.861327,-9726.822748,7735.504705
1160.391239,7275.969772,-8884.342038,6893.023995
1160.391513,3293.333686,-9343.876971,10569.303459
1160.391817,765.891555,-5208.062574,10109.768526
1160.392120,-2604.031287,1684.961421,10033.179370
1160.392424,-4748.527641,5897.364973,9267.287815
1160.392728,-8424.807105,6663.256528,11488.373325
1160.393031,-5437.830040,7888.683016,11871.319102
1160.393335,-3829.457775,7582.326394,10875.660081
1160.393639,1378.604799,5284.651729,11028.838392
1160.393957,3752.868619,765.891555,11488.373325
1160.394250,2986.977064,-4518.760174,11488.373325
1160.394543,6280.310751,-6739.845684,9037.520349
1160.394836,4671.938485,-10645.892614,9267.287815
1160.395128,1838.139732,-14168.993767,9880.001059
1160.395421,1072.248177,-12637.210657,9726.822748
1160.395714,-76.589155,-7352.558928,10109.768526
1160.396007,-536.124088,-1761.550576,10416.125148
1160.396324,-4135.814397,3676.279464,11488.373325
1160.396622,-3982.636086,8501.396260,10569.303459
1160.396921,-2604.031287,12866.978124,10722.481770
1160.397220,-3523.101153,11335.195014,11182.016703
1160.397518,-3676.279464,9114.109504,11641.551636
1160.397817,-76.589155,5591.008351,12713.799813
1160.398115,3906.046930,1991.318043,10262.946837
1160.398414,2297.674665,-4671.938485,10722.481770
1160.398714,1531.783110,-9880.001059,11641.551636
1160.399015,1684.961421,-12637.210657,10722.481770
1160.399316,3446.511997,-12943.567279,10033.179370
1160.399616,2297.674665,-11411.784169,9573.644437
1160.399917,-1148.837332,-6433.489062,10416.125148
1160.400218,-842.480710,459.534933,9803.411904
1160.400518,-689.302399,7429.148083,8807.752882
1160.400819,-76.589155,11488.373325,8960.931193
1160.401126,-4135.814397,13326.513057,12177.675724
1160.401423,-1608.372265,12560.621502,10262.946837
1160.401720,1072.248177,10569.303459,9420.466126
1160.402017,1378.604799,4748.527641,11947.908258
1160.402314,-2450.852976,-4365.581863,13096.745590
1160.402611,-5897.364973,-10952.249236,12713.799813
1160.402908,-1914.728887,-12943.567279,10952.249236
1160.403205,-536.124088,-17002.792521,10799.070925
1160.403513,-76.589155,-18381.397320,10339.535992
1160.403812,2527.442131,-14015.815456,9573.644437
1160.404112,5820.775818,-5361.240885,8654.574571
1160.404412,8041.861327,3216.744531,7582.326394
1160.404712,2833.798753,8041.861327,8960.931193
1160.405012,306.356622,12101.086569,9573.644437
1160.405312,-1914.728887,15700.776877,9650.233593
1160.405611,-0.000000,13173.334746,9114.109504
1160.405974,-3676.279464,7735.504705,9343.876971
1160.406266,-5897.364973,153.178311,14781.707011
1160.406559,-7965.272172,-8424.807105,15930.544344
1160.406852,-4825.116796,-12177.675724,13939.226301
1160.407144,-229.767466,-13709.458834,11488.373325
1160.407437,2986.977064,-16236.900966,8960.931193
1160.407730,6127.132440,-14475.350389,8960.931193
1160.408022,6893.023995,-9650.233593,7582.326394
1160.408340,5820.775818,-2680.620442,8731.163727
1160.408636,5973.954129,4595.349330,9650.233593
1160.408933,1378.604799,11028.838392,9497.055282
1160.409230,-229.767466,15853.955188,8884.342038
1160.409527,-4748.527641,17692.094920,9420.466126
1160.409823,-5284.651729,14398.761234,11411.784169
1160.410120,-7658.915550,8807.752882,12713.799813
1160.410417,-4748.527641,2910.387909,13479.691368
1160.410706,-3982.636086,-4365.581863,13249.923901
1160.411006,-2604.031287,-10339.535992,13096.745590
1160.411305,1684.961421,-12790.388968,11641.551636
1160.411604,5514.419196,-14551.939545,9650.233593
1160.411903,5667.597507,-14551.939545,9726.822748
1160.412202,3446.511997,-11105.427547,10262.946837
1160.412501,6739.845684,-3140.155375,7275.969772
1160.412800,7735.504705,4748.527641,5514.419196
1160.413114,306.356622,7582.326394,9650.233593
1160.413413,-6663.256528,9956.590215,11335.195014
1160.413712,-9190.698660,14628.528700,13096.745590
1160.414010,-4288.992708,15241.241944,9956.590215
1160.414309,-5437.830040,8348.217949,11105.427547
1160.414608,-7122.791461,2144.496354,14705.117856
1160.414907,-2374.263820,-2833.798753,13862.637145
1160.415205,2374.263820,-9343.876971,10109.768526
1160.415512,5514.419196,-15777.366033,8654.574571
1160.415815,2374.263820,-20755.661140,11335.195014
1160.416118,4748.527641,-19989.769585,9803.411904
1160.416422,7888.683016,-13709.458834,6433.489062
1160.416725,7122.791461,-9190.698660,7275.969772
1160.417028,1072.248177,-4059.225241,10722.481770
1160.417331,-3829.457775,3523.101153,11335.195014
1160.417634,-1608.372265,11947.908258,8960.931193
1160.417950,-2221.085509,14781.707011,9343.876971
1160.418244,-5284.651729,12560.621502,12254.264880
1160.418537,-6816.434839,9420.466126,12943.567279
1160.418831,-3523.101153,6510.078217,13862.637145
1160.419124,-995.659021,1072.248177,13249.923901
1160.419417,-1148.837332,-5361.240885,11641.551636
1160.419711,459.534933,-7965.272172,10722.481770
1160.420004,3906.046930,-10645.892614,9650.233593
1160.420299,5973.954129,-11718.140791,7582.326394
1160.420600,4212.403552,-11718.140791,8041.861327
1160.420901,2986.977064,-7658.915550,8960.931193
1160.421202,612.713244,-2680.620442,11335.195014
1160.421503,-536.124088,3982.636086,9956.590215
1160.421803,-76.589155,10722.481770,9267.287815
1160.422104,-2450.852976,14628.528700,9803.411904
1160.422405,-1148.837332,15853.955188,8960.931193
1160.422717,-3216.744531,12101.086569,11182.016703
1160.423014,-2910.387909,7888.683016,11794.729947
1160.423312,-5744.186662,153.178311,13862.637145
1160.423609,-7965.272172,-7658.915550,14015.815456
1160.423907,-5131.473418,-11564.962480,11488.373325
1160.424204,-2067.907198,-15317.831100,10722.481770
1160.424501,765.891555,-17768.684076,11182.016703
1160.424799,2680.620442,-16083.722655,10109.768526
1160.425085,8501.396260,-9037.520349,6663.256528
1160.425388,10722.481770,-536.124088,6969.613150
1160.425690,7582.326394,4288.992708,7275.969772
1160.425993,4671.938485,10722.481770,9114.109504
1160.426296,1684.961421,15394.420255,9573.644437
1160.426599,306.356622,15547.598566,8195.039638
1160.426901,-7122.791461,10722.481770,11258.605858
1160.427204,-10492.714303,4442.171019,15088.063633
1160.427511,-11564.962480,-3599.690308,16849.614210
1160.427811,-8424.807105,-8884.342038,12713.799813
1160.428110,-6356.899906,-13556.280523,11794.729947
1160.428410,-2374.263820,-16849.614210,11641.551636
1160.428710,6127.132440,-15164.652789,9650.233593
1160.429009,12024.497413,-12177.675724,7735.504705
1160.429309,14015.815456,-6586.667373,6356.899906
1160.429609,9956.590215,-536.124088,8654.574571
1160.429943,8041.861327,6816.434839,8348.217949
1160.430234,4748.527641,13939.226301,7429.148083
1160.430526,-3523.101153,15853.955188,10645.892614
1160.430817,-8884.342038,16007.133499,11182.016703
1160.431108,-11871.319102,13786.047990,12101.086569
1160.431399,-11718.140791,8501.396260,13403.102212
1160.431690,-13939.226301,-382.945777,16849.614210
1160.431981,-12866.978124,-7658.915550,15853.955188
1160.432296,-4135.814397,-10799.070925,11258.605858
1160.432594,5820.775818,-12790.388968,9573.644437
1160.432893,12024.497413,-16390.079277,8195.039638
1160.433192,13862.637145,-16390.079277,8654.574571
1160.433491,16619.846743,-9880.001059,6356.899906
1160.433789,14398.761234,-995.659021,5820.775818
1160.434088,6127.132440,3676.279464,7275.969772
1160.434387,-4595.349330,7429.148083,9190.698660
1160.434699,-10799.070925,12254.264880,11488.373325
1160.434998,-11718.140791,14781.707011,10722.481770
1160.435298,-14475.350389,10109.768526,12101.086569
1160.435598,-14245.582923,5284.651729,15394.420255
1160.435898,-10033.179370,306.356622,16849.614210
1160.436198,-2221.085509,-4518.760174,12560.621502
1160.436498,3752.868619,-8577.985416,9573.644437
1160.436798,8654.574571,-12790.388968,9343.876971
1160.437098,10569.303459,-15624.187722,8884.342038
1160.437397,13403.102212,-15011.474478,6510.078217
1160.437696,13249.923901,-11564.962480,6356.899906
1160.437996,7429.148083,-7199.380617,8501.396260
1160.438295,1072.248177,-995.659021,9497.055282
1160.438594,-3676.279464,6203.721595,9573.644437
1160.438893,-8424.807105,12560.621502,10492.714303
1160.439192,-11105.427547,14398.761234,12407.443191
1160.439499,-15241.241944,13173.334746,13556.280523
1160.439800,-8884.342038,12407.443191,12713.799813
1160.440101,-1455.193954,9420.466126,12790.388968
1160.440402,459.534933,612.713244,12790.388968
1160.440702,1991.318043,-6893.023995,12560.621502
1160.441003,8501.396260,-8118.450483,11105.427547
1160.441304,12790.388968,-10799.070925,6816.434839
1160.441605,7275.969772,-15777.366033,8807.752882
1160.441886,919.069866,-14322.172078,10569.303459
1160.442185,306.356622,-5667.597507,9343.876971
1160.442483,919.069866,1684.961421,7275.969772
1160.442781,-4595.349330,4595.349330,8654.574571
1160.443080,-9190.698660,10569.303459,13249.923901
1160.443378,-2910.387909,18151.629853,12024.497413
1160.443677,2144.496354,20219.537052,8654.574571
1160.443975,2680.620442,14628.528700,10569.303459
1160.444294,-4135.814397,7735.504705,14781.707011
1160.444592,-3982.636086,919.069866,12943.567279
1160.444890,-1608.372265,-5973.954129,9650.233593
1160.445188,-3369.922842,-14705.117856,11411.784169
1160.445487,-7122.791461,-22287.444250,13173.334746
1160.445785,-2910.387909,-21674.731006,11028.838392
1160.446083,5973.954129,-15624.187722,7505.737239
1160.446381,6127.132440,-11258.605858,8041.861327
1160.446694,5820.775818,-4212.403552,9650.233593
1160.446993,5361.240885,6050.543284,7275.969772
1160.447291,7888.683016,13326.513057,6356.899906
1160.447590,5361.240885,13939.226301,8960.931193
1160.447888,-1914.728887,11947.908258,11335.195014
1160.448187,-3216.744531,9420.466126,11564.962480
1160.448485,-5131.473418,5131.473418,12713.799813
1160.448784,-9343.876971,-4212.403552,14015.815456
1160.449048,-13020.156435,-10952.249236,15241.241944
1160.449354,-9190.698660,-13096.745590,13862.637145
1160.449660,-536.124088,-14475.350389,9420.466126
1160.449966,1991.318043,-15777.366033,8501.396260
1160.450271,4059.225241,-15164.652789,9650.233593
1160.450577,7582.326394,-7199.380617,9420.466126
1160.450883,12024.497413,1684.961421,6969.613150
1160.451188,10109.768526,8348.217949,7429.148083
1160.451496,7122.791461,13020.156435,8501.396260
1160.451792,5514.419196,18611.164786,9573.644437
1160.452089,1378.604799,19606.823808,8807.752882
1160.452386,-2374.263820,14245.582923,9956.590215
1160.452683,-10186.357681,6050.543284,14168.993767
1160.452980,-15547.598566,-3752.868619,16236.900966
1160.453277,-16160.311810,-10033.179370,15394.420255
1160.453574,-11564.962480,-13096.745590,14092.404612
1160.453888,-5131.473418,-15777.366033,11335.195014
1160.454191,306.356622,-15164.652789,10262.946837
1160.454493,10262.946837,-9343.876971,8501.396260
1160.454796,17385.738298,-1761.550576,4901.705952
1160.455099,16390.079277,2604.031287,6280.310751
1160.455402,9267.287815,5897.364973,7505.737239
1160.455705,3752.868619,11641.551636,8960.931193
1160.456007,2144.496354,14398.761234,9114.109504
1160.456280,-5284.651729,12254.264880,10569.303459
1160.456583,-11258.605858,6816.434839,13862.637145
1160.456886,-13786.047990,3523.101153,15394.420255
1160.457188,-9573.644437,-1455.193954,12943.567279
1160.457491,-8884.342038,-7046.202306,11871.319102
1160.457793,-7352.558928,-12177.675724,13862.637145
1160.458096,153.178311,-13556.280523,11105.427547
1160.458399,7122.791461,-12484.032346,8271.628794
1160.458664,11794.729947,-12484.032346,7582.326394
1160.458967,9650.233593,-10799.070925,8654.574571
1160.459269,11488.373325,-4059.225241,9037.520349
1160.459572,10416.125148,2297.674665,6127.132440
1160.459874,4518.760174,5591.008351,8501.396260
1160.460177,-4135.814397,8195.039638,12713.799813
1160.460479,-9726.822748,10109.768526,12177.675724
1160.460782,-7199.380617,12101.086569,11028.838392
1160.461082,-9343.876971,8654.574571,12560.621502
1160.461382,-11105.427547,2450.852976,14475.350389
1160.461682,-7965.272172,-536.124088,13632.869679
1160.461982,1838.139732,-3906.046930,9420.466126
1160.462282,7046.202306,-10033.179370,9114.109504
1160.462582,5054.884263,-14551.939545,11641.551636
1160.462882,8041.861327,-14475.350389,9956.590215
1160.463182,10722.481770,-9190.698660,7888.683016
1160.463489,8807.752882,-4901.705952,7888.683016
1160.463789,-689.302399,-1455.193954,9956.590215
1160.464089,-5437.830040,5744.186662,11028.838392
1160.464390,-4442.171019,13173.334746,9726.822748
1160.464690,-6510.078217,13632.869679,9650.233593
1160.464990,-7352.558928,14092.404612,11258.605858
1160.465290,-5744.186662,11947.908258,12713.799813
1160.465591,-3063.566220,6663.256528,11947.908258
1160.465898,-2450.852976,-1302.015643,11794.729947
1160.466195,306.356622,-7812.093861,12713.799813
1160.466491,4059.225241,-11871.319102,10875.660081
1160.466788,5208.062574,-16083.722655,8960.931193
1160.467084,8195.039638,-15930.544344,7888.683016
1160.467381,4059.225241,-12637.210657,9573.644437
1160.467677,1838.139732,-9343.876971,10875.660081
1160.467974,-2221.085509,-2833.798753,9803.411904
1160.468257,-3063.566220,5591.008351,9803.411904
1160.468563,-3369.922842,10569.303459,9880.001059
1160.468869,-2374.263820,12713.799813,9114.109504
1160.469176,-995.659021,12713.799813,10186.357681
1160.469482,153.178311,11335.195014,10569.303459
1160.469788,459.534933,5591.008351,11794.729947
1160.470094,-3523.101153,-1455.193954,12713.799813
1160.470400,-1914.728887,-9190.698660,12713.799813
1160.470682,459.534933,-13403.102212,11488.373325
1160.470978,1684.961421,-16849.614210,10109.768526
1160.471274,2986.977064,-17309.149143,10416.125148
1160.471571,919.069866,-14168.993767,11488.373325
1160.471867,4212.403552,-4901.705952,8041.861327
1160.472163,2297.674665,2144.496354,7582.326394
1160.472459,-1608.372265,8041.861327,10416.125148
1160.472756,-2221.085509,13786.047990,11641.551636
1160.473067,-536.124088,18151.629853,10109.768526
1160.473366,2527.442131,19300.467186,9573.644437
1160.473666,-536.124088,13479.691368,12560.621502
1160.473965,-2757.209598,6510.078217,13096.745590
1160.474264,-3369.922842,-0.000000,11258.605858
1160.474563,-2374.263820,-7046.202306,11794.729947
1160.474862,-3369.922842,-14322.172078,11488.373325
1160.475161,-4442.171019,-17309.149143,11182.016703
1160.475470,1225.426488,-16083.722655,9726.822748
1160.475769,2374.263820,-11718.140791,9573.644437
1160.476067,4365.581863,-6280.310751,9420.466126
1160.476366,2297.674665,1531.783110,8195.039638
1160.476664,1838.139732,8807.752882,7352.558928
1160.476963,2297.674665,12560.621502,9267.287815
1160.477261,-995.659021,12407.443191,10033.179370
1160.477560,-3063.566220,9956.590215,11182.016703
1160.477867,-3063.566220,6356.899906,11641.551636
1160.478167,-842.480710,919.069866,11028.838392
1160.478467,-3676.279464,-5820.775818,12254.264880
1160.478766,-2221.085509,-10492.714303,12560.621502
1160.479066,459.534933,-13403.102212,10109.768526
1160.479366,1684.961421,-15317.831100,9803.411904
1160.479666,2527.442131,-14705.117856,9803.411904
1160.479965,1225.426488,-10186.357681,10416.125148
1160.480262,2680.620442,-3140.155375,9573.644437
1160.480561,612.713244,2450.852976,8960.931193
1160.480861,1684.961421,7735.504705,8195.039638
1160.481161,612.713244,12254.264880,10109.768526
1160.481460,-0.000000,11182.016703,10492.714303
1160.481760,-2221.085509,8195.039638,12254.264880
1160.482059,-2604.031287,6356.899906,13709.458834
1160.482359,306.356622,2757.209598,12101.086569
1160.482654,306.356622,-1761.550576,10416.125148
1160.482954,1531.783110,-4518.760174,10416.125148
1160.483254,2986.977064,-6280.310751,9573.644437
1160.483554,3446.511997,-7965.272172,9880.001059
1160.483854,2680.620442,-8424.807105,9573.644437
1160.484155,-689.302399,-8271.628794,10722.481770
1160.484455,-3369.922842,-4518.760174,10875.660081
1160.484755,-5131.473418,-382.945777,9956.590215
1160.485066,-5591.008351,3676.279464,9880.001059
1160.485364,-3982.636086,7735.504705,11258.605858
1160.485661,-1302.015643,9420.466126,10645.892614
1160.485959,919.069866,9573.644437,10569.303459
1160.486256,2986.977064,7429.148083,11641.551636
1160.486554,4748.527641,4978.295107,9880.001059
1160.486851,919.069866,1072.248177,10109.768526
1160.487149,306.356622,-3906.046930,10262.946837
1160.487448,-995.659021,-9037.520349,11028.838392
1160.487748,-2067.907198,-11258.605858,9956.590215
1160.488048,1072.248177,-11258.605858,9650.233593
1160.488348,765.891555,-10033.179370,9803.411904
1160.488648,1531.783110,-6433.489062,10109.768526
1160.488948,-689.302399,-1914.728887,10875.660081
1160.489248,1072.248177,4595.349330,9343.876971
1160.489548,1531.783110,7429.148083,9114.109504
1160.489856,-0.000000,6356.899906,9726.822748
1160.490158,-536.124088,5744.186662,10722.481770
1160.490460,-842.480710,3216.744531,11564.962480
1160.490763,-382.945777,-76.589155,12254.264880
1160.491065,-3829.457775,-4365.581863,12790.388968
1160.491368,-3369.922842,-7046.202306,11028.838392
1160.491670,-1148.837332,-8118.450483,10109.768526
1160.491973,-382.945777,-9190.698660,9497.055282
1160.492269,-0.000000,-10492.714303,10416.125148
1160.492567,-689.302399,-8884.342038,12101.086569
1160.492865,3906.046930,-2374.263820,9267.287815
1160.493164,3906.046930,2757.209598,9267.287815
1160.493462,3293.333686,5591.008351,9343.876971
1160.493760,1378.604799,8501.396260,9803.411904
1160.494058,2297.674665,9650.233593,10875.660081
1160.494356,2144.496354,9956.590215,9573.644437
1160.494670,153.178311,6050.543284,11718.140791
1160.494969,-2757.209598,765.891555,13096.745590
1160.495268,-4748.527641,-2527.442131,12560.621502
1160.495566,-2221.085509,-4671.938485,9267.287815
1160.495865,-536.124088,-6433.489062,10569.303459
1160.496164,-842.480710,-10186.357681,9650.233593
1160.496462,-1302.015643,-10339.535992,11028.838392
1160.496761,-0.000000,-5361.240885,12101.086569
1160.497049,4748.527641,-229.767466,8807.752882
1160.497349,153.178311,1838.139732,9880.001059
1160.497649,1838.139732,6050.543284,8195.039638
1160.497949,306.356622,10569.303459,8348.217949
1160.498249,306.356622,9803.411904,10262.946837
1160.498549,-4135.814397,3369.922842,11411.784169
1160.498849,-4595.349330,-689.302399,12943.567279
1160.499149,-3063.566220,-2833.798753,11335.195014
1160.499449,-2604.031287,-7199.380617,10569.303459
1160.499748,-2221.085509,-11258.605858,10492.714303
1160.500047,-689.302399,-13096.745590,11641.551636
1160.500346,4671.938485,-10492.714303,9573.644437
1160.500645,8807.752882,-6893.023995,7429.148083
1160.500945,8348.217949,-4059.225241,9880.001059
1160.501244,7582.326394,1378.604799,9573.644437
1160.501543,5208.062574,6969.613150,8960.931193
1160.501850,1991.318043,9267.287815,9114.109504
1160.502149,-3676.279464,7582.326394,10875.660081
1160.502449,-6203.721595,6663.256528,12484.032346
1160.502748,-6050.543284,6050.543284,11641.551636
1160.503047,-4978.295107,2450.852976,11411.784169
1160.503346,-7658.915550,-3446.511997,14015.815456
1160.503646,-7965.272172,-8118.450483,15088.063633
1160.503945,-1914.728887,-8424.807105,11488.373325
1160.504265,3446.511997,-8577.985416,9650.233593
1160.504566,6127.132440,-9037.520349,9650.233593
1160.504866,6893.023995,-5514.419196,9956.590215
1160.505167,9956.590215,306.356622,8118.450483
1160.505467,9650.233593,5437.830040,6433.489062
1160.505767,765.891555,6510.078217,10262.946837
1160.506068,-5744.186662,6663.256528,11028.838392
1160.506368,-8424.807105,9267.287815,10645.892614
1160.506641,-6050.543284,8654.574571,9650.233593
1160.506941,-6969.613150,2604.031287,11488.373325
1160.507241,-8731.163727,-1914.728887,14934.885322
1160.507541,-2910.387909,-3752.868619,12254.264880
1160.507841,1225.426488,-6433.489062,11335.195014
1160.508141,4212.403552,-9343.876971,9956.590215
1160.508441,5667.597507,-10952.249236,9573.644437
1160.508741,8195.039638,-9190.698660,7965.272172
1160.509059,9114.109504,-6739.845684,6969.613150
1160.509355,6127.132440,-5054.884263,9037.520349
1160.509651,1378.604799,-1148.837332,10799.070925
1160.509947,-3369.922842,3523.101153,9956.590215
1160.510243,-5284.651729,8348.217949,9037.520349
1160.510539,-7658.915550,8195.039638,10109.768526
1160.510835,-9190.698660,5284.651729,11871.319102
1160.511131,-7658.915550,3369.922842,12101.086569
1160.511431,-3369.922842,-382.945777,12637.210657
1160.511731,1378.604799,-5361.240885,13403.102212
1160.512032,2680.620442,-10033.179370,12790.388968
1160.512333,8195.039638,-10033.179370,9267.287815
1160.512634,9956.590215,-10645.892614,7582.326394
1160.512934,9267.287815,-10339.535992,7505.737239
1160.513235,4901.705952,-7505.737239,9267.287815
1160.513536,612.713244,-3446.511997,10186.357681
1160.513843,-842.480710,2604.031287,9956.590215
1160.514144,-5131.473418,6356.899906,10645.892614
1160.514445,-5744.186662,10109.768526,12101.086569
1160.514746,-5131.473418,11641.551636,11871.319102
1160.515047,-1914.728887,12866.978124,10416.125148
1160.515348,-229.767466,10722.481770,10569.303459
1160.515648,-2067.907198,5131.473418,13249.923901
1160.515949,-536.124088,-0.000000,12943.567279
1160.516229,-0.000000,-4901.705952,11182.016703
1160.516535,-0.000000,-10645.892614,10262.946837
1160.516840,-1455.193954,-15164.652789,12713.799813
1160.517145,306.356622,-15471.009411,10722.481770
1160.517450,3906.046930,-10339.535992,8654.574571
1160.517755,4365.581863,-4518.760174,8501.396260
1160.518060,3446.511997,2450.852976,8960.931193
1160.518365,-229.767466,9267.287815,10186.357681
1160.518639,153.178311,13939.226301,7888.683016
1160.518938,-536.124088,16007.133499,9803.411904
1160.519237,-1914.728887,12254.264880,11028.838392
1160.519536,-2450.852976,6050.543284,12101.086569
1160.519835,1378.604799,2757.209598,11488.373325
1160.520135,1225.426488,-3446.511997,10262.946837
1160.520434,-3982.636086,-11871.319102,13556.280523
1160.520733,-7658.915550,-16543.257588,13020.156435
1160.521050,-5897.364973,-17309.149143,12024.497413
1160.521348,-2604.031287,-16083.722655,9880.001059
1160.521646,-2067.907198,-13709.458834,10109.768526
1160.521944,1531.783110,-7046.202306,10262.946837
1160.522241,8960.931193,1838.139732,7735.504705
1160.522539,10262.946837,9650.233593,7275.969772
1160.522837,8960.931193,13786.047990,7429.148083
1160.523135,2680.620442,14245.582923,9956.590215
1160.523435,-229.767466,13479.691368,9573.644437
1160.523734,-4442.171019,8041.861327,11182.016703
1160.524033,-7505.737239,-76.589155,12943.567279
1160.524332,-8424.807105,-6280.310751,13326.513057
1160.524631,-5591.008351,-8884.342038,13096.745590
1160.524930,-1302.015643,-12024.497413,11335.195014
1160.525230,2527.442131,-13556.280523,10339.535992
1160.525529,5514.419196,-11564.962480,9497.055282
1160.525843,6893.023995,-6433.489062,7888.683016
1160.526141,4901.705952,-2833.798753,9420.466126
1160.526440,1684.961421,2144.496354,10416.125148
1160.526739,-1455.193954,7735.504705,10262.946837
1160.527037,-2067.907198,11641.551636,9803.411904
1160.527336,-2221.085509,13173.334746,9497.055282
1160.527635,-1914.728887,12101.086569,10033.179370
1160.527934,-2604.031287,8348.217949,11182.016703
1160.528241,-5284.651729,2757.209598,12407.443191
1160.528538,-6969.613150,-3293.333686,14168.993767
1160.528835,-3982.636086,-6739.845684,12637.210657
1160.529132,-3216.744531,-10799.070925,10569.303459
1160.529430,765.891555,-11871.319102,10262.946837
1160.529727,4518.760174,-13403.102212,9650.233593
1160.530024,7735.504705,-9726.822748,8807.752882
1160.530321,8348.217949,-6280.310751,9114.109504
1160.530618,5973.954129,-995.659021,9956.590215
1160.530919,2986.977064,4595.349330,10416.125148
1160.531220,765.891555,9267.287815,8348.217949
1160.531521,-3829.457775,12254.264880,10569.303459
1160.531822,-5897.364973,10875.660081,11488.373325
1160.532123,-6356.899906,6663.256528,11564.962480
1160.532424,-4135.814397,4748.527641,11947.908258
1160.532725,-3829.457775,919.069866,11794.729947
1160.533020,-4595.349330,-5361.240885,13632.869679
1160.533321,-1761.550576,-7965.272172,10799.070925
1160.533622,4059.225241,-9650.233593,9956.590215
1160.533923,5973.954129,-11718.140791,9114.109504
1160.534224,4901.705952,-12484.032346,9037.520349
1160.534525,5667.597507,-10033.179370,10033.179370
1160.534825,8807.752882,-3599.690308,7965.272172
1160.535126,5514.419196,2144.496354,8807.752882
1160.535414,306.356622,6663.256528,9420.466126
1160.535715,-3829.457775,11182.016703,10339.535992
1160.536016,-2757.209598,16313.490121,10569.303459
1160.536317,-6663.256528,14092.404612,10875.660081
1160.536618,-8577.985416,9650.233593,12790.388968
1160.536918,-8884.342038,4978.295107,15088.063633
1160.537219,-6203.721595,-995.659021,12407.443191
1160.537520,-3369.922842,-7812.093861,10875.660081
1160.537834,-229.767466,-12637.210657,11718.140791
1160.538133,4901.705952,-15624.187722,10569.303459
1160.538431,6127.132440,-16543.257588,9573.644437
1160.538730,7888.683016,-12177.675724,8807.752882
1160.539029,7275.969772,-4901.705952,8884.342038
1160.539327,4365.581863,2450.852976,9420.466126
1160.539626,2144.496354,9420.466126,8654.574571
1160.539925,-76.589155,15088.063633,7735.504705
1160.540266,-1302.015643,17385.738298,8807.752882
1160.540561,-6356.899906,12560.621502,10569.303459
1160.540855,-7352.558928,6969.613150,11794.729947
1160.541150,-7199.380617,919.069866,14015.815456
1160.541445,-7505.737239,-7505.737239,13020.156435
1160.541740,-5284.651729,-13709.458834,12177.675724
1160.542035,-1302.015643,-17309.149143,12407.443191
1160.542330,3446.511997,-17615.505765,9650.233593
1160.542626,6280.310751,-17921.862387,10109.768526
1160.542926,8807.752882,-12484.032346,8960.931193
1160.543225,12177.675724,-3752.868619,6280.310751
1160.543525,10569.303459,5284.651729,5744.186662
1160.543824,3140.155375,10722.481770,6127.132440
1160.544124,-3216.744531,14628.528700,11182.016703
1160.544424,-8731.163727,15853.955188,11641.551636
1160.544723,-11718.140791,13479.691368,11335.195014
1160.545018,-12713.799813,7275.969772,13403.102212
1160.545317,-11105.427547,1684.961421,15853.955188
1160.545617,-4978.295107,-3752.868619,14628.528700
1160.545916,1225.426488,-5973.954129,9956.590215
1160.546215,5820.775818,-8577.985416,11564.962480
1160.546514,9420.466126,-11871.319102,10109.768526
1160.546814,12330.854035,-9880.001059,8348.217949
1160.547113,12637.210657,-7046.202306,5667.597507
1160.547425,8041.861327,-2986.977064,7658.915550
1160.547725,-0.000000,612.713244,10569.303459
1160.548025,-6050.543284,8041.861327,10569.303459
1160.548325,-8271.628794,12866.978124,10416.125148
1160.548624,-10492.714303,14781.707011,12101.086569
1160.548924,-12407.443191,11947.908258,13556.280523
1160.549224,-9497.055282,7888.683016,13096.745590
1160.549524,-5131.473418,4748.527641,13709.458834
1160.549824,612.713244,459.534933,12637.210657
1160.550124,3599.690308,-5054.884263,11411.784169
1160.550424,5820.775818,-11105.427547,10416.125148
1160.550724,11182.016703,-10952.249236,6816.434839
1160.551024,7046.202306,-14168.993767,6969.613150
1160.551324,1378.604799,-16390.079277,9420.466126
1160.551624,-995.659021,-11871.319102,10875.660081
1160.551924,306.356622,-4365.581863,9650.233593
1160.552231,-1148.837332,1991.318043,8118.450483
1160.552527,-2910.387909,6356.899906,10569.303459
1160.552823,-3063.566220,10109.768526,11488.373325
1160.553119,-382.945777,12560.621502,9956.590215
1160.553415,306.356622,10569.303459,8884.342038
1160.553711,-4135.814397,5131.473418,12713.799813
1160.554007,-2450.852976,153.178311,14322.172078
1160.554303,-76.589155,-3752.868619,9803.411904
1160.554623,1991.318043,-7199.380617,9267.287815
1160.554920,306.356622,-14322.172078,9880.001059
1160.555217,-2910.387909,-17002.792521,11488.373325
1160.555514,1378.604799,-14551.939545,10262.946837
1160.555811,3140.155375,-10186.357681,9573.644437
1160.556108,1225.426488,-6280.310751,11182.016703
1160.556405,2527.442131,2757.209598,9573.644437
1160.556702,4518.760174,10722.481770,6969.613150
1160.557021,4901.705952,16466.668432,8195.039638
1160.557319,612.713244,16313.490121,9726.822748
1160.557618,-1455.193954,14092.404612,11335.195014
1160.557916,-4595.349330,10416.125148,12790.388968
1160.558214,-5897.364973,3982.636086,13096.745590
1160.558512,-9726.822748,-2986.977064,12407.443191
1160.558810,-8577.985416,-9726.822748,12866.978124
1160.559109,-4825.116796,-12943.567279,12407.443191
1160.559422,-1302.015643,-14168.993767,11488.373325
1160.559720,2833.798753,-14015.815456,10416.125148
1160.560018,4212.403552,-10799.070925,11182.016703
1160.560317,7122.791461,-3752.868619,9650.233593
1160.560615,10722.481770,3982.636086,6280.310751
1160.560914,11488.373325,10722.481770,4901.705952
1160.561212,7122.791461,14398.761234,6816.434839
1160.561511,-0.000000,12560.621502,10033.179370
1160.561811,-2604.031287,9573.644437,10186.357681
1160.562111,-8271.628794,4135.814397,13249.923901
1160.562411,-13326.513057,-3293.333686,16007.133499
1160.562711,-17155.970832,-8424.807105,15700.776877
1160.563011,-10799.070925,-9880.001059,12407.443191
1160.563310,-3829.457775,-11871.319102,10569.303459
1160.563610,-1455.193954,-15011.474478,11028.838392
1160.563910,5973.954129,-10952.249236,9573.644437
1160.564218,15471.009411,-5820.775818,6663.256528
1160.564514,18304.808164,-1148.837332,5820.775818
1160.564811,12790.388968,919.069866,8424.807105
1160.565108,6739.845684,5591.008351,8501.396260
1160.565405,4748.527641,11641.551636,6969.613150
1160.565702,-2374.263820,11182.016703,8654.574571
1160.565999,-11564.962480,6050.543284,12177.675724
1160.566296,-17155.970832,1838.139732,17002.792521
1160.566610,-13939.226301,306.356622,15853.955188
1160.566913,-10952.249236,-2986.977064,13020.156435
1160.567217,-5437.830040,-6433.489062,12713.799813
1160.567521,919.069866,-8884.342038,11488.373325
1160.567824,8960.931193,-7812.093861,8654.574571
1160.568128,14398.761234,-7199.380617,5973.954129
1160.568432,10875.660081,-6739.845684,8654.574571
1160.568735,10569.303459,-4212.403552,8960.931193
1160.569054,7046.202306,612.713244,7275.969772
1160.569347,3599.690308,5437.830040,7888.683016
1160.569640,-4135.814397,6203.721595,10569.303459
1160.569932,-9726.822748,6969.613150,12713.799813
1160.570225,-9573.644437,8654.574571,11028.838392
1160.570518,-10952.249236,5897.364973,13249.923901
1160.570811,-12254.264880,306.356622,15241.241944
1160.571103,-10033.179370,-1608.372265,13862.637145
1160.571421,459.534933,-2680.620442,9803.411904
1160.571719,5667.597507,-4901.705952,8195.039638
1160.572018,6893.023995,-10492.714303,10799.070925
1160.572316,10875.660081,-11258.605858,10186.357681
1160.572615,13403.102212,-7046.202306,7429.148083
1160.572914,9650.233593,-3752.868619,6663.256528
1160.573212,1072.248177,-2527.442131,8577.985416
1160.573511,-4595.349330,1225.426488,10569.303459
1160.573810,-6510.078217,7122.791461,10109.768526
1160.574108,-7812.093861,8807.752882,9573.644437
1160.574405,-8271.628794,7429.148083,10109.768526
1160.574703,-5437.830040,5437.830040,12407.443191
1160.575000,-3829.457775,2450.852976,13249.923901
1160.575298,-2374.263820,-1455.193954,12484.032346
1160.575595,1225.426488,-5667.597507,10416.125148
1160.575892,4212.403552,-9880.001059,10416.125148
1160.576223,6893.023995,-12790.388968,9650.233593
1160.576520,6433.489062,-10952.249236,9956.590215
1160.576817,4671.938485,-10033.179370,9114.109504
1160.577114,2986.977064,-4518.760174,10569.303459
1160.577411,306.356622,153.178311,9573.644437
1160.577707,-382.945777,8501.396260,7812.093861
1160.578004,-3982.636086,11641.551636,10722.481770
1160.578301,-5744.186662,12101.086569,12254.264880
1160.578609,-4135.814397,12560.621502,11182.016703
1160.578909,-1914.728887,10875.660081,12407.443191
1160.579209,919.069866,7429.148083,11947.908258
1160.579509,-2067.907198,-0.000000,12560.621502
1160.579809,-1148.837332,-6433.489062,11794.729947
1160.580108,2374.263820,-9190.698660,9726.822748
1160.580408,1991.318043,-12177.675724,10416.125148
1160.580708,153.178311,-14475.350389,10722.481770
1160.580991,-2221.085509,-12943.567279,11335.195014
1160.581294,765.891555,-4671.938485,10186.357681
1160.581597,1991.318043,2757.209598,8041.861327
1160.581900,-76.589155,6816.434839,8118.450483
1160.582203,-4288.992708,9420.466126,10722.481770
1160.582506,-995.659021,12101.086569,9803.411904
1160.582809,-229.767466,11488.373325,9573.644437
1160.583112,-1761.550576,4442.171019,12101.086569
1160.583393,-1302.015643,-536.124088,13709.458834
1160.583695,-0.000000,-5208.062574,10799.070925
1160.583997,4365.581863,-9190.698660,8041.861327
1160.584299,-0.000000,-15930.544344,11182.016703
1160.584601,-1455.193954,-17309.149143,11947.908258
1160.584903,3446.511997,-13249.923901,8348.217949
1160.585205,2833.798753,-9037.520349,8960.931193
1160.585507,2297.674665,-3446.511997,10262.946837
1160.585796,-1455.193954,2450.852976,10799.070925
1160.586095,1225.426488,8960.931193,8501.396260
1160.586395,2986.977064,13020.156435,8041.861327
1160.586694,-1148.837332,10875.660081,10875.660081
1160.586993,-3829.457775,6816.434839,11335.195014
1160.587292,-3982.636086,3063.566220,12407.443191
1160.587591,-4288.992708,-536.124088,14628.528700
1160.587890,-4825.116796,-4825.116796,13096.745590
1160.588204,-0.000000,-5820.775818,11028.838392
1160.588502,3906.046930,-6280.310751,9037.520349
1160.588800,6433.489062,-8424.807105,9114.109504
1160.589098,5973.954129,-7812.093861,8501.396260
1160.589395,4748.527641,-5208.062574,9420.466126
1160.589693,2833.798753,-1761.550576,10875.660081
1160.589991,-1914.728887,612.713244,11335.195014
1160.590289,-2374.263820,5897.364973,9650.233593
1160.590596,-1148.837332,8195.039638,9267.287815
1160.590895,-1914.728887,8501.396260,11488.373325
1160.591194,-1914.728887,6203.721595,11028.838392
1160.591494,-2221.085509,4825.116796,11335.195014
1160.591793,-4288.992708,1378.604799,12943.567279
1160.592092,-4825.116796,-3906.046930,13249.923901
1160.592391,-3523.101153,-4518.760174,10722.481770
1160.592691,459.534933,-4518.760174,9573.644437
1160.592987,1684.961421,-7658.915550,10109.768526
1160.593288,2680.620442,-8118.450483,9420.466126
1160.593588,4748.527641,-6739.845684,9803.411904
1160.593888,5514.419196,-3293.333686,9956.590215
1160.594189,1991.318043,-1455.193954,10416.125148
1160.594489,306.356622,2604.031287,9267.287815
1160.594789,306.356622,4288.992708,10109.768526
1160.595090,-0.000000,5131.473418,9573.644437
1160.595385,-76.589155,4595.349330,9343.876971
1160.595685,-2374.263820,1378.604799,12330.854035
1160.595985,-2450.852976,-536.124088,12407.443191
1160.596285,-1608.372265,-995.659021,11335.195014
1160.596585,-1455.193954,-3293.333686,9650.233593
1160.596885,-2604.031287,-6893.023995,11105.427547
1160.597185,-382.945777,-8424.807105,11488.373325
1160.597485,1225.426488,-8731.163727,9726.822748
1160.597797,2833.798753,-6739.845684,10262.946837
1160.598095,3446.511997,-4518.760174,11335.195014
1160.598392,3140.155375,-536.124088,11641.551636
1160.598690,5514.419196,6356.899906,8654.574571
1160.598987,1991.318043,9267.287815,9267.287815
1160.599284,-2067.907198,8501.396260,10875.660081
1160.599582,-3063.566220,7582.326394,9803.411904
1160.599879,-4748.527641,5437.830040,11794.729947
1160.600188,-6663.256528,612.713244,13249.923901
1160.600488,-5591.008351,-4059.225241,13173.334746
1160.600787,-1761.550576,-4901.705952,11871.319102
1160.601087,5208.062574,-7352.558928,9114.109504
1160.601386,5514.419196,-10186.357681,9114.109504
1160.601685,4518.760174,-10186.357681,9573.644437
1160.601985,3752.868619,-7812.093861,9803.411904
1160.602284,2374.263820,-3599.690308,10262.946837
1160.602591,-1302.015643,612.713244,10416.125148
1160.602889,-2450.852976,4978.295107,10109.768526
1160.603187,-3829.457775,7122.791461,9880.001059
1160.603485,-2450.852976,8654.574571,10262.946837
1160.603784,-1302.015643,6663.256528,9267.287815
1160.604082,-2067.907198,3829.457775,11182.016703
1160.604380,-3676.279464,-995.659021,13709.458834
1160.604678,-3676.279464,-5820.775818,13249.923901
1160.604994,-1761.550576,-7658.915550,11182.016703
1160.605293,2297.674665,-9497.055282,9573.644437
1160.605591,4671.938485,-11564.962480,9267.287815
1160.605890,6739.845684,-10186.357681,8807.752882
1160.606188,8348.217949,-5667.597507,8501.396260
1160.606486,5667.597507,-1302.015643,9956.590215
1160.606785,-382.945777,2910.387909,10492.714303
1160.607083,-2067.907198,8807.752882,9267.287815
1160.607398,-5284.651729,11335.195014,9573.644437
1160.607696,-7199.380617,9803.411904,10569.303459
1160.607995,-8577.985416,6356.899906,12790.388968
1160.608294,-3369.922842,4442.171019,11488.373325
1160.608592,-1148.837332,459.534933,12407.443191
1160.608891,1531.783110,-5361.240885,12407.443191
1160.609190,4901.705952,-7965.272172,10416.125148
1160.609488,6893.023995,-8424.807105,9803.411904
1160.609777,6893.023995,-8118.450483,8731.163727
1160.610077,2986.977064,-6739.845684,10109.768526
1160.610377,459.534933,-4365.581863,11488.373325
1160.610677,459.534933,765.891555,10262.946837
1160.610977,-1608.372265,6050.543284,9037.520349
1160.611277,-1608.372265,9267.287815,8501.396260
1160.611577,-4595.349330,8654.574571,11182.016703
1160.611877,-4748.527641,8807.752882,12560.621502
1160.612176,-3369.922842,8041.861327,11258.605858
1160.612476,-4442.171019,3216.744531,11105.427547
1160.612775,-4978.295107,-2833.798753,13403.102212
1160.613074,-3676.279464,-6893.023995,13862.637145
1160.613373,765.891555,-8577.985416,10033.179370
1160.613672,4059.225241,-10799.070925,8807.752882
1160.613972,4671.938485,-13403.102212,10033.179370
1160.614271,5667.597507,-12484.032346,9573.644437
1160.614578,5973.954129,-6280.310751,9573.644437
1160.614877,4671.938485,-229.767466,7582.326394
1160.615177,-995.659021,3216.744531,9420.466126
1160.615476,-4442.171019,6663.256528,9650.233593
1160.615775,-3829.457775,8960.931193,9343.876971
1160.616074,-3216.744531,9420.466126,8807.752882
1160.616373,-1761.550576,4748.527641,9420.466126
1160.616673,-2604.031287,-1761.550576,12254.264880
1160.617023,-536.124088,-4518.760174,14475.350389
1160.617316,153.178311,-7199.380617,12407.443191
1160.617610,1072.248177,-7965.272172,10569.303459
1160.617904,1225.426488,-9726.822748,10109.768526
1160.618197,459.534933,-8884.342038,9650.233593
1160.618491,765.891555,-6127.132440,8960.931193
1160.618785,765.891555,-1761.550576,8807.752882
1160.619078,-382.945777,919.069866,10262.946837
1160.619397,-2221.085509,3982.636086,12101.086569
1160.619695,-1608.372265,9573.644437,9956.590215
1160.619994,1072.248177,13939.226301,8577.985416
1160.620292,2297.674665,13939.226301,8960.931193
1160.620590,-76.589155,10262.946837,10875.660081
1160.620888,-842.480710,5744.186662,12407.443191
1160.621187,-1761.550576,1225.426488,12713.799813
1160.621485,-536.124088,-3446.511997,12407.443191
1160.621798,765.891555,-9650.233593,10569.303459
1160.622094,1991.318043,-12024.497413,9803.411904
1160.622390,3446.511997,-12637.210657,9114.109504
1160.622686,-229.767466,-12637.210657,11182.016703
1160.622982,153.178311,-8271.628794,11641.551636
1160.623278,-995.659021,-229.767466,10262.946837
1160.623574,-536.124088,7888.683016,9573.644437
1160.623870,-3216.744531,12407.443191,8501.396260
1160.624169,-3216.744531,15547.598566,10262.946837
1160.624470,-1608.372265,14398.761234,9956.590215
1160.624771,-1914.728887,10875.660081,9956.590215
1160.625072,-1608.372265,3063.566220,12637.210657
1160.625372,-2374.263820,-4671.938485,13096.745590
1160.625673,-0.000000,-8731.163727,11641.551636
1160.625974,-76.589155,-12790.388968,9650.233593
1160.626274,-1302.015643,-16696.435899,10722.481770
1160.626581,765.891555,-17462.327454,10952.249236
1160.626878,2680.620442,-13556.280523,9190.698660
1160.627175,5514.419196,-7199.380617,8041.861327
1160.627472,4059.225241,-1608.372265,9267.287815
1160.627769,2986.977064,5591.008351,9956.590215
1160.628066,2527.442131,10875.660081,7658.915550
1160.628363,-229.767466,14934.885322,8960.931193
1160.628660,-3676.279464,12101.086569,10033.179370
1160.629020,-7505.737239,6816.434839,12101.086569
1160.629316,-6356.899906,3216.744531,13096.745590
1160.629612,-2757.209598,306.356622,12713.799813
1160.629908,-2374.263820,-5667.597507,12101.086569
1160.630205,-536.124088,-10492.714303,12254.264880
1160.630501,4365.581863,-10339.535992,10416.125148
1160.630797,7046.202306,-10339.535992,8501.396260
1160.631093,3140.155375,-9650.233593,9573.644437
1160.631366,2297.674665,-7352.558928,9803.411904
1160.631669,3140.155375,-689.302399,9420.466126
1160.631971,1072.248177,5131.473418,9420.466126
1160.632274,-76.589155,9956.590215,9420.466126
1160.632577,-2221.085509,11794.729947,11028.838392
1160.632879,459.534933,13939.226301,9037.520349
1160.633182,-229.767466,12101.086569,8960.931193
1160.633484,-5897.364973,6356.899906,12101.086569
1160.633802,-10033.179370,-689.302399,14628.528700
1160.634096,-10952.249236,-7658.915550,14934.885322
1160.634391,-7199.380617,-10033.179370,12254.264880
1160.634685,-995.659021,-12177.675724,10875.660081
1160.634979,2833.798753,-13096.745590,9190.698660
1160.635274,7582.326394,-11411.784169,9114.109504
1160.635568,11335.195014,-9497.055282,8041.861327
1160.635863,11488.373325,-3293.333686,8348.217949
1160.636163,7582.326394,2450.852976,8654.574571
1160.636463,2986.977064,6356.899906,7275.969772
1160.636763,-2221.085509,9803.411904,9267.287815
1160.637063,-5131.473418,10109.768526,9650.233593
1160.637363,-10339.535992,7582.326394,11488.373325
1160.637663,-9880.001059,3369.922842,13632.869679
1160.637963,-7199.380617,919.069866,14168.993767
1160.638263,-5284.651729,-2986.977064,13020.156435
1160.638553,-2757.209598,-6893.023995,11335.195014
1160.638856,1225.426488,-9037.520349,10262.946837
1160.639159,4901.705952,-9650.233593,9420.466126
1160.639461,5361.240885,-11718.140791,8807.752882
1160.639764,7275.969772,-10186.357681,9497.055282
1160.640067,9497.055282,-6433.489062,10186.357681
1160.640369,12484.032346,1684.961421,6816.434839
1160.640672,8348.217949,8195.039638,6510.078217
1160.641014,153.178311,11488.373325,10109.768526
1160.641308,-4595.349330,14398.761234,11182.016703
1160.641602,-10799.070925,13632.869679,11794.729947
1160.641896,-13326.513057,10722.481770,13249.923901
1160.642190,-17462.327454,3829.457775,15930.544344
1160.642484,-13479.691368,-2374.263820,14398.761234
1160.642778,-4442.171019,-6280.310751,11182.016703
1160.643072,2986.977064,-10339.535992,10109.768526
1160.643356,9956.590215,-14168.993767,10262.946837
1160.643658,14858.296167,-13403.102212,8195.039638
1160.643961,17692.094920,-8731.163727,6433.489062
1160.644264,11488.373325,-5361.240885,8501.396260
1160.644567,3140.155375,-76.589155,9420.466126
1160.644870,-2604.031287,6510.078217,8731.163727
1160.645173,-6663.256528,10262.946837,9267.287815
1160.645476,-11411.784169,11028.838392,10952.249236
1160.645757,-14092.404612,8501.396260,12330.854035
1160.646057,-11871.319102,5284.651729,13326.513057
1160.646357,-9573.644437,-689.302399,15471.009411
1160.646656,-4442.171019,-4825.116796,13326.513057
1160.646956,1225.426488,-8118.450483,10875.660081
1160.647255,8501.396260,-10799.070925,8960.931193
1160.647555,13096.745590,-12790.388968,6510.078217
1160.647854,12943.567279,-13556.280523,6969.613150
1160.648166,11641.551636,-11871.319102,6510.078217
1160.648463,7735.504705,-8884.342038,8501.396260
1160.648759,1684.961421,-4671.938485,10569.303459
1160.649056,-5744.186662,2604.031287,11028.838392
1160.649353,-7812.093861,9650.233593,9956.590215
1160.649649,-9880.001059,13939.226301,11182.016703
1160.649946,-8577.985416,14092.404612,11105.427547
1160.650243,-7658.915550,11335.195014,12790.388968
1160.650552,-1761.550576,8501.396260,12713.799813
1160.650850,2527.442131,1991.318043,11718.140791
1160.651149,3446.511997,-4825.116796,11335.195014
1160.651447,6127.132440,-9880.001059,10722.481770
1160.651746,6433.489062,-11718.140791,10262.946837
1160.652045,4212.403552,-12637.210657,9956.590215
1160.652343,1378.604799,-11258.605858,10416.125148
1160.652642,765.891555,-4059.225241,9803.411904
1160.652948,306.356622,2144.496354,9726.822748
1160.653247,-3523.101153,5131.473418,9267.287815
1160.653547,-3063.566220,10416.125148,9267.287815
1160.653847,-76.589155,14398.761234,9803.411904
1160.654146,-382.945777,12560.621502,10722.481770
1160.654446,-2067.907198,9420.466126,12943.567279
1160.654746,-2604.031287,4442.171019,13249.923901
1160.655045,-1608.372265,-842.480710,11718.140791
1160.655342,-4595.349330,-5667.597507,11947.908258
1160.655641,-4825.116796,-11411.784169,12713.799813
1160.655941,-3063.566220,-12177.675724,11335.195014
1160.656240,765.891555,-12177.675724,8654.574571
1160.656540,1991.318043,-12484.032346,9573.644437
1160.656839,2833.798753,-8271.628794,10722.481770
1160.657139,6280.310751,-2221.085509,8195.039638
1160.657439,7429.148083,4595.349330,5973.954129
1160.657766,7429.148083,8195.039638,6510.078217
1160.658065,4671.938485,9803.411904,8807.752882
1160.658364,2297.674665,10416.125148,8654.574571
1160.658663,-842.480710,8501.396260,10109.768526
1160.658961,-8577.985416,612.713244,14322.172078
1160.659260,-13326.513057,-4671.938485,15394.420255
1160.659559,-14092.404612,-7658.915550,14781.707011
1160.659858,-10492.714303,-10645.892614,12560.621502
1160.660146,-6050.543284,-13096.745590,10416.125148
1160.660447,-1302.015643,-14322.172078,10262.946837
1160.660747,6586.667373,-10799.070925,9267.287815
1160.661048,11488.373325,-6586.667373,9267.287815
1160.661349,16390.079277,-76.589155,6280.310751
1160.661650,16390.079277,6510.078217,5820.775818
1160.661951,12330.854035,12254.264880,8195.039638
1160.662251,6893.023995,15700.776877,8348.217949
1160.662561,-0.000000,14628.528700,9343.876971
1160.662857,-8577.985416,11335.195014,11182.016703
1160.663153,-15700.776877,3216.744531,14781.707011
1160.663449,-20449.304518,-4365.581863,17615.505765
1160.663745,-19683.412963,-8884.342038,16390.079277
1160.664041,-10645.892614,-10645.892614,13709.458834
1160.664337,-1914.728887,-11105.427547,10875.660081
1160.664633,5514.419196,-11105.427547,8807.752882
1160.664940,12330.854035,-8577.985416,8041.861327
1160.665242,17079.381676,-3293.333686,6969.613150
1160.665544,17998.451542,1684.961421,5667.597507
1160.665847,11182.016703,3829.457775,7888.683016
1160.666149,5514.419196,7735.504705,8501.396260
1160.666451,3906.046930,11641.551636,8501.396260
1160.666754,-2757.209598,9650.233593,9114.109504
1160.667056,-12407.443191,4595.349330,12254.264880
1160.667372,-17462.327454,-536.124088,17462.327454
1160.667671,-15853.955188,-2374.263820,14934.885322
1160.667969,-14092.404612,-6127.132440,13249.923901
1160.668267,-7658.915550,-7812.093861,12943.567279
1160.668566,-1761.550576,-10339.535992,11488.373325
1160.668864,6127.132440,-9880.001059,9650.233593
1160.669162,14858.296167,-8577.985416,7582.326394
1160.669461,16926.203365,-5208.062574,7582.326394
1160.669740,17232.559987,-2986.977064,6433.489062
1160.670040,10875.660081,459.534933,6356.899906
1160.670340,3140.155375,4288.992708,9420.466126
1160.670639,-4135.814397,6969.613150,10875.660081
1160.670939,-10645.892614,8501.396260,11182.016703
1160.671238,-12713.799813,9267.287815,12943.567279
1160.671538,-13020.156435,6356.899906,13786.047990
1160.671838,-10033.179370,4135.814397,13862.637145
1160.672151,-6510.078217,-0.000000,12866.978124
1160.672449,612.713244,-3446.511997,10109.768526
1160.672747,5208.062574,-9037.520349,11718.140791
1160.673046,8348.217949,-11105.427547,10262.946837
1160.673344,12943.567279,-10033.179370,8424.807105
1160.673643,8041.861327,-9497.055282,9573.644437
1160.673941,7735.504705,-4825.116796,8424.807105
1160.674240,1378.604799,153.178311,9650.233593
1160.674539,-1148.837332,6510.078217,9267.287815
1160.674839,-3829.457775,9267.287815,8807.752882
1160.675138,-6816.434839,10262.946837,10262.946837
1160.675437,-7505.737239,9803.411904,10186.357681
1160.675736,-9037.520349,6050.543284,14628.528700
1160.676036,-7658.915550,2757.209598,13403.102212
1160.676335,-4595.349330,-689.302399,12177.675724
1160.676634,-0.000000,-4671.938485,11028.838392
1160.676941,4671.938485,-9037.520349,9420.466126
1160.677244,7582.326394,-11258.605858,9956.590215
1160.677546,8195.039638,-11871.319102,7735.504705
1160.677849,4059.225241,-11871.319102,9573.644437
1160.678151,612.713244,-10339.535992,11411.784169
1160.678454,-2604.031287,-3446.511997,10262.946837
1160.678756,-842.480710,3829.457775,9267.287815
1160.679059,-1302.015643,9114.109504,7582.326394
1160.679298,-689.302399,10722.481770,9650.233593
1160.679607,-1302.015643,10416.125148,10416.125148
1160.679916,-689.302399,9420.466126,10262.946837
1160.680224,-1148.837332,4595.349330,12407.443191
1160.680533,-3982.636086,-2374.263820,13096.745590
1160.680841,-1608.372265,-7199.380617,12101.086569
1160.681150,612.713244,-10952.249236,11182.016703
1160.681459,612.713244,-13709.458834,11182.016703
1160.681726,-536.124088,-13709.458834,10952.249236
1160.682027,1531.783110,-9880.001059,10262.946837
1160.682329,5208.062574,-1302.015643,8041.861327
1160.682631,2833.798753,4135.814397,9267.287815
1160.682933,459.534933,8807.752882,9573.644437
1160.683234,2297.674665,14398.761234,8807.752882
1160.683536,4365.581863,15700.776877,7888.683016
1160.683838,1531.783110,11335.195014,9803.411904
1160.684155,-3829.457775,4442.171019,14015.815456
1160.684451,-3063.566220,1838.139732,13096.745590
1160.684747,-4135.814397,-2986.977064,10569.303459
1160.685043,-6510.078217,-9880.001059,13173.334746
1160.685339,-8577.985416,-15624.187722,14781.707011
1160.685635,-3982.636086,-12790.388968,12101.086569
1160.685931,2144.496354,-9497.055282,8501.396260
1160.686227,4059.225241,-5820.775818,8807.752882
1160.686527,5514.419196,-0.000000,10109.768526
1160.686828,7122.791461,6203.721595,8424.807105
1160.687129,8348.217949,11488.373325,5667.597507
1160.687429,3599.690308,10416.125148,8960.931193
1160.687730,-1608.372265,6816.434839,10952.249236
1160.688031,-4748.527641,5744.186662,11794.729947
1160.688332,-5284.651729,2144.496354,12713.799813
1160.688632,-6510.078217,-2067.907198,12790.388968
1160.688939,-9343.876971,-8271.628794,13709.458834
1160.689236,-4825.116796,-10033.179370,12254.264880
1160.689533,-382.945777,-11105.427547,9956.590215
1160.689830,1072.248177,-12484.032346,9650.233593
1160.690127,4671.938485,-11411.784169,9420.466126
1160.690424,4748.527641,-8424.807105,10262.946837
1160.690721,9497.055282,-2374.263820,8195.039638
1160.691018,6893.023995,1838.139732,7658.915550
1160.691326,5514.419196,7735.504705,8501.396260
1160.691624,3293.333686,9420.466126,9267.287815
1160.691923,1225.426488,9267.287815,9956.590215
1160.692221,-995.659021,8807.752882,9420.466126
1160.692520,-5437.830040,3676.279464,11794.729947
1160.692818,-8884.342038,-1608.372265,14628.528700
1160.693116,-9343.876971,-5820.775818,14705.117856
1160.693415,-5897.364973,-6280.310751,12790.388968
1160.693731,-229.767466,-6739.845684,9880.001059
1160.694034,1225.426488,-8271.628794,9956.590215
1160.694337,4059.225241,-6586.667373,9573.644437
1160.694639,5054.884263,-2221.085509,8731.163727
1160.694942,5054.884263,765.891555,8424.807105
1160.695244,612.713244,1991.318043,11105.427547
1160.695547,-1302.015643,4135.814397,10569.303459
1160.695849,-0.000000,6510.078217,8960.931193
1160.696167,1225.426488,8041.861327,9343.876971
1160.696461,-1302.015643,4978.295107,10262.946837
1160.696755,-2910.387909,2757.209598,12101.086569
1160.697050,-995.659021,1838.139732,12254.264880
1160.697344,-2374.263820,-1148.837332,11488.373325
1160.697639,-1455.193954,-5054.884263,11718.140791
1160.697933,-1302.015643,-6586.667373,11028.838392
1160.698228,2297.674665,-5667.597507,8960.931193
1160.698528,2297.674665,-5973.954129,10109.768526
1160.698827,1531.783110,-6433.489062,11028.838392
1160.699126,2833.798753,-3446.511997,10952.249236
1160.699425,1991.318043,1838.139732,9420.466126
1160.699724,-382.945777,4135.814397,7888.683016
1160.700023,-4442.171019,2757.209598,10875.660081
1160.700323,-3676.279464,2757.209598,11794.729947
1160.700622,-2067.907198,2910.387909,11335.195014
1160.700936,306.356622,2604.031287,11028.838392
1160.701234,-689.302399,-382.945777,11871.319102
1160.701533,-382.945777,-2833.798753,12254.264880
1160.701832,2527.442131,-2833.798753,9650.233593
1160.702130,3599.690308,-3752.868619,9114.109504
1160.702429,2374.263820,-7199.380617,9650.233593
1160.702728,919.069866,-7658.915550,10722.481770
1160.703027,2297.674665,-4212.403552,10569.303459
1160.703334,4518.760174,-1148.837332,9650.233593
1160.703631,-689.302399,1991.318043,11182.016703
1160.703928,919.069866,5437.830040,9267.287815
1160.704225,-1302.015643,7735.504705,9267.287815
1160.704523,-1914.728887,8195.039638,9956.590215
1160.704820,-5131.473418,4288.992708,12407.443191
1160.705117,-8731.163727,-76.589155,14092.404612
1160.705414,-4825.116796,-2833.798753,13249.923901
1160.705711,-3369.922842,-4901.705952,10722.481770
1160.706012,-229.767466,-4901.705952,10722.481770
1160.706313,4748.527641,-6280.310751,9114.109504
1160.706614,6893.023995,-6127.132440,8501.396260
1160.706915,8807.752882,-3752.868619,7429.148083
1160.707216,3293.333686,-4365.581863,9267.287815
1160.707517,612.713244,-2374.263820,12407.443191
1160.707818,-1761.550576,1684.961421,10875.660081
1160.708113,-536.124088,5744.186662,8807.752882
1160.708414,-1914.728887,8348.217949,9420.466126
1160.708715,-1914.728887,6510.078217,10109.768526
1160.709015,-3829.457775,2910.387909,12101.086569
1160.709316,-4748.527641,612.713244,12254.264880
1160.709617,-4978.295107,-3906.046930,12790.388968
1160.709918,-5284.651729,-6280.310751,13709.458834
1160.710219,-1914.728887,-7658.915550,10416.125148
1160.710531,1072.248177,-8271.628794,9420.466126
1160.710828,3140.155375,-7352.558928,8960.931193
1160.711125,3293.333686,-7965.272172,9420.466126
1160.711423,4901.705952,-5667.597507,9650.233593
1160.711720,6127.132440,-382.945777,9573.644437
1160.712018,4748.527641,4135.814397,9650.233593
1160.712315,1684.961421,7275.969772,9267.287815
1160.712613,306.356622,9114.109504,10416.125148
1160.712922,-229.767466,10416.125148,9114.109504
1160.713221,-4825.116796,6663.256528,11641.551636
1160.713521,-6663.256528,765.891555,13862.637145
1160.713820,-4442.171019,-3599.690308,12790.388968
1160.714119,-2221.085509,-4901.705952,11182.016703
1160.714419,-2757.209598,-9650.233593,10799.070925
1160.714718,-2221.085509,-10186.357681,12866.978124
1160.715017,1531.783110,-7965.272172,10875.660081
1160.715325,5667.597507,-1914.728887,8960.931193
1160.715624,6433.489062,612.713244,8960.931193
1160.715924,4748.527641,4442.171019,9420.466126
1160.716224,3906.046930,7122.791461,9803.411904
1160.716523,1072.248177,9803.411904,8118.450483
1160.716823,-1761.550576,9650.233593,9726.822748
1160.717123,-4288.992708,5284.651729,10875.660081
1160.717422,-7505.737239,765.891555,12254.264880
1160.717719,-4978.295107,-1761.550576,12330.854035
1160.718016,-5591.008351,-6739.845684,12943.567279
1160.718314,-5744.186662,-10033.179370,13403.102212
1160.718611,-2221.085509,-10645.892614,12407.443191
1160.718908,2680.620442,-8884.342038,9573.644437
1160.719206,8348.217949,-4518.760174,7888.683016
1160.719503,8348.217949,-3906.046930,7812.093861
1160.719801,6280.310751,-1455.193954,9343.876971
1160.720115,8041.861327,3982.636086,8577.985416
1160.720414,1378.604799,5897.364973,8041.861327
1160.720712,-2450.852976,6816.434839,9420.466126
1160.721011,-6356.899906,6050.543284,11335.195014
1160.721310,-6510.078217,4595.349330,10262.946837
1160.721609,-6969.613150,612.713244,9956.590215
1160.721907,-8118.450483,-4825.116796,12713.799813
1160.722206,-6663.256528,-9497.055282,14781.707011
1160.722518,-3982.636086,-11871.319102,13403.102212
1160.722818,459.534933,-10645.892614,10722.481770
1160.723118,5667.597507,-6739.845684,9803.411904
1160.723418,9267.287815,-5973.954129,7429.148083
1160.723718,9114.109504,-1608.372265,8041.861327
1160.724017,8348.217949,1072.248177,8195.039638
1160.724317,5054.884263,4135.814397,8654.574571
1160.724617,306.356622,7582.326394,10569.303459
1160.724917,-2450.852976,9114.109504,8654.574571
1160.725216,-3676.279464,9956.590215,10416.125148
1160.725516,-4288.992708,9420.466126,10875.660081
1160.725815,-9190.698660,2910.387909,12254.264880
1160.726114,-9037.520349,-2986.977064,15700.776877
1160.726413,-6356.899906,-4518.760174,14168.993767
1160.726712,-689.302399,-6586.667373,12024.497413
1160.727012,-0.000000,-9880.001059,10875.660081
1160.727319,3752.868619,-9497.055282,11028.838392
1160.727619,7429.148083,-5973.954129,7888.683016
1160.727920,6893.023995,-3446.511997,8654.574571
1160.728221,4748.527641,-2067.907198,10339.535992
1160.728522,4671.938485,1378.604799,8195.039638
1160.728822,3752.868619,8195.039638,7888.683016
1160.729123,2144.496354,10109.768526,7275.969772
1160.729424,-2450.852976,9803.411904,11028.838392
1160.729740,-4135.814397,9803.411904,11794.729947
1160.730034,-5591.008351,7582.326394,11488.373325
1160.730328,-7505.737239,1531.783110,13096.745590
1160.730621,-11105.427547,-5361.240885,15241.241944
1160.730915,-9573.644437,-10339.535992,13786.047990
1160.731209,-5131.473418,-12177.675724,11335.195014
1160.731502,-76.589155,-13249.923901,9803.411904
1160.731796,4059.225241,-14705.117856,10722.481770
1160.732115,6280.310751,-10492.714303,9114.109504
1160.732413,12943.567279,-3446.511997,6510.078217
1160.732711,11794.729947,2450.852976,7429.148083
1160.733009,6433.489062,6510.078217,8271.628794
1160.733308,3752.868619,11794.729947,8195.039638
1160.733606,1838.139732,14628.528700,8960.931193
1160.733904,-1148.837332,13326.513057,8654.574571
1160.734202,-7352.558928,4825.116796,12713.799813
1160.734515,-10186.357681,-1608.372265,14628.528700
1160.734815,-10339.535992,-5667.597507,14934.885322
1160.735115,-10186.357681,-11105.427547,13096.745590
1160.735415,-8731.163727,-13556.280523,12943.567279
1160.735715,-5131.473418,-11564.962480,12790.388968
1160.736015,4212.403552,-7965.272172,9114.109504
1160.736315,9650.233593,-4059.225241,6356.899906
1160.736615,14015.815456,-0.000000,6280.310751
1160.736927,12177.675724,1378.604799,9420.466126
1160.737221,9803.411904,6203.721595,9114.109504
1160.737515,9497.055282,11947.908258,5973.954129
1160.737810,2833.798753,11947.908258,9114.109504
1160.738104,-4442.171019,8960.931193,10109.768526
1160.738398,-12101.086569,4595.349330,12943.567279
1160.738692,-15547.598566,306.356622,14781.707011
1160.738986,-16466.668432,-5208.062574,14705.117856
1160.739293,-13939.226301,-9497.055282,15241.241944
1160.739594,-7505.737239,-10645.892614,12713.799813
1160.739895,153.178311,-10492.714303,9956.590215
1160.740196,8041.861327,-8577.985416,9267.287815
1160.740497,10569.303459,-6433.489062,7429.148083
1160.740798,13556.280523,-3293.333686,6663.256528
1160.741099,12330.854035,919.069866,7735.504705
1160.741400,9650.233593,4825.116796,7582.326394
1160.741714,3140.155375,6663.256528,9037.520349
1160.742014,-2221.085509,8195.039638,10569.303459
1160.742313,-2757.209598,9267.287815,8654.574571
1160.742612,-9497.055282,4978.295107,11641.551636
1160.742912,-11871.319102,-689.302399,15088.063633
1160.743211,-11871.319102,-4901.705952,15547.598566
1160.743511,-6663.256528,-5667.597507,11182.016703
1160.743810,-4748.527641,-9726.822748,11182.016703
1160.744083,-3369.922842,-12637.210657,13403.102212
1160.744386,6433.489062,-9037.520349,9956.590215
1160.744688,13403.102212,-3752.868619,6280.310751
1160.744991,14705.117856,-2067.907198,6356.899906
1160.745294,8807.752882,-1455.193954,10492.714303
1160.745596,6893.023995,4595.349330,9573.644437
1160.745899,4059.225241,10875.660081,7582.326394
1160.746201,-3829.457775,11335.195014,9497.055282
1160.746519,-10186.357681,8807.752882,12254.264880
1160.746813,-12407.443191,6510.078217,12790.388968
1160.747108,-9573.644437,5744.186662,11488.373325
1160.747402,-8118.450483,612.713244,12713.799813
1160.747697,-8118.450483,-7658.915550,13709.458834
1160.747991,-3369.922842,-10492.714303,13862.637145
1160.748285,5208.062574,-10339.535992,9956.590215
1160.748580,9497.055282,-10186.357681,7735.504705
1160.748880,8195.039638,-11258.605858,9267.287815
1160.749180,9114.109504,-8118.450483,9114.109504
1160.749480,7735.504705,-536.124088,9573.644437
1160.749780,6433.489062,6356.899906,6356.899906
1160.750080,-842.480710,9114.109504,7735.504705
1160.750380,-6356.899906,10875.660081,11641.551636
1160.750680,-5284.651729,13173.334746,10416.125148
1160.750980,-5284.651729,10109.768526,8807.752882
1160.751310,-6969.613150,3829.457775,10569.303459
1160.751607,-7199.380617,-4901.705952,13709.458834
1160.751904,-6510.078217,-11258.605858,14781.707011
1160.752201,-2757.209598,-13862.637145,12943.567279
1160.752498,612.713244,-16543.257588,10262.946837
1160.752795,3906.046930,-15777.366033,9650.233593
1160.753092,5514.419196,-13096.745590,10033.179370
1160.753389,7429.148083,-7199.380617,8041.861327
1160.753697,6433.489062,459.534933,8960.931193
1160.753997,5514.419196,7122.791461,8654.574571
1160.754296,1378.604799,10416.125148,8807.752882
1160.754596,153.178311,14934.885322,9803.411904
1160.754896,306.356622,15088.063633,10262.946837
1160.755196,-1455.193954,12407.443191,9573.644437
1160.755496,-2604.031287,5591.008351,11182.016703
1160.755796,-6816.434839,-1761.550576,15241.241944
1160.756079,-8118.450483,-7812.093861,14475.350389
1160.756384,-6969.613150,-9880.001059,13556.280523
1160.756688,-3216.744531,-12484.032346,11411.784169
1160.756993,-229.767466,-12943.567279,10416.125148
1160.757298,2680.620442,-10186.357681,10262.946837
1160.757603,6893.023995,-5667.597507,7888.683016
1160.757907,6433.489062,-689.302399,10262.946837
1160.758212,5820.775818,4595.349330,9420.466126
1160.758529,4901.705952,12407.443191,8041.861327
1160.758827,3293.333686,16160.311810,7352.558928
1160.759124,2986.977064,15394.420255,7888.683016
1160.759422,-2374.263820,11641.551636,9726.822748
1160.759719,-3829.457775,6816.434839,11488.373325
1160.760017,-7505.737239,-995.659021,14015.815456
1160.760314,-8118.450483,-7352.558928,14628.528700
1160.760611,-8271.628794,-11411.784169,14015.815456
1160.760866,-7199.380617,-13403.102212,11794.729947
1160.761167,-3216.744531,-13556.280523,11028.838392
1160.761468,-842.480710,-11411.784169,9650.233593
1160.761769,5054.884263,-7046.202306,8348.217949
1160.762069,7429.148083,-2833.798753,8654.574571
1160.762370,10262.946837,2604.031287,7429.148083
1160.762671,10722.481770,7122.791461,6280.310751
1160.762972,7888.683016,8807.752882,8118.450483
1160.763286,5361.240885,9267.287815,8501.396260
1160.763584,-536.124088,6050.543284,10416.125148
1160.763881,-7122.791461,2144.496354,12101.086569
1160.764179,-13020.156435,-4212.403552,15088.063633
1160.764477,-14934.885322,-7812.093861,14934.885322
1160.764775,-12407.443191,-8731.163727,13249.923901
1160.765073,-7965.272172,-10339.535992,12407.443191
1160.765370,-1302.015643,-10952.249236,11641.551636
1160.765677,5973.954129,-8271.628794,9956.590215
1160.765978,12177.675724,-5054.884263,6586.667373
1160.766279,13249.923901,-1608.372265,7888.683016
1160.766579,13709.458834,2297.674665,7735.504705
1160.766880,11028.838392,6356.899906,7352.558928
1160.767180,6739.845684,10109.768526,8195.039638
1160.767481,3599.690308,11488.373325,7582.326394
1160.767782,-4595.349330,8807.752882,10416.125148
1160.768078,-10645.892614,4978.295107,12790.388968
1160.768378,-15853.955188,-842.480710,15394.420255
1160.768677,-18840.932253,-4825.116796,16543.257588
1160.768977,-14628.528700,-7658.915550,14475.350389
1160.769276,-7658.915550,-8118.450483,11794.729947
1160.769576,1531.783110,-5973.954129,10875.660081
1160.769875,7735.504705,-5667.597507,9420.466126
1160.770175,13096.745590,-2833.798753,6586.667373
1160.770470,16083.722655,765.891555,8041.861327
1160.770770,13709.458834,3676.279464,7122.791461
1160.771070,7046.202306,6356.899906,7888.683016
1160.771370,2144.496354,8807.752882,9114.109504
1160.771670,-2067.907198,10262.946837,9267.287815
1160.771971,-6510.078217,7275.969772,10569.303459
1160.772271,-8577.985416,4442.171019,10875.660081
1160.772571,-10645.892614,-1608.372265,14015.815456
1160.772883,-11564.962480,-6280.310751,15547.598566
1160.773180,-8424.807105,-9037.520349,13556.280523
1160.773477,-4748.527641,-9343.876971,12254.264880
1160.773775,-842.480710,-12330.854035,11028.838392
1160.774072,1838.139732,-11564.962480,10875.660081
1160.774370,7735.504705,-6127.132440,8501.396260
1160.774667,11641.551636,-1455.193954,6969.613150
1160.774964,11488.373325,306.356622,8960.931193
1160.775264,7275.969772,4288.992708,10109.768526
1160.775564,7582.326394,9803.411904,7735.504705
1160.775864,2680.620442,12254.264880,7888.683016
1160.776164,-2757.209598,9573.644437,10569.303459
1160.776464,-8884.342038,5744.186662,11947.908258
1160.776764,-10645.892614,612.713244,13403.102212
1160.777064,-10799.070925,-3140.155375,13862.637145
1160.777364,-9497.055282,-7352.558928,13020.156435
1160.777671,-4825.116796,-10799.070925,12407.443191
1160.777970,765.891555,-11411.784169,10492.714303
1160.778269,4748.527641,-10033.179370,10339.535992
1160.778568,6433.489062,-9190.698660,9573.644437
1160.778867,5514.419196,-5514.419196,9114.109504
1160.779166,6739.845684,459.534933,8807.752882
1160.779465,4748.527641,5591.008351,8348.217949
1160.779764,5514.419196,10416.125148,7888.683016
1160.780080,4671.938485,12560.621502,8271.628794
1160.780378,2986.977064,12560.621502,9497.055282
1160.780676,-842.480710,9420.466126,9650.233593
1160.780973,-6203.721595,4288.992708,12560.621502
1160.781271,-9880.001059,-1914.728887,14322.172078
1160.781569,-13939.226301,-7658.915550,14551.939545
1160.781866,-9497.055282,-10339.535992,12713.799813
1160.782164,-1761.550576,-10952.249236,9650.233593
1160.782479,1531.783110,-13096.745590,10875.660081
1160.782778,5054.884263,-10799.070925,10722.481770
1160.783078,6739.845684,-5820.775818,8577.985416
1160.783377,9497.055282,1991.318043,6969.613150
1160.783677,7122.791461,5437.830040,8501.396260
1160.783977,1531.783110,7429.148083,9114.109504
1160.784276,-76.589155,10262.946837,9803.411904
1160.784576,-1148.837332,10722.481770,8807.752882
1160.784864,-2757.209598,7275.969772,9880.001059
1160.785165,-6663.256528,-0.000000,14092.404612
1160.785465,-7658.915550,-4212.403552,14934.885322
1160.785766,-9037.520349,-8271.628794,13173.334746
1160.786067,-6050.543284,-10033.179370,13096.745590
1160.786368,-3216.744531,-10952.249236,11947.908258
1160.786669,306.356622,-9650.233593,11488.373325
1160.786969,5820.775818,-5054.884263,9573.644437
1160.787269,9114.109504,-1455.193954,7429.148083
1160.787568,10262.946837,1684.961421,9420.466126
1160.787867,9114.109504,5744.186662,8501.396260
1160.788167,9650.233593,10416.125148,6433.489062
1160.788466,4748.527641,11182.016703,7888.683016
1160.788765,-2374.263820,7275.969772,10875.660081
1160.789064,-9880.001059,4135.814397,14475.350389
