#time,accel_x,accel_y,accel_z
1136.450549,-76.589155,-382.945777,10262.946837
1136.450849,-76.589155,-536.124088,10492.714303
1136.451148,153.178311,-536.124088,10262.946837
1136.451447,153.178311,-536.124088,10262.946837
1136.451764,-0.000000,-536.124088,10186.357681
1136.452063,-0.000000,-689.302399,10492.714303
1136.452361,-0.000000,-536.124088,10262.946837
1136.452660,-229.767466,-842.480710,10416.125148
1136.452959,-382.945777,-689.302399,10262.946837
1136.453257,-689.302399,-536.124088,10492.714303
1136.453556,-382.945777,-689.302399,10722.481770
1136.453854,-382.945777,-536.124088,10492.714303
1136.454154,-382.945777,-536.124088,10416.125148
1136.454451,306.356622,-536.124088,10722.481770
1136.454749,4365.581863,-76.589155,10262.946837
1136.455046,6280.310751,-76.589155,9880.001059
1136.455344,11641.551636,153.178311,9573.644437
1136.455641,15011.474478,153.178311,9573.644437
1136.455939,19606.823808,153.178311,9267.287815
1136.456236,21827.909317,306.356622,8807.752882
1136.456567,20066.358741,153.178311,9803.411904
1136.456864,20679.071985,919.069866,9573.644437
1136.457160,18611.164786,1531.783110,9956.590215
1136.457457,17845.273231,1378.604799,8960.931193
1136.457754,15011.474478,1531.783110,9726.822748
1136.458051,13556.280523,-0.000000,11105.427547
1136.458348,16390.079277,-536.124088,11182.016703
1136.458645,22440.622561,306.356622,9956.590215
1136.458954,27648.685135,765.891555,8654.574571
1136.459253,25733.956248,-1148.837332,9267.287815
1136.459553,20372.715363,-4059.225241,12407.443191
1136.459853,13862.637145,-4671.938485,15853.955188
1136.460153,10875.660081,-1761.550576,14015.815456
1136.460453,9267.287815,459.534933,13249.923901
1136.460753,4365.581863,612.713244,14398.761234
1136.461052,3906.046930,1378.604799,15241.241944
1136.461336,5667.597507,3523.101153,15394.420255
1136.461639,12484.032346,6050.543284,11182.016703
1136.461942,18457.986475,6050.543284,8960.931193
1136.462245,22900.157494,5284.651729,8041.861327
1136.462548,26116.902025,1531.783110,7582.326394
1136.462851,27035.971891,-2680.620442,6969.613150
1136.463153,26882.793580,-6433.489062,6663.256528
1136.463456,23742.638205,-9650.233593,8041.861327
1136.463738,18611.164786,-11258.605858,9420.466126
1136.464040,9497.055282,-8731.163727,10262.946837
1136.464342,-382.945777,-4825.116796,12713.799813
1136.464644,-10033.179370,-1455.193954,14934.885322
1136.464946,-17002.792521,1684.961421,15853.955188
1136.465248,-18994.110564,6356.899906,14475.350389
1136.465550,-15700.776877,8654.574571,11028.838392
1136.465852,-7199.380617,4595.349330,8654.574571
1136.466141,4365.581863,-1914.728887,6816.434839
1136.466441,17998.451542,-5514.419196,5361.240885
1136.466740,25580.777937,-6739.845684,4595.349330
1136.467039,26423.258647,-6586.667373,5514.419196
1136.467338,20219.537052,-4365.581863,8041.861327
1136.467637,7429.148083,-76.589155,10952.249236
1136.467936,-7965.272172,2450.852976,15088.063633
1136.468235,-22210.855095,2757.209598,15700.776877
1136.468549,-29486.824867,1531.783110,16390.079277
1136.468848,-30712.251355,-3752.868619,17155.970832
1136.469147,-21062.017762,-5667.597507,14168.993767
1136.469445,-1148.837332,-8884.342038,7735.504705
1136.469744,20219.537052,-9650.233593,4671.938485
1136.470043,33163.104331,-10952.249236,5973.954129
1136.470341,40515.663259,-7658.915550,5973.954129
1136.470640,37988.221128,1378.604799,4748.527641
1136.470947,26882.793580,8960.931193,7429.148083
1136.471247,6280.310751,8960.931193,9956.590215
1136.471547,-15088.063633,8501.396260,14934.885322
1136.471847,-30252.716422,7275.969772,15700.776877
1136.472146,-38830.701838,3216.744531,15853.955188
1136.472446,-39749.771704,-4518.760174,18228.219009
1136.472746,-24891.475537,-8731.163727,15471.009411
1136.473046,-8424.807105,-5208.062574,12560.621502
1136.473342,7582.326394,-2680.620442,7275.969772
1136.473642,18994.110564,-2221.085509,5744.186662
1136.473941,25733.956248,459.534933,5897.364973
1136.474241,26576.436958,3523.101153,4288.992708
1136.474541,20372.715363,4595.349330,6280.310751
1136.474840,12790.388968,4825.116796,6893.023995
1136.475140,5361.240885,5131.473418,8654.574571
1136.475440,-4135.814397,4442.171019,10722.481770
1136.475735,-18687.753942,3063.566220,15394.420255
1136.476036,-25504.188781,-1302.015643,15700.776877
1136.476336,-23819.227360,-1761.550576,14015.815456
1136.476637,-15700.776877,-2221.085509,12560.621502
1136.476938,-3829.457775,-2527.442131,10109.768526
1136.477239,11335.195014,-1608.372265,10033.179370
1136.477540,28950.700779,3676.279464,6739.845684
1136.477841,35077.833219,8501.396260,4288.992708
1136.478129,26270.080336,7888.683016,6280.310751
1136.478430,9267.287815,3216.744531,10569.303459
1136.478730,-8884.342038,-1761.550576,13556.280523
1136.479031,-21444.963540,-5361.240885,14322.172078
1136.479332,-26116.902025,-8884.342038,14858.296167
1136.479633,-23129.924961,-10952.249236,16696.435899
1136.479933,-12866.978124,-6586.667373,14475.350389
1136.480234,-2374.263820,306.356622,12407.443191
1136.480543,5361.240885,3369.922842,10569.303459
1136.480839,10109.768526,3063.566220,10416.125148
1136.481136,11028.838392,459.534933,9650.233593
1136.481432,11028.838392,765.891555,8577.985416
1136.481728,10109.768526,-1608.372265,7122.791461
1136.482024,9497.055282,-4671.938485,7275.969772
1136.482320,6586.667373,-5208.062574,9573.644437
1136.482616,1531.783110,-1914.728887,10416.125148
1136.482923,-7505.737239,612.713244,12407.443191
1136.483222,-14628.528700,3216.744531,12713.799813
1136.483521,-17002.792521,1838.139732,11182.016703
1136.483820,-18075.040698,153.178311,11488.373325
1136.484119,-12713.799813,-4365.581863,11028.838392
1136.484418,-2221.085509,-6739.845684,11028.838392
1136.484717,11794.729947,-5361.240885,8348.217949
1136.485016,21981.087628,-1148.837332,6816.434839
1136.485297,21521.552695,306.356622,7199.380617
1136.485600,14398.761234,1378.604799,7888.683016
1136.485902,4748.527641,765.891555,8731.163727
1136.486205,-7122.791461,-536.124088,9573.644437
1136.486508,-12866.978124,-1608.372265,10416.125148
1136.486810,-13326.513057,-1302.015643,9803.411904
1136.487113,-7199.380617,1531.783110,10109.768526
1136.487416,-6050.543284,1991.318043,11947.908258
1136.487730,-6050.543284,1225.426488,15930.544344
1136.488029,-4135.814397,2297.674665,16083.722655
1136.488328,2833.798753,4135.814397,11028.838392
1136.488626,6433.489062,2757.209598,7735.504705
1136.488925,7888.683016,-1455.193954,7429.148083
1136.489224,8501.396260,-5973.954129,7888.683016
1136.489523,10262.946837,-8577.985416,8271.628794
1136.489821,5514.419196,-8577.985416,9726.822748
1136.490110,-2604.031287,-8577.985416,12713.799813
1136.490412,-10645.892614,-6739.845684,14781.707011
1136.490714,-11564.962480,-1608.372265,13403.102212
1136.491017,-11718.140791,1225.426488,10722.481770
1136.491319,-9190.698660,1838.139732,10569.303459
1136.491622,-3523.101153,1684.961421,11488.373325
1136.491924,8041.861327,4595.349330,9573.644437
1136.492227,15930.544344,6969.613150,7429.148083
1136.492526,15471.009411,7122.791461,7735.504705
1136.492825,11335.195014,3063.566220,9267.287815
1136.493125,3446.511997,-689.302399,10875.660081
1136.493424,-3676.279464,-5820.775818,10722.481770
1136.493723,-10339.535992,-9726.822748,11182.016703
1136.494022,-13326.513057,-13556.280523,11794.729947
1136.494322,-9726.822748,-10645.892614,12101.086569
1136.494621,-5437.830040,-5514.419196,11182.016703
1136.494928,-2757.209598,1684.961421,10952.249236
1136.495227,-2757.209598,4288.992708,12407.443191
1136.495526,-1608.372265,7122.791461,12254.264880
1136.495826,1072.248177,7582.326394,10109.768526
1136.496125,5667.597507,7582.326394,7122.791461
1136.496424,8960.931193,4442.171019,7429.148083
1136.496723,12637.210657,1838.139732,8807.752882
1136.497023,13556.280523,2757.209598,9803.411904
1136.497373,8807.752882,3676.279464,10875.660081
1136.497666,-0.000000,2910.387909,12790.388968
1136.497960,-6969.613150,-0.000000,12560.621502
1136.498254,-13020.156435,-1302.015643,12254.264880
1136.498547,-15853.955188,-4671.938485,12560.621502
1136.498841,-13173.334746,-6586.667373,12101.086569
1136.499135,-3216.744531,-5514.419196,11182.016703
1136.499429,5973.954129,-1148.837332,10262.946837
1136.499730,8501.396260,2144.496354,9420.466126
1136.500027,5667.597507,3676.279464,11794.729947
1136.500324,2986.977064,2604.031287,10875.660081
1136.500621,2297.674665,3676.279464,9267.287815
1136.500917,-536.124088,612.713244,7429.148083
1136.501214,-1302.015643,-2680.620442,8195.039638
1136.501511,-0.000000,-6280.310751,8960.931193
1136.501808,2680.620442,-4518.760174,9650.233593
1136.502125,2833.798753,-2986.977064,9420.466126
1136.502424,-1608.372265,-2221.085509,11182.016703
1136.502724,-5437.830040,-3293.333686,12330.854035
1136.503023,-4748.527641,-1761.550576,11028.838392
1136.503322,-3829.457775,-2374.263820,8807.752882
1136.503622,-536.124088,-4825.116796,8041.861327
1136.503921,2374.263820,-6739.845684,7812.093861
1136.504220,5514.419196,-4518.760174,10109.768526
1136.504520,3752.868619,-4212.403552,11258.605858
1136.504817,-1761.550576,-4059.225241,14551.939545
1136.505115,-3369.922842,-1608.372265,13020.156435
1136.505412,-3523.101153,919.069866,9573.644437
1136.505709,-4978.295107,919.069866,8654.574571
1136.506007,-4748.527641,-995.659021,8884.342038
1136.506304,-382.945777,-995.659021,9956.590215
1136.506602,5054.884263,459.534933,10186.357681
1136.506909,7888.683016,3216.744531,10262.946837
1136.507210,3906.046930,2604.031287,12254.264880
1136.507512,3140.155375,4748.527641,12407.443191
1136.507814,2374.263820,4825.116796,9650.233593
1136.508116,-1455.193954,2450.852976,9803.411904
1136.508417,-3829.457775,-2527.442131,11335.195014
1136.508719,-4288.992708,-4671.938485,12560.621502
1136.509021,-1148.837332,-2374.263820,11794.729947
1136.509300,459.534933,306.356622,11335.195014
1136.509604,-2374.263820,1072.248177,13173.334746
1136.509909,-3523.101153,2910.387909,13556.280523
1136.510213,-1608.372265,3369.922842,11488.373325
1136.510517,-1914.728887,3216.744531,10109.768526
1136.510822,612.713244,612.713244,7888.683016
1136.511126,4059.225241,306.356622,8195.039638
1136.511430,7735.504705,2144.496354,8348.217949
1136.511749,9497.055282,4748.527641,8501.396260
1136.512046,5973.954129,4135.814397,8884.342038
1136.512343,1225.426488,2297.674665,10109.768526
1136.512640,-3982.636086,-1761.550576,10875.660081
1136.512937,-8424.807105,-5054.884263,10722.481770
1136.513233,-9190.698660,-8424.807105,10875.660081
1136.513530,-7122.791461,-11411.784169,11028.838392
1136.513827,-3369.922842,-10952.249236,10875.660081
1136.514144,765.891555,-5208.062574,10875.660081
1136.514439,2144.496354,-1455.193954,9956.590215
1136.514733,1072.248177,-382.945777,9956.590215
1136.515028,459.534933,-229.767466,9956.590215
1136.515322,-1455.193954,-1761.550576,9420.466126
1136.515617,-995.659021,-2833.798753,8884.342038
1136.515911,1991.318043,-2374.263820,9343.876971
1136.516206,7275.969772,-382.945777,9267.287815
1136.516505,9267.287815,2604.031287,8807.752882
1136.516805,4518.760174,3829.457775,11028.838392
1136.517105,-2374.263820,612.713244,12790.388968
1136.517405,-5437.830040,-1455.193954,13403.102212
1136.517705,-8424.807105,-4212.403552,11641.551636
1136.518006,-6969.613150,-6433.489062,10569.303459
1136.518306,-3982.636086,-9037.520349,10416.125148
1136.518606,1531.783110,-6280.310751,11105.427547
1136.518896,5514.419196,-3293.333686,12254.264880
1136.519200,5820.775818,1531.783110,12254.264880
1136.519503,4671.938485,5437.830040,11028.838392
1136.519806,1378.604799,7275.969772,9956.590215
1136.520110,-3216.744531,5437.830040,8884.342038
1136.520413,-5131.473418,4135.814397,10645.892614
1136.520717,-3063.566220,1991.318043,10339.535992
1136.521020,2833.798753,3063.566220,9880.001059
1136.521293,5820.775818,4978.295107,9956.590215
1136.521598,5514.419196,5284.651729,10262.946837
1136.521903,3446.511997,4748.527641,11028.838392
1136.522208,919.069866,2297.674665,10799.070925
1136.522513,-4442.171019,-2986.977064,11411.784169
1136.522817,-6816.434839,-6127.132440,11182.016703
1136.523122,-3369.922842,-6127.132440,10416.125148
1136.523427,2680.620442,-4825.116796,7735.504705
1136.523744,4365.581863,-3293.333686,9420.466126
1136.524041,2374.263820,-995.659021,12407.443191
1136.524338,-1302.015643,1838.139732,12943.567279
1136.524636,-1148.837332,3216.744531,10416.125148
1136.524933,-4595.349330,1991.318043,9497.055282
1136.525230,-6203.721595,-842.480710,9343.876971
1136.525527,-3369.922842,-3140.155375,9726.822748
1136.525825,2297.674665,-3906.046930,9037.520349
1136.526107,7275.969772,-2680.620442,10033.179370
1136.526409,7046.202306,-689.302399,11105.427547
1136.526712,4212.403552,-536.124088,11718.140791
1136.527014,1531.783110,-1761.550576,11028.838392
1136.527317,-689.302399,-2067.907198,9726.822748
1136.527620,-5284.651729,-6433.489062,9420.466126
1136.527922,-5591.008351,-9650.233593,10109.768526
1136.528225,-3369.922842,-10339.535992,11947.908258
1136.528457,306.356622,-5208.062574,12101.086569
1136.528764,3752.868619,-229.767466,11182.016703
1136.529071,2527.442131,3829.457775,10569.303459
1136.529378,612.713244,4442.171019,10875.660081
1136.529685,-3063.566220,3982.636086,10416.125148
1136.529992,-6203.721595,2757.209598,9956.590215
1136.530299,-2910.387909,153.178311,10109.768526
1136.530606,1225.426488,-995.659021,9420.466126
1136.530915,5208.062574,-0.000000,10109.768526
1136.531212,4901.705952,1991.318043,11105.427547
1136.531510,2680.620442,2450.852976,12407.443191
1136.531808,919.069866,3063.566220,11028.838392
1136.532106,-1148.837332,3063.566220,9420.466126
1136.532404,-6663.256528,-229.767466,10339.535992
1136.532701,-6969.613150,-2833.798753,10186.357681
1136.532999,-2067.907198,-3293.333686,9956.590215
1136.533305,2680.620442,153.178311,10645.892614
1136.533602,4901.705952,2910.387909,11028.838392
1136.533898,919.069866,4442.171019,12254.264880
1136.534195,459.534933,5591.008351,11335.195014
1136.534491,-689.302399,4442.171019,9956.590215
1136.534788,-1608.372265,3216.744531,9267.287815
1136.535084,-229.767466,-536.124088,8348.217949
1136.535381,2297.674665,-2527.442131,9420.466126
1136.535710,5208.062574,-1761.550576,10109.768526
1136.536009,5208.062574,-536.124088,10875.660081
1136.536307,2680.620442,-0.000000,11488.373325
1136.536605,-2067.907198,-229.767466,11947.908258
1136.536903,-6203.721595,-1302.015643,10109.768526
1136.537201,-9343.876971,-2680.620442,10722.481770
1136.537499,-9037.520349,-5514.419196,10722.481770
1136.537797,-4978.295107,-7199.380617,10492.714303
1136.538092,-0.000000,-5820.775818,11335.195014
1136.538392,3752.868619,-1608.372265,10722.481770
1136.538692,4671.938485,153.178311,9726.822748
1136.538993,3906.046930,-229.767466,9420.466126
1136.539293,2144.496354,-2374.263820,9190.698660
1136.539593,-3523.101153,-6586.667373,9956.590215
1136.539893,-4288.992708,-9190.698660,9956.590215
1136.540193,2527.442131,-7812.093861,8654.574571
1136.540481,7735.504705,-4365.581863,7582.326394
1136.540781,8195.039638,-536.124088,9114.109504
1136.541081,3293.333686,2297.674665,12254.264880
1136.541381,-229.767466,3676.279464,11641.551636
1136.541681,-3982.636086,3523.101153,10569.303459
1136.541981,-10645.892614,-0.000000,10952.249236
1136.542281,-13020.156435,-5208.062574,11794.729947
1136.542581,-7965.272172,-5820.775818,11641.551636
1136.542881,2144.496354,-3293.333686,9650.233593
1136.543181,7122.791461,153.178311,10033.179370
1136.543481,5820.775818,1531.783110,12254.264880
1136.543781,3446.511997,3676.279464,12407.443191
1136.544081,2374.263820,6050.543284,10262.946837
1136.544381,1684.961421,5437.830040,6510.078217
1136.544681,-536.124088,1838.139732,8654.574571
1136.544981,-1148.837332,-2374.263820,9956.590215
1136.545288,2680.620442,-689.302399,11028.838392
1136.545590,5208.062574,2910.387909,10875.660081
1136.545891,4671.938485,5591.008351,11182.016703
1136.546193,919.069866,5744.186662,12560.621502
1136.546494,-2450.852976,6356.899906,12254.264880
1136.546796,-6203.721595,4288.992708,10722.481770
1136.547097,-7658.915550,1684.961421,10569.303459
1136.547399,-6050.543284,-2833.798753,11182.016703
1136.547715,-995.659021,-5208.062574,11335.195014
1136.548009,2144.496354,-4365.581863,11641.551636
1136.548302,2144.496354,-2986.977064,11947.908258
1136.548596,765.891555,-3293.333686,10799.070925
1136.548890,1225.426488,-1761.550576,9650.233593
1136.549183,-382.945777,-2833.798753,7888.683016
1136.549477,-1608.372265,-3599.690308,7735.504705
1136.549771,-1148.837332,-5054.884263,8807.752882
1136.550089,4748.527641,-4365.581863,8501.396260
1136.550388,7122.791461,-2680.620442,8960.931193
1136.550686,4059.225241,153.178311,11182.016703
1136.550984,-0.000000,612.713244,11718.140791
1136.551282,-4135.814397,-229.767466,11028.838392
1136.551580,-6663.256528,-1608.372265,10186.357681
1136.551879,-7965.272172,-5054.884263,10569.303459
1136.552177,-7352.558928,-8271.628794,11028.838392
1136.552490,-2067.907198,-8118.450483,10875.660081
1136.552788,3906.046930,-5208.062574,10569.303459
1136.553087,4901.705952,-2680.620442,10262.946837
1136.553385,2297.674665,-842.480710,12101.086569
1136.553684,306.356622,459.534933,10875.660081
1136.553982,-1914.728887,1531.783110,9497.055282
1136.554281,-2450.852976,919.069866,8041.861327
1136.554579,-0.000000,1072.248177,9650.233593
1136.554879,3752.868619,459.534933,9420.466126
1136.555178,7122.791461,4135.814397,10416.125148
1136.555477,6280.310751,6663.256528,11794.729947
1136.555776,3906.046930,8041.861327,10952.249236
1136.556076,-842.480710,5284.651729,11028.838392
1136.556375,-7658.915550,4135.814397,11028.838392
1136.556674,-12866.978124,-1302.015643,11564.962480
1136.556973,-12254.264880,-4901.705952,13403.102212
1136.557280,-5284.651729,-6127.132440,11947.908258
1136.557583,2680.620442,-2986.977064,10952.249236
1136.557886,4748.527641,306.356622,11641.551636
1136.558188,6280.310751,3676.279464,11641.551636
1136.558491,7046.202306,6203.721595,9803.411904
1136.558793,4748.527641,7582.326394,7429.148083
1136.559096,153.178311,4288.992708,7888.683016
1136.559399,-2450.852976,306.356622,8501.396260
1136.559673,-382.945777,-995.659021,9114.109504
1136.559976,2680.620442,-1608.372265,9573.644437
1136.560280,1225.426488,-1914.728887,11028.838392
1136.560584,-3829.457775,-3140.155375,14092.404612
1136.560887,-5591.008351,-2986.977064,13403.102212
1136.561191,-6050.543284,-1302.015643,10186.357681
1136.561495,-4825.116796,-2221.085509,8654.574571
1136.561798,-3369.922842,-5973.954129,7965.272172
1136.562071,-382.945777,-7812.093861,9803.411904
1136.562370,5514.419196,-5973.954129,9803.411904
1136.562670,7275.969772,-4365.581863,10109.768526
1136.562969,4671.938485,-4059.225241,10416.125148
1136.563268,1225.426488,-2527.442131,12101.086569
1136.563567,-3523.101153,-2067.907198,10109.768526
1136.563867,-3523.101153,153.178311,8195.039638
1136.564166,-3523.101153,-536.124088,7812.093861
1136.564483,-1761.550576,-2527.442131,9803.411904
1136.564782,1684.961421,-2680.620442,12407.443191
1136.565080,2833.798753,1684.961421,12943.567279
1136.565379,2144.496354,1378.604799,10875.660081
1136.565677,-382.945777,2144.496354,11182.016703
1136.565976,-3829.457775,-842.480710,11488.373325
1136.566275,-5897.364973,-995.659021,11028.838392
1136.566573,-5131.473418,-3752.868619,9803.411904
1136.566873,-842.480710,-3906.046930,9650.233593
1136.567174,4212.403552,-3599.690308,9114.109504
1136.567475,5514.419196,-76.589155,10645.892614
1136.567775,2527.442131,1991.318043,12484.032346
1136.568076,-382.945777,4288.992708,12407.443191
1136.568377,-1914.728887,5744.186662,10416.125148
1136.568678,-4442.171019,5591.008351,9420.466126
1136.568978,-4748.527641,2450.852976,9956.590215
1136.569285,-995.659021,1072.248177,10722.481770
1136.569582,5973.954129,3063.566220,9573.644437
1136.569879,9267.287815,4135.814397,9573.644437
1136.570176,6893.023995,4595.349330,10875.660081
1136.570473,2297.674665,3216.744531,11794.729947
1136.570770,-1302.015643,2604.031287,10416.125148
1136.571067,-6510.078217,-1761.550576,9650.233593
1136.571364,-8424.807105,-5054.884263,11028.838392
1136.571672,-6663.256528,-8577.985416,11488.373325
1136.571972,-995.659021,-5667.597507,11028.838392
1136.572272,3140.155375,-2680.620442,10799.070925
1136.572571,4518.760174,-76.589155,11641.551636
1136.572871,3446.511997,612.713244,10416.125148
1136.573171,2297.674665,2450.852976,8195.039638
1136.573471,-842.480710,-382.945777,7735.504705
1136.573771,-4288.992708,-3906.046930,9803.411904
1136.574054,-1455.193954,-7046.202306,9650.233593
1136.574359,4365.581863,-5667.597507,9573.644437
1136.574663,6127.132440,-4671.938485,9803.411904
1136.574968,2297.674665,-2986.977064,12866.978124
1136.575273,-1455.193954,-3140.155375,12790.388968
1136.575578,-2067.907198,-229.767466,10875.660081
1136.575882,-6356.899906,-2374.263820,8195.039638
1136.576187,-9037.520349,-5667.597507,10799.070925
1136.576424,-6510.078217,-8118.450483,11641.551636
1136.576732,2833.798753,-3906.046930,10262.946837
1136.577040,8654.574571,-1761.550576,9650.233593
1136.577349,7122.791461,-536.124088,11488.373325
1136.577657,4059.225241,306.356622,13096.745590
1136.577965,3446.511997,3676.279464,9573.644437
1136.578273,-536.124088,3982.636086,8041.861327
1136.578581,-5284.651729,1991.318043,9267.287815
1136.578871,-6356.899906,-382.945777,11488.373325
1136.579170,-1761.550576,-382.945777,11718.140791
1136.579469,2833.798753,3216.744531,11794.729947
1136.579769,3140.155375,4442.171019,11182.016703
1136.580068,765.891555,5284.651729,12177.675724
1136.580367,-1455.193954,4748.527641,11411.784169
1136.580666,-3063.566220,4288.992708,10262.946837
1136.580965,-3063.566220,1225.426488,9343.876971
1136.581251,919.069866,-995.659021,8041.861327
1136.581554,1991.318043,-2527.442131,9880.001059
1136.581856,2833.798753,-3140.155375,12713.799813
1136.582159,1378.604799,-689.302399,12790.388968
1136.582462,1838.139732,2144.496354,12254.264880
1136.582765,-229.767466,2450.852976,10569.303459
1136.583067,-3369.922842,2450.852976,9956.590215
1136.583370,-3982.636086,1838.139732,9650.233593
1136.583677,1225.426488,1378.604799,9114.109504
1136.583974,5208.062574,-842.480710,8731.163727
1136.584272,5820.775818,-382.945777,9650.233593
1136.584569,3293.333686,-0.000000,11335.195014
1136.584866,-536.124088,612.713244,12407.443191
1136.585163,-2067.907198,-382.945777,10186.357681
1136.585461,-6356.899906,-1914.728887,9956.590215
1136.585758,-10186.357681,-6433.489062,10262.946837
1136.586054,-8577.985416,-9497.055282,10722.481770
1136.586355,-1455.193954,-9880.001059,10569.303459
1136.586656,5667.597507,-7046.202306,9726.822748
1136.586957,5514.419196,-5361.240885,9650.233593
1136.587258,4212.403552,-2833.798753,10875.660081
1136.587560,1684.961421,-1455.193954,11794.729947
1136.587861,-0.000000,919.069866,9420.466126
1136.588162,-1761.550576,765.891555,7505.737239
1136.588456,-1608.372265,-1608.372265,9114.109504
1136.588757,2297.674665,-1302.015643,9573.644437
1136.589058,5208.062574,1684.961421,10416.125148
1136.589359,5054.884263,3523.101153,10569.303459
1136.589660,306.356622,2604.031287,12101.086569
1136.589961,-3676.279464,1838.139732,12407.443191
1136.590262,-6203.721595,1838.139732,9803.411904
1136.590563,-10645.892614,-536.124088,10875.660081
1136.590851,-11564.962480,-6433.489062,11794.729947
1136.591152,-6663.256528,-8118.450483,13862.637145
1136.591452,3599.690308,-4212.403552,11335.195014
1136.591753,9650.233593,1684.961421,9573.644437
1136.592054,7122.791461,2604.031287,9803.411904
1136.592355,5361.240885,4135.814397,10262.946837
1136.592656,2527.442131,5131.473418,9267.287815
1136.592957,459.534933,6510.078217,8501.396260
1136.593266,-3216.744531,1072.248177,9420.466126
1136.593565,-2450.852976,-76.589155,11028.838392
1136.593865,2297.674665,1838.139732,11182.016703
1136.594164,5054.884263,5591.008351,10033.179370
1136.594463,765.891555,4825.116796,11411.784169
1136.594763,-4288.992708,3063.566220,13020.156435
1136.595062,-5437.830040,1072.248177,11488.373325
1136.595362,-5897.364973,1378.604799,10186.357681
1136.595669,-4595.349330,-2986.977064,8501.396260
1136.595968,-1148.837332,-7352.558928,9726.822748
1136.596268,2833.798753,-8271.628794,10722.481770
1136.596568,6586.667373,-6433.489062,9956.590215
1136.596867,4518.760174,-4518.760174,10875.660081
1136.597167,-382.945777,-4212.403552,11564.962480
1136.597466,-1761.550576,-2680.620442,9956.590215
1136.597766,-3523.101153,-229.767466,8041.861327
1136.598063,-3369.922842,-229.767466,8501.396260
1136.598361,-229.767466,-689.302399,8884.342038
1136.598659,5361.240885,-76.589155,8577.985416
1136.598957,6280.310751,1838.139732,10416.125148
1136.599255,2986.977064,1531.783110,11335.195014
1136.599553,-2221.085509,-689.302399,12254.264880
1136.599851,-3676.279464,-2527.442131,11718.140791
1136.600149,-7122.791461,-4825.116796,9803.411904
1136.600464,-8424.807105,-8884.342038,10799.070925
1136.600762,-5131.473418,-10645.892614,11335.195014
1136.601061,1225.426488,-8577.985416,10722.481770
1136.601360,6280.310751,-5054.884263,9803.411904
1136.601658,5054.884263,-2221.085509,11182.016703
1136.601957,1531.783110,-689.302399,11335.195014
1136.602256,-229.767466,3523.101153,10416.125148
1136.602554,-842.480710,4978.295107,8348.217949
1136.602843,-995.659021,5744.186662,8501.396260
1136.603143,153.178311,3216.744531,9803.411904
1136.603443,2986.977064,3676.279464,10416.125148
1136.603743,4671.938485,5744.186662,10262.946837
1136.604043,3599.690308,6510.078217,11641.551636
1136.604343,-1302.015643,4288.992708,12560.621502
1136.604643,-4825.116796,1378.604799,11564.962480
1136.604943,-7658.915550,-1148.837332,11028.838392
1136.605242,-7199.380617,-5054.884263,11335.195014
1136.605542,-2757.209598,-7046.202306,9803.411904
1136.605843,2833.798753,-6433.489062,10569.303459
1136.606143,6280.310751,-3446.511997,11028.838392
1136.606443,6280.310751,612.713244,11335.195014
1136.606743,4518.760174,4748.527641,11335.195014
1136.607043,4365.581863,7122.791461,9114.109504
1136.607343,919.069866,6510.078217,8041.861327
1136.607650,-2221.085509,5131.473418,8348.217949
1136.607949,-842.480710,2144.496354,9573.644437
1136.608248,1684.961421,-1148.837332,10186.357681
1136.608548,1838.139732,-1914.728887,11641.551636
1136.608847,-689.302399,-2833.798753,12407.443191
1136.609146,-4288.992708,-2680.620442,13709.458834
1136.609445,-4595.349330,-3599.690308,11641.551636
1136.609744,-6663.256528,-3599.690308,9267.287815
1136.610065,-9726.822748,-7046.202306,9726.822748
1136.610362,-6510.078217,-9190.698660,10722.481770
1136.610659,1378.604799,-9650.233593,10109.768526
1136.610956,8348.217949,-5973.954129,9573.644437
1136.611253,8195.039638,-5054.884263,9573.644437
1136.611550,4901.705952,-2986.977064,10875.660081
1136.611847,3752.868619,-2221.085509,9803.411904
1136.612144,153.178311,919.069866,9420.466126
1136.612463,-2221.085509,306.356622,8577.985416
1136.612761,-1302.015643,153.178311,8807.752882
1136.613059,3752.868619,153.178311,8960.931193
1136.613357,5973.954129,1991.318043,9650.233593
1136.613656,1378.604799,1684.961421,12407.443191
1136.613954,-4135.814397,153.178311,14475.350389
1136.614252,-6510.078217,-536.124088,13249.923901
1136.614550,-8731.163727,-689.302399,10875.660081
1136.614863,-10033.179370,-2680.620442,10569.303459
1136.615159,-6663.256528,-3140.155375,10492.714303
1136.615455,2144.496354,-2067.907198,10722.481770
1136.615751,9114.109504,306.356622,9803.411904
1136.616047,8960.931193,3523.101153,10569.303459
1136.616343,3140.155375,3216.744531,11794.729947
1136.616640,-689.302399,3063.566220,11794.729947
1136.616936,-1761.550576,4825.116796,9650.233593
1136.617235,-2604.031287,4595.349330,9190.698660
1136.617536,-1608.372265,2144.496354,8960.931193
1136.617837,2374.263820,1072.248177,9880.001059
1136.618137,6127.132440,3216.744531,10416.125148
1136.618438,6280.310751,5131.473418,11028.838392
1136.618739,1378.604799,3369.922842,12254.264880
1136.619040,-1455.193954,4288.992708,11564.962480
1136.619341,-5284.651729,1838.139732,10569.303459
1136.619648,-8424.807105,-76.589155,10875.660081
1136.619945,-6816.434839,-3293.333686,10109.768526
1136.620241,-4135.814397,-6433.489062,11028.838392
1136.620538,1225.426488,-6739.845684,11488.373325
1136.620835,2680.620442,-3752.868619,11641.551636
1136.621132,4212.403552,-2221.085509,9956.590215
1136.621429,2374.263820,-1914.728887,9650.233593
1136.621726,612.713244,-1761.550576,8654.574571
1136.622040,-1302.015643,-2833.798753,8960.931193
1136.622342,-842.480710,-4901.705952,8807.752882
1136.622645,4671.938485,-4825.116796,7965.272172
1136.622948,7888.683016,-3446.511997,8884.342038
1136.623251,5361.240885,-1148.837332,10416.125148
1136.623553,1072.248177,306.356622,11258.605858
1136.623856,-3216.744531,1684.961421,12713.799813
1136.624159,-8118.450483,612.713244,11564.962480
1136.624432,-11105.427547,-76.589155,10569.303459
1136.624734,-11564.962480,-2986.977064,10569.303459
1136.625037,-5131.473418,-6127.132440,11182.016703
1136.625340,2144.496354,-6127.132440,11028.838392
1136.625642,7582.326394,-3906.046930,10262.946837
1136.625945,7735.504705,-2833.798753,11488.373325
1136.626247,5208.062574,-1455.193954,11028.838392
1136.626550,4671.938485,1225.426488,8271.628794
1136.626867,919.069866,1991.318043,6816.434839
1136.627162,-2450.852976,-229.767466,9267.287815
1136.627456,-2450.852976,-1914.728887,11641.551636
1136.627751,1991.318043,919.069866,11105.427547
1136.628045,3752.868619,3676.279464,10569.303459
1136.628340,1225.426488,6050.543284,12101.086569
1136.628634,-3216.744531,4595.349330,12560.621502
1136.628929,-5897.364973,4748.527641,11947.908258
1136.629229,-7352.558928,3369.922842,10569.303459
1136.629528,-6510.078217,765.891555,10339.535992
1136.629828,-2221.085509,-3140.155375,9803.411904
1136.630127,5054.884263,-2833.798753,10186.357681
1136.630427,7888.683016,-1761.550576,10262.946837
1136.630726,5361.240885,-1914.728887,11335.195014
1136.631026,2297.674665,-1914.728887,11947.908258
1136.631325,306.356622,-76.589155,11028.838392
1136.631616,-1761.550576,-229.767466,8501.396260
1136.631918,-3369.922842,-536.124088,8960.931193
1136.632221,-689.302399,-689.302399,9497.055282
1136.632524,3599.690308,153.178311,9190.698660
1136.632826,5208.062574,1991.318043,10875.660081
1136.633129,2680.620442,4288.992708,12943.567279
1136.633431,-229.767466,4288.992708,12024.497413
1136.633734,-2450.852976,3063.566220,10186.357681
1136.634042,-6663.256528,153.178311,9956.590215
1136.634342,-8731.163727,-4212.403552,10722.481770
1136.634642,-5591.008351,-7658.915550,9956.590215
1136.634941,306.356622,-9343.876971,10569.303459
1136.635241,3140.155375,-8884.342038,11028.838392
1136.635541,3293.333686,-6739.845684,11488.373325
1136.635841,3293.333686,-4671.938485,11028.838392
1136.636141,2680.620442,-2986.977064,9803.411904
1136.636424,-1302.015643,-1761.550576,9803.411904
1136.636727,-2604.031287,-1148.837332,8501.396260
1136.637030,612.713244,306.356622,9267.287815
1136.637333,4901.705952,459.534933,8501.396260
1136.637636,6739.845684,1838.139732,10186.357681
1136.637938,3906.046930,3676.279464,11641.551636
1136.638241,153.178311,3982.636086,12254.264880
1136.638544,-2067.907198,2910.387909,11182.016703
1136.638826,-6203.721595,1072.248177,9880.001059
1136.639129,-9037.520349,-2680.620442,10416.125148
1136.639431,-7965.272172,-6127.132440,11258.605858
1136.639734,-3369.922842,-8118.450483,11488.373325
1136.640037,3446.511997,-5361.240885,11641.551636
1136.640339,2986.977064,-3293.333686,11794.729947
1136.640642,2144.496354,-1302.015643,11641.551636
1136.640945,-229.767466,306.356622,10416.125148
1136.641234,-1761.550576,2910.387909,10033.179370
1136.641534,-2374.263820,3063.566220,9114.109504
1136.641833,1072.248177,3676.279464,8654.574571
1136.642132,4671.938485,4135.814397,9650.233593
1136.642431,8960.931193,6356.899906,9190.698660
1136.642730,7429.148083,7735.504705,10569.303459
1136.643030,3599.690308,5437.830040,10722.481770
1136.643329,-1608.372265,3216.744531,13326.513057
1136.643638,-4595.349330,1378.604799,10569.303459
1136.643936,-5284.651729,-76.589155,8807.752882
1136.644233,-4288.992708,-4671.938485,9573.644437
1136.644531,-2757.209598,-9037.520349,11794.729947
1136.644829,765.891555,-7965.272172,12943.567279
1136.645127,1378.604799,-4365.581863,12024.497413
1136.645424,-0.000000,-2374.263820,10722.481770
1136.645722,-2910.387909,-1608.372265,10722.481770
1136.646029,-4825.116796,-382.945777,9573.644437
1136.646330,-6050.543284,919.069866,9114.109504
1136.646630,-3982.636086,306.356622,8960.931193
1136.646931,2297.674665,-536.124088,9114.109504
1136.647231,7275.969772,-0.000000,9880.001059
1136.647532,9803.411904,2757.209598,10109.768526
1136.647833,5054.884263,1991.318043,10262.946837
1136.648133,1378.604799,1072.248177,10875.660081
1136.648430,-2757.209598,-2221.085509,10109.768526
1136.648729,-5437.830040,-4059.225241,9803.411904
1136.649027,-4978.295107,-7812.093861,9803.411904
1136.649326,-1455.193954,-8884.342038,9573.644437
1136.649625,4748.527641,-7199.380617,9803.411904
1136.649924,3599.690308,-4518.760174,11718.140791
1136.650223,765.891555,-1761.550576,12177.675724
1136.650521,-3829.457775,306.356622,12101.086569
1136.650816,-5744.186662,1991.318043,10416.125148
1136.651116,-8731.163727,3216.744531,10339.535992
1136.651417,-7122.791461,1991.318043,10262.946837
1136.651717,-995.659021,1684.961421,9343.876971
1136.652017,4212.403552,1684.961421,10645.892614
1136.652317,6739.845684,3063.566220,10722.481770
1136.652617,5208.062574,3829.457775,11335.195014
1136.652917,2527.442131,1684.961421,11641.551636
1136.653206,153.178311,1378.604799,10339.535992
1136.653506,-3216.744531,-382.945777,9114.109504
1136.653807,-3523.101153,-2221.085509,9114.109504
1136.654108,-536.124088,-5208.062574,10262.946837
1136.654409,2144.496354,-4671.938485,12024.497413
1136.654710,3599.690308,-1455.193954,11564.962480
1136.655010,919.069866,1072.248177,11947.908258
1136.655311,-2374.263820,1684.961421,11335.195014
1136.655620,-4978.295107,1838.139732,11564.962480
1136.655920,-6356.899906,2144.496354,10416.125148
1136.656219,-2757.209598,2604.031287,9497.055282
1136.656518,1838.139732,765.891555,8807.752882
1136.656818,7429.148083,1838.139732,9573.644437
1136.657117,7735.504705,1378.604799,9956.590215
1136.657417,4748.527641,765.891555,11794.729947
1136.657716,-382.945777,-1302.015643,11794.729947
1136.658023,-2604.031287,-2374.263820,9956.590215
1136.658321,-5897.364973,-4901.705952,8807.752882
1136.658619,-6203.721595,-5361.240885,9114.109504
1136.658917,-4748.527641,-7965.272172,10952.249236
1136.659216,306.356622,-7046.202306,11028.838392
1136.659514,3906.046930,-2680.620442,10492.714303
1136.659812,2374.263820,-76.589155,10875.660081
1136.660110,-1608.372265,153.178311,11335.195014
1136.660426,-2604.031287,765.891555,9956.590215
1136.660725,-2067.907198,1072.248177,8654.574571
1136.661023,-842.480710,-1148.837332,8501.396260
1136.661321,2297.674665,-3140.155375,8807.752882
1136.661620,7046.202306,-1914.728887,9114.109504
1136.661918,8195.039638,-1761.550576,10109.768526
1136.662217,3906.046930,-1761.550576,12101.086569
1136.662515,-1608.372265,-536.124088,12560.621502
1136.662830,-4135.814397,-76.589155,9956.590215
1136.663128,-5437.830040,-382.945777,9650.233593
1136.663427,-5131.473418,-1761.550576,9420.466126
1136.663726,-2221.085509,-2833.798753,9956.590215
1136.664024,2374.263820,-2527.442131,11028.838392
1136.664323,4365.581863,-1455.193954,11488.373325
1136.664622,1838.139732,153.178311,12484.032346
1136.664920,-2221.085509,919.069866,13173.334746
1136.665208,-3369.922842,1225.426488,11794.729947
1136.665508,-5437.830040,1838.139732,10722.481770
1136.665808,-4595.349330,306.356622,9573.644437
1136.666108,-1455.193954,306.356622,10262.946837
1136.666408,3906.046930,1225.426488,9956.590215
1136.666708,8348.217949,3216.744531,10186.357681
1136.667008,6127.132440,5284.651729,10569.303459
1136.667308,2986.977064,6356.899906,11794.729947
1136.667608,-0.000000,3982.636086,10875.660081
1136.667907,-2757.209598,2297.674665,10339.535992
1136.668206,-3982.636086,-1302.015643,9956.590215
1136.668505,-1761.550576,-3599.690308,9956.590215
1136.668805,919.069866,-4825.116796,11028.838392
1136.669104,4748.527641,-2833.798753,11182.016703
1136.669403,1378.604799,-1148.837332,11794.729947
1136.669702,-2067.907198,-995.659021,12407.443191
1136.670009,-5284.651729,-2221.085509,12407.443191
1136.670309,-7122.791461,-1914.728887,10722.481770
1136.670608,-6050.543284,-2067.907198,8960.931193
1136.670907,-2450.852976,-1455.193954,8654.574571
1136.671206,4365.581863,306.356622,9114.109504
1136.671505,9267.287815,2144.496354,8960.931193
1136.671805,7888.683016,4288.992708,10109.768526
1136.672104,2297.674665,2910.387909,11488.373325
1136.672424,-2067.907198,1072.248177,11182.016703
1136.672725,-3829.457775,-1608.372265,9267.287815
1136.673025,-5897.364973,-6280.310751,9573.644437
1136.673325,-3523.101153,-8731.163727,9497.055282
1136.673626,153.178311,-9650.233593,9420.466126
1136.673926,6127.132440,-6586.667373,10416.125148
1136.674226,4671.938485,-4825.116796,11182.016703
1136.674527,306.356622,-2833.798753,12101.086569
1136.674800,-1914.728887,-842.480710,11258.605858
1136.675100,-3063.566220,153.178311,9420.466126
1136.675400,-4978.295107,612.713244,9803.411904
1136.675700,-4748.527641,-1608.372265,9803.411904
1136.676000,306.356622,-1455.193954,10722.481770
1136.676300,5667.597507,1991.318043,10033.179370
1136.676600,7046.202306,4978.295107,9650.233593
1136.676900,919.069866,4135.814397,12254.264880
1136.677218,-3216.744531,3063.566220,12943.567279
1136.677513,-4748.527641,919.069866,10722.481770
1136.677808,-4595.349330,459.534933,9573.644437
1136.678103,-4442.171019,-3906.046930,9420.466126
1136.678399,-0.000000,-6433.489062,9880.001059
1136.678694,5208.062574,-4518.760174,11028.838392
1136.678989,5973.954129,-3140.155375,11947.908258
1136.679284,153.178311,-3599.690308,13862.637145
1136.679584,-2757.209598,-76.589155,13862.637145
1136.679885,-2757.209598,2757.209598,10569.303459
1136.680186,-1608.372265,6510.078217,7582.326394
1136.680487,-842.480710,6356.899906,8041.861327
1136.680787,612.713244,4288.992708,9114.109504
1136.681088,4671.938485,4288.992708,9650.233593
1136.681389,4365.581863,3523.101153,11794.729947
1136.681690,765.891555,1684.961421,12101.086569
1136.681997,-1914.728887,-1761.550576,11182.016703
1136.682298,-4288.992708,-2221.085509,10875.660081
1136.682599,-3982.636086,-5054.884263,8960.931193
1136.682900,-3216.744531,-7046.202306,9956.590215
1136.683200,-0.000000,-8884.342038,10033.179370
1136.683501,4365.581863,-6433.489062,9956.590215
1136.683802,6739.845684,-2833.798753,10109.768526
1136.684103,3293.333686,459.534933,11028.838392
1136.684383,-842.480710,153.178311,10569.303459
1136.684683,-4288.992708,1378.604799,10569.303459
1136.684983,-6356.899906,-0.000000,9956.590215
1136.685283,-4825.116796,-0.000000,9803.411904
1136.685583,-536.124088,-995.659021,9650.233593
1136.685882,5820.775818,1225.426488,10109.768526
1136.686182,8654.574571,1531.783110,9573.644437
1136.686482,5054.884263,1684.961421,10722.481770
1136.686799,-76.589155,-229.767466,11947.908258
1136.687098,-2604.031287,-2527.442131,11488.373325
1136.687397,-4748.527641,-5514.419196,9956.590215
1136.687696,-5131.473418,-7199.380617,10109.768526
1136.687995,-3523.101153,-9037.520349,10109.768526
1136.688294,-0.000000,-6280.310751,11335.195014
1136.688594,2527.442131,-2374.263820,11335.195014
1136.688893,1072.248177,612.713244,12101.086569
1136.689210,-2910.387909,3369.922842,12943.567279
1136.689508,-3676.279464,5744.186662,11028.838392
1136.689806,-2757.209598,6203.721595,8577.985416
1136.690103,-2374.263820,3523.101153,8807.752882
1136.690401,612.713244,1531.783110,10722.481770
1136.690699,5208.062574,-0.000000,9803.411904
1136.690997,8654.574571,1072.248177,9803.411904
1136.691295,6893.023995,306.356622,10262.946837
1136.691595,1991.318043,-229.767466,11488.373325
1136.691894,-1302.015643,-2067.907198,11794.729947
1136.692193,-3369.922842,-2067.907198,9573.644437
1136.692492,-3216.744531,-2986.977064,8807.752882
1136.692791,-3982.636086,-4518.760174,10109.768526
1136.693090,-995.659021,-4365.581863,11488.373325
1136.693389,1991.318043,-229.767466,12407.443191
1136.693688,1991.318043,2450.852976,10569.303459
1136.693974,-2221.085509,3829.457775,12101.086569
1136.694277,-4825.116796,4288.992708,11718.140791
1136.694580,-3829.457775,4135.814397,10569.303459
1136.694882,-3369.922842,1378.604799,8501.396260
1136.695185,-842.480710,-842.480710,9114.109504
1136.695488,3599.690308,-2221.085509,9803.411904
1136.695791,7429.148083,-1302.015643,9650.233593
1136.696093,7046.202306,-689.302399,10416.125148
1136.696400,2297.674665,-1455.193954,11182.016703
1136.696698,-1148.837332,-3293.333686,11335.195014
1136.696995,-2450.852976,-2986.977064,9114.109504
1136.697292,-3216.744531,-4365.581863,8501.396260
1136.697589,-3216.744531,-7812.093861,9037.520349
1136.697886,-3523.101153,-9190.698660,12790.388968
1136.698183,1072.248177,-5820.775818,13403.102212
1136.698481,3293.333686,-229.767466,10109.768526
1136.698777,919.069866,1838.139732,10262.946837
1136.699078,-2604.031287,1378.604799,11182.016703
1136.699379,-4595.349330,1991.318043,9956.590215
1136.699680,-2604.031287,1378.604799,9267.287815
1136.699981,-995.659021,-1608.372265,8807.752882
1136.700283,-0.000000,-4518.760174,10262.946837
1136.700584,2374.263820,-3446.511997,12254.264880
1136.700885,4671.938485,765.891555,10875.660081
1136.701180,3140.155375,1991.318043,10416.125148
1136.701480,-842.480710,1531.783110,11488.373325
1136.701781,-3829.457775,153.178311,10569.303459
1136.702082,-3523.101153,1991.318043,9880.001059
1136.702383,-1455.193954,-382.945777,10033.179370
1136.702684,-76.589155,-2833.798753,9803.411904
1136.702985,2680.620442,-1761.550576,11794.729947
1136.703286,2680.620442,1225.426488,12101.086569
1136.703574,459.534933,2757.209598,11488.373325
1136.703875,-3369.922842,3063.566220,12943.567279
1136.704176,-3063.566220,3063.566220,10569.303459
1136.704476,-2757.209598,3369.922842,9803.411904
1136.704777,-995.659021,1838.139732,8960.931193
1136.705078,2527.442131,612.713244,9650.233593
1136.705379,6586.667373,2450.852976,10262.946837
1136.705680,8654.574571,5284.651729,9497.055282
1136.705966,3140.155375,3063.566220,9803.411904
1136.706268,-3523.101153,306.356622,12254.264880
1136.706571,-6356.899906,-1914.728887,11182.016703
1136.706874,-4748.527641,-1761.550576,8654.574571
1136.707176,-4135.814397,-5361.240885,8807.752882
1136.707479,-1761.550576,-7812.093861,9650.233593
1136.707782,2144.496354,-5208.062574,10875.660081
1136.708084,4059.225241,-3140.155375,10722.481770
1136.708391,1838.139732,-2833.798753,11794.729947
1136.708691,-3523.101153,-3140.155375,12407.443191
1136.708991,-3523.101153,-1608.372265,10109.768526
1136.709290,-2450.852976,-382.945777,7505.737239
1136.709590,-1608.372265,-2221.085509,8654.574571
1136.709890,1531.783110,-4365.581863,10416.125148
1136.710189,5667.597507,-689.302399,10416.125148
1136.710489,7735.504705,1684.961421,10416.125148
1136.710786,3140.155375,2910.387909,10416.125148
1136.711083,-842.480710,919.069866,10416.125148
1136.711380,-2910.387909,765.891555,9956.590215
1136.711678,-6203.721595,-3906.046930,9650.233593
1136.711975,-7658.915550,-6739.845684,11182.016703
1136.712273,-4442.171019,-8424.807105,10875.660081
1136.712570,765.891555,-7658.915550,11335.195014
1136.712867,3599.690308,-4901.705952,12407.443191
1136.713182,2680.620442,-76.589155,11718.140791
1136.713480,-842.480710,1072.248177,12560.621502
1136.713779,-1761.550576,2450.852976,10339.535992
1136.714078,-1148.837332,3829.457775,8041.861327
1136.714377,-76.589155,4135.814397,8960.931193
1136.714675,2144.496354,2910.387909,8577.985416
1136.714974,5667.597507,3216.744531,9956.590215
1136.715273,4365.581863,2604.031287,12177.675724
1136.715561,1072.248177,3676.279464,13403.102212
1136.715861,-2221.085509,4135.814397,12713.799813
1136.716161,-2450.852976,3523.101153,9420.466126
1136.716461,-3063.566220,1225.426488,9267.287815
1136.716761,-3369.922842,-2221.085509,9573.644437
1136.717061,-1148.837332,-3140.155375,9573.644437
1136.717361,3446.511997,-4901.705952,11028.838392
1136.717661,3140.155375,-4901.705952,12713.799813
1136.717961,2297.674665,-2221.085509,11641.551636
1136.718261,-382.945777,765.891555,10492.714303
1136.718561,-1148.837332,919.069866,10186.357681
1136.718861,-3216.744531,1072.248177,9420.466126
1136.719161,-3982.636086,919.069866,9420.466126
1136.719461,-842.480710,2450.852976,9803.411904
1136.719761,3446.511997,3216.744531,9114.109504
1136.720061,5667.597507,4595.349330,10416.125148
1136.720402,2986.977064,3523.101153,11028.838392
1136.720696,-842.480710,1991.318043,11794.729947
1136.720991,-2374.263820,-1455.193954,10875.660081
1136.721285,-3369.922842,-4671.938485,9573.644437
1136.721579,-3523.101153,-9343.876971,9573.644437
1136.721874,-842.480710,-10645.892614,9803.411904
1136.722168,2833.798753,-11564.962480,11488.373325
1136.722463,5667.597507,-8271.628794,11028.838392
1136.722783,3752.868619,-3446.511997,10799.070925
1136.723080,-1148.837332,-1148.837332,12024.497413
1136.723377,-5131.473418,-1302.015643,11488.373325
1136.723674,-6663.256528,1378.604799,11028.838392
1136.723971,-4442.171019,1684.961421,9037.520349
1136.724268,-1148.837332,765.891555,9573.644437
1136.724565,2986.977064,919.069866,10875.660081
1136.724862,6893.023995,3523.101153,10875.660081
1136.725181,6127.132440,4748.527641,10722.481770
1136.725479,1991.318043,3829.457775,11105.427547
1136.725778,-2450.852976,306.356622,11794.729947
1136.726076,-5591.008351,-2680.620442,9956.590215
1136.726374,-5437.830040,-4825.116796,9190.698660
1136.726672,-2450.852976,-8118.450483,9650.233593
1136.726970,-0.000000,-8884.342038,11028.838392
1136.727269,4365.581863,-5208.062574,11488.373325
1136.727582,3446.511997,-76.589155,11641.551636
1136.727878,1072.248177,3829.457775,12101.086569
1136.728174,-536.124088,6663.256528,10109.768526
1136.728470,-1455.193954,7735.504705,9114.109504
1136.728766,-2067.907198,7735.504705,9267.287815
1136.729062,-1455.193954,5131.473418,8731.163727
1136.729358,2527.442131,4748.527641,9267.287815
1136.729654,5820.775818,3216.744531,10186.357681
1136.729953,3752.868619,4135.814397,11794.729947
1136.730253,-76.589155,1838.139732,11182.016703
1136.730552,-2757.209598,919.069866,11028.838392
1136.730852,-4825.116796,-3140.155375,9650.233593
1136.731151,-7658.915550,-5820.775818,10262.946837
1136.731451,-5591.008351,-8577.985416,10722.481770
1136.731751,-536.124088,-8577.985416,9803.411904
1136.732050,5514.419196,-5973.954129,9573.644437
1136.732391,5208.062574,-2374.263820,10722.481770
1136.732687,-689.302399,-2374.263820,13020.156435
1136.732983,-3063.566220,-689.302399,13403.102212
1136.733279,-2604.031287,1072.248177,9420.466126
1136.733575,-2374.263820,765.891555,8195.039638
1136.733872,-1302.015643,-1302.015643,8348.217949
1136.734168,4518.760174,-689.302399,8960.931193
1136.734464,8501.396260,306.356622,9956.590215
1136.734749,7046.202306,612.713244,11028.838392
1136.735052,1225.426488,-229.767466,12101.086569
1136.735355,-2067.907198,-382.945777,10569.303459
1136.735657,-5897.364973,-4518.760174,10109.768526
1136.735960,-8731.163727,-7046.202306,10416.125148
1136.736263,-7199.380617,-8118.450483,10569.303459
1136.736566,-229.767466,-7199.380617,9497.055282
1136.736868,4748.527641,-4901.705952,9956.590215
1136.737187,3599.690308,-1148.837332,12254.264880
1136.737482,153.178311,1991.318043,12407.443191
1136.737777,-2067.907198,4442.171019,11641.551636
1136.738073,-3369.922842,6050.543284,10109.768526
1136.738368,-5284.651729,3982.636086,9267.287815
1136.738663,-3829.457775,3063.566220,9267.287815
1136.738958,2527.442131,1531.783110,9650.233593
1136.739254,8960.931193,1991.318043,10109.768526
1136.739571,11335.195014,3676.279464,10262.946837
1136.739869,7582.326394,7122.791461,10416.125148
1136.740168,3446.511997,6203.721595,9650.233593
1136.740467,-689.302399,3676.279464,9803.411904
1136.740765,-7352.558928,-536.124088,10569.303459
1136.741064,-8884.342038,-2833.798753,10722.481770
1136.741362,-7199.380617,-4671.938485,11335.195014
1136.741661,-2450.852976,-5514.419196,12254.264880
1136.741961,306.356622,-2067.907198,12790.388968
1136.742261,1072.248177,2144.496354,12560.621502
1136.742561,-1761.550576,3063.566220,11794.729947
1136.742861,-3063.566220,2910.387909,10416.125148
1136.743161,-2604.031287,1531.783110,8501.396260
1136.743461,-382.945777,-76.589155,8348.217949
1136.743761,2680.620442,-3140.155375,8807.752882
1136.744061,8960.931193,-3599.690308,9420.466126
1136.744402,10109.768526,-2833.798753,9956.590215
1136.744693,7275.969772,-0.000000,10109.768526
1136.744983,459.534933,-842.480710,11564.962480
1136.745274,-4978.295107,-2221.085509,11028.838392
1136.745565,-7199.380617,-2986.977064,9497.055282
1136.745855,-9573.644437,-5514.419196,9956.590215
1136.746146,-8118.450483,-8271.628794,11028.838392
1136.746437,-1148.837332,-8424.807105,12024.497413
1136.746744,4365.581863,-4825.116796,11488.373325
1136.747045,4212.403552,-3599.690308,10186.357681
1136.747346,-689.302399,-2067.907198,12560.621502
1136.747648,-382.945777,-229.767466,11182.016703
1136.747949,-842.480710,765.891555,7888.683016
1136.748250,-382.945777,-689.302399,7122.791461
1136.748552,612.713244,-1914.728887,9343.876971
1136.748853,4059.225241,-2221.085509,9956.590215
1136.749136,8348.217949,1684.961421,9803.411904
1136.749436,5361.240885,3369.922842,11182.016703
1136.749736,-2450.852976,3063.566220,13403.102212
1136.750035,-6663.256528,2910.387909,13249.923901
1136.750335,-6510.078217,2910.387909,9573.644437
1136.750635,-5437.830040,612.713244,7812.093861
1136.750934,-3216.744531,-2527.442131,10569.303459
1136.751234,1838.139732,-2067.907198,10569.303459
1136.751561,8654.574571,306.356622,11182.016703
1136.751858,6586.667373,306.356622,12713.799813
1136.752154,1072.248177,612.713244,12330.854035
1136.752450,-2374.263820,1072.248177,11411.784169
1136.752746,-4748.527641,2297.674665,9573.644437
1136.753043,-5591.008351,1225.426488,9267.287815
1136.753339,-4135.814397,-76.589155,9880.001059
1136.753635,2297.674665,1531.783110,10109.768526
1136.753947,7735.504705,4825.116796,10875.660081
1136.754247,6739.845684,6816.434839,10569.303459
1136.754547,2297.674665,6203.721595,10875.660081
1136.754847,-1761.550576,5591.008351,10875.660081
1136.755147,-4135.814397,2297.674665,9650.233593
1136.755446,-5897.364973,-2986.977064,8807.752882
1136.755746,-5897.364973,-7965.272172,10033.179370
1136.756046,-2450.852976,-10339.535992,11488.373325
1136.756348,3752.868619,-10952.249236,11182.016703
1136.756648,3906.046930,-8271.628794,11794.729947
1136.756947,1531.783110,-4901.705952,10645.892614
1136.757247,-2374.263820,-3446.511997,10799.070925
1136.757546,-4595.349330,-2374.263820,9650.233593
1136.757846,-4825.116796,-842.480710,9420.466126
1136.758145,-2221.085509,-1302.015643,8960.931193
1136.758445,4059.225241,-842.480710,8195.039638
1136.758751,7888.683016,153.178311,10569.303459
1136.759051,7582.326394,2910.387909,11641.551636
1136.759351,4518.760174,4135.814397,11182.016703
1136.759651,919.069866,4748.527641,11182.016703
1136.759951,-5131.473418,1378.604799,9650.233593
1136.760250,-7658.915550,-1148.837332,9114.109504
1136.760550,-8118.450483,-6127.132440,9573.644437
1136.760850,-5591.008351,-11411.784169,12943.567279
1136.761180,459.534933,-11411.784169,12560.621502
1136.761474,4748.527641,-6586.667373,11871.319102
1136.761768,4059.225241,-2527.442131,11182.016703
1136.762062,1072.248177,-0.000000,10722.481770
1136.762356,-842.480710,2144.496354,10186.357681
1136.762650,-1761.550576,6356.899906,8195.039638
1136.762944,-995.659021,5744.186662,8195.039638
1136.763238,1531.783110,4748.527641,9650.233593
1136.763566,6739.845684,6663.256528,9803.411904
1136.763861,7275.969772,7735.504705,11182.016703
1136.764157,2374.263820,7429.148083,12101.086569
1136.764452,-2374.263820,4595.349330,11182.016703
1136.764748,-7199.380617,2604.031287,11794.729947
1136.765043,-7505.737239,153.178311,10262.946837
1136.765339,-6969.613150,-3293.333686,9114.109504
1136.765634,-2067.907198,-6586.667373,10186.357681
1136.765946,2144.496354,-6739.845684,11641.551636
1136.766244,3906.046930,-5054.884263,11488.373325
1136.766541,2986.977064,-2527.442131,12254.264880
1136.766838,-1455.193954,-2221.085509,12407.443191
1136.767136,-2604.031287,1072.248177,10033.179370
1136.767433,-1608.372265,1838.139732,6280.310751
1136.767731,-382.945777,3216.744531,7275.969772
1136.768028,2527.442131,153.178311,8807.752882
1136.768328,6739.845684,459.534933,9573.644437
1136.768628,8041.861327,1378.604799,10262.946837
1136.768928,4365.581863,1225.426488,11641.551636
1136.769228,-1302.015643,-1608.372265,11641.551636
1136.769528,-5897.364973,-2986.977064,11335.195014
1136.769828,-7965.272172,-6893.023995,9573.644437
1136.770128,-9343.876971,-10492.714303,11335.195014
1136.770428,-5897.364973,-13096.745590,11028.838392
1136.770735,2527.442131,-10645.892614,9956.590215
1136.771033,4059.225241,-5820.775818,11794.729947
1136.771331,3752.868619,-2680.620442,12254.264880
1136.771629,153.178311,919.069866,12024.497413
1136.771927,-382.945777,4442.171019,10109.768526
1136.772225,-2910.387909,4748.527641,7888.683016
1136.772524,-2757.209598,2910.387909,8424.807105
1136.772822,765.891555,1072.248177,9956.590215
1136.773138,7888.683016,612.713244,9956.590215
1136.773439,10262.946837,1378.604799,11028.838392
1136.773740,7582.326394,2450.852976,11335.195014
1136.774041,2680.620442,2604.031287,10875.660081
1136.774342,-4978.295107,-0.000000,11488.373325
1136.774643,-10799.070925,-2374.263820,12330.854035
1136.774944,-11564.962480,-4059.225241,11028.838392
1136.775245,-7352.558928,-4212.403552,10416.125148
1136.775560,-2910.387909,-4212.403552,11794.729947
1136.775856,2986.977064,-76.589155,12101.086569
1136.776152,4748.527641,4288.992708,11335.195014
1136.776449,4748.527641,7582.326394,10416.125148
1136.776745,1072.248177,6663.256528,9956.590215
1136.777041,-1302.015643,6356.899906,9267.287815
1136.777337,306.356622,3063.566220,8041.861327
1136.777634,3599.690308,306.356622,8041.861327
1136.777922,8041.861327,-1914.728887,8654.574571
1136.778222,8501.396260,-2527.442131,11182.016703
1136.778522,6127.132440,-1914.728887,11488.373325
1136.778822,-0.000000,-995.659021,11641.551636
1136.779122,-6356.899906,-2680.620442,10875.660081
1136.779421,-12254.264880,-3906.046930,10722.481770
1136.779721,-14092.404612,-5054.884263,11182.016703
1136.780021,-10645.892614,-4901.705952,11488.373325
1136.780321,-2910.387909,-4671.938485,11641.551636
1136.780620,3752.868619,-2833.798753,11182.016703
1136.780919,8348.217949,612.713244,10722.481770
1136.781218,7735.504705,1225.426488,10109.768526
1136.781518,5054.884263,612.713244,9956.590215
1136.781817,1378.604799,-842.480710,8577.985416
1136.782116,-995.659021,-2986.977064,7658.915550
1136.782415,306.356622,-5820.775818,8654.574571
1136.782723,3446.511997,-7658.915550,9114.109504
1136.783023,5054.884263,-6586.667373,11335.195014
1136.783323,2680.620442,-3293.333686,12790.388968
1136.783623,-2221.085509,-1914.728887,13249.923901
1136.783923,-5131.473418,1531.783110,11182.016703
1136.784223,-8271.628794,2450.852976,9726.822748
1136.784523,-11718.140791,1072.248177,10569.303459
1136.784823,-7199.380617,-995.659021,10416.125148
1136.785143,459.534933,-1761.550576,10109.768526
1136.785443,8041.861327,-536.124088,9803.411904
1136.785744,7888.683016,-76.589155,11335.195014
1136.786044,5973.954129,459.534933,11488.373325
1136.786345,3906.046930,2450.852976,10109.768526
1136.786645,-536.124088,459.534933,8807.752882
1136.786945,-5591.008351,459.534933,9190.698660
1136.787246,-4825.116796,-2221.085509,9880.001059
1136.787564,-229.767466,-2067.907198,10416.125148
1136.787858,6280.310751,459.534933,10416.125148
1136.788152,5820.775818,5437.830040,11564.962480
1136.788445,1378.604799,6356.899906,12407.443191
1136.788739,-2757.209598,7275.969772,12254.264880
1136.789032,-5284.651729,7735.504705,10416.125148
1136.789326,-7658.915550,7122.791461,10033.179370
1136.789619,-7658.915550,1531.783110,10109.768526
1136.789885,-1608.372265,-1455.193954,10875.660081
1136.790189,5054.884263,-2067.907198,11182.016703
1136.790493,5973.954129,-3599.690308,11182.016703
1136.790797,4748.527641,-3599.690308,10875.660081
1136.791101,459.534933,-3906.046930,10569.303459
1136.791405,-3523.101153,-5973.954129,10109.768526
1136.791709,-5744.186662,-5054.884263,9726.822748
1136.792014,-3523.101153,-4901.705952,8654.574571
1136.792313,1531.783110,-4671.938485,9420.466126
1136.792614,5667.597507,-2221.085509,9650.233593
1136.792915,6586.667373,612.713244,10109.768526
1136.793216,3906.046930,3523.101153,11335.195014
1136.793516,-1914.728887,1684.961421,12254.264880
1136.793817,-6203.721595,2757.209598,10875.660081
1136.794118,-8424.807105,153.178311,8960.931193
1136.794419,-6816.434839,-2680.620442,9803.411904
1136.794726,-2450.852976,-8731.163727,10416.125148
1136.795023,3906.046930,-9497.055282,10799.070925
1136.795320,7122.791461,-9190.698660,10875.660081
1136.795617,5054.884263,-6127.132440,11105.427547
1136.795913,1531.783110,-5667.597507,11488.373325
1136.796210,-1455.193954,-3140.155375,10416.125148
1136.796507,-3982.636086,153.178311,8884.342038
1136.796804,-4595.349330,1378.604799,9114.109504
1136.797112,-1302.015643,765.891555,9497.055282
1136.797411,3906.046930,2910.387909,11182.016703
1136.797710,7275.969772,5591.008351,11488.373325
1136.798009,4748.527641,7582.326394,10339.535992
1136.798308,-382.945777,6356.899906,12407.443191
1136.798607,-4135.814397,5744.186662,11488.373325
1136.798906,-7199.380617,2604.031287,10722.481770
1136.799205,-7505.737239,-536.124088,10109.768526
1136.799522,-3829.457775,-4212.403552,10109.768526
1136.799821,2680.620442,-6127.132440,10875.660081
1136.800120,6739.845684,-4671.938485,10645.892614
1136.800419,5361.240885,-3293.333686,12254.264880
1136.800718,919.069866,-1608.372265,13249.923901
1136.801018,-1608.372265,1225.426488,11028.838392
1136.801317,-2604.031287,4288.992708,7429.148083
1136.801616,-4748.527641,4135.814397,8041.861327
1136.801933,-2757.209598,2910.387909,9420.466126
1136.802231,3140.155375,2450.852976,10262.946837
1136.802529,6433.489062,4978.295107,10875.660081
1136.802827,4901.705952,3216.744531,11182.016703
1136.803125,765.891555,2144.496354,11258.605858
1136.803422,-1608.372265,-995.659021,9956.590215
1136.803720,-5591.008351,-3752.868619,9420.466126
1136.804018,-7658.915550,-8118.450483,9803.411904
1136.804318,-5284.651729,-10952.249236,10339.535992
1136.804618,612.713244,-12637.210657,10416.125148
1136.804918,6280.310751,-7965.272172,11182.016703
1136.805218,5667.597507,-5820.775818,10722.481770
1136.805518,1531.783110,-1761.550576,11794.729947
1136.805818,-842.480710,765.891555,10262.946837
1136.806118,-5284.651729,3829.457775,8960.931193
1136.806418,-6203.721595,3676.279464,8501.396260
1136.806709,-4442.171019,2144.496354,10262.946837
1136.807007,1838.139732,-229.767466,9803.411904
1136.807306,8348.217949,459.534933,10875.660081
1136.807605,8960.931193,765.891555,10645.892614
1136.807903,6127.132440,1225.426488,9956.590215
1136.808202,153.178311,-2527.442131,10722.481770
1136.808501,-7352.558928,-4901.705952,11488.373325
1136.808800,-9726.822748,-6586.667373,11182.016703
1136.809107,-7658.915550,-6893.023995,9956.590215
1136.809411,-3676.279464,-8884.342038,10722.481770
1136.809716,1225.426488,-5820.775818,11794.729947
1136.810021,3752.868619,612.713244,12407.443191
1136.810325,3906.046930,4288.992708,11335.195014
1136.810630,1531.783110,6356.899906,10416.125148
1136.810935,-2604.031287,7888.683016,9956.590215
1136.811239,-4595.349330,8654.574571,9420.466126
1136.811556,-1455.193954,4978.295107,8807.752882
1136.811849,2986.977064,2297.674665,9956.590215
1136.812143,9420.466126,1072.248177,10033.179370
1136.812436,9420.466126,1684.961421,10875.660081
1136.812730,5973.954129,459.534933,10569.303459
1136.813023,1531.783110,-842.480710,11258.605858
1136.813316,-4288.992708,-2986.977064,10109.768526
1136.813610,-8731.163727,-2680.620442,10492.714303
1136.813905,-9573.644437,-4518.760174,10033.179370
1136.814205,-5284.651729,-5054.884263,10262.946837
1136.814506,-536.124088,-4365.581863,12560.621502
1136.814807,2297.674665,-689.302399,11641.551636
1136.815108,2297.674665,2144.496354,11182.016703
1136.815409,765.891555,3982.636086,10722.481770
1136.815710,-1608.372265,2604.031287,9803.411904
1136.816011,-2757.209598,3369.922842,9267.287815
1136.816322,-1914.728887,306.356622,8195.039638
1136.816620,3140.155375,-3293.333686,8501.396260
1136.816917,7275.969772,-3752.868619,9650.233593
1136.817215,7888.683016,-4365.581863,10875.660081
1136.817512,4212.403552,-4901.705952,11335.195014
1136.817809,-1761.550576,-6586.667373,11411.784169
1136.818107,-6050.543284,-7199.380617,11028.838392
1136.818404,-9880.001059,-5208.062574,10416.125148
1136.818713,-8424.807105,-4825.116796,9803.411904
1136.819013,-2374.263820,-5208.062574,10262.946837
1136.819312,3599.690308,-3752.868619,10569.303459
1136.819611,6280.310751,153.178311,12407.443191
1136.819911,4518.760174,1684.961421,11258.605858
1136.820210,2374.263820,2757.209598,10569.303459
1136.820510,-1302.015643,3369.922842,10262.946837
1136.820809,-5437.830040,3676.279464,8960.931193
1136.821116,-5591.008351,765.891555,9803.411904
1136.821416,-1914.728887,-2986.977064,10339.535992
1136.821716,5514.419196,-2221.085509,11028.838392
1136.822015,7122.791461,-1302.015643,10569.303459
1136.822315,5514.419196,1991.318043,10033.179370
1136.822615,1378.604799,919.069866,11641.551636
1136.822914,-2374.263820,1684.961421,10875.660081
1136.823214,-6050.543284,1531.783110,9497.055282
1136.823510,-7812.093861,1378.604799,9343.876971
1136.823809,-4825.116796,-2221.085509,10033.179370
1136.824108,765.891555,-2986.977064,12484.032346
1136.824407,5820.775818,-382.945777,11871.319102
1136.824706,7122.791461,3676.279464,10799.070925
1136.825005,3446.511997,3982.636086,10262.946837
1136.825304,153.178311,3523.101153,10722.481770
1136.825602,-5897.364973,2297.674665,10109.768526
1136.825897,-5284.651729,2144.496354,10416.125148
1136.826196,-2221.085509,-995.659021,9956.590215
1136.826496,4365.581863,-1761.550576,9037.520349
1136.826795,6893.023995,-842.480710,11182.016703
1136.827094,5054.884263,1225.426488,11028.838392
1136.827394,1838.139732,765.891555,11794.729947
1136.827693,-1608.372265,306.356622,10875.660081
1136.827992,-5897.364973,-689.302399,9420.466126
1136.828304,-8577.985416,-3752.868619,9267.287815
1136.828600,-6969.613150,-6739.845684,10109.768526
1136.828897,-842.480710,-9190.698660,11718.140791
1136.829194,5514.419196,-6433.489062,11182.016703
1136.829490,6433.489062,-3446.511997,10722.481770
1136.829787,2986.977064,-3140.155375,10875.660081
1136.830083,-382.945777,-3599.690308,10952.249236
1136.830380,-1914.728887,-229.767466,9956.590215
1136.830680,-2910.387909,-842.480710,8041.861327
1136.830982,-1761.550576,-2221.085509,9267.287815
1136.831284,4212.403552,-3906.046930,9573.644437
1136.831586,7735.504705,-995.659021,11335.195014
1136.831888,7122.791461,459.534933,10186.357681
1136.832190,1378.604799,1991.318043,10492.714303
1136.832492,-4595.349330,1225.426488,10339.535992
1136.832794,-8884.342038,1072.248177,10569.303459
1136.833101,-10952.249236,-995.659021,10722.481770
1136.833398,-7122.791461,-2986.977064,10416.125148
1136.833694,-536.124088,-5361.240885,9956.590215
1136.833991,6433.489062,-2833.798753,10109.768526
1136.834287,7275.969772,-2527.442131,12101.086569
1136.834584,4365.581863,-2374.263820,13632.869679
1136.834881,-0.000000,-842.480710,12101.086569
1136.835177,-1455.193954,2297.674665,9573.644437
1136.835498,-3829.457775,4595.349330,7888.683016
1136.835795,-2067.907198,2910.387909,9420.466126
1136.836092,2833.798753,3216.744531,10262.946837
1136.836389,7122.791461,5131.473418,9956.590215
1136.836686,6586.667373,7582.326394,11182.016703
1136.836983,919.069866,5744.186662,11794.729947
1136.837280,-2221.085509,4595.349330,12560.621502
1136.837577,-5437.830040,3063.566220,10799.070925
1136.837896,-7199.380617,765.891555,9726.822748
1136.838194,-5437.830040,-4212.403552,9573.644437
1136.838492,-1608.372265,-7046.202306,10339.535992
1136.838790,4365.581863,-8271.628794,11718.140791
1136.839089,4518.760174,-6739.845684,12713.799813
1136.839387,2527.442131,-5208.062574,11258.605858
1136.839685,-382.945777,-2833.798753,10569.303459
1136.839983,-2450.852976,-382.945777,8195.039638
1136.840296,-5131.473418,1684.961421,9420.466126
1136.840595,-4288.992708,306.356622,9420.466126
1136.840893,765.891555,1225.426488,9573.644437
1136.841192,7122.791461,2604.031287,9956.590215
1136.841490,10416.125148,4825.116796,9037.520349
1136.841789,7429.148083,2757.209598,9267.287815
1136.842087,-229.767466,765.891555,11335.195014
1136.842386,-6050.543284,-3446.511997,11335.195014
1136.842708,-9726.822748,-5208.062574,10875.660081
1136.843006,-7965.272172,-9880.001059,9573.644437
1136.843303,-5437.830040,-12637.210657,11258.605858
1136.843600,-76.589155,-12637.210657,12254.264880
1136.843898,4748.527641,-6739.845684,11794.729947
1136.844195,4671.938485,-4212.403552,11182.016703
1136.844493,1378.604799,-1608.372265,11488.373325
1136.844790,-2374.263820,1531.783110,9803.411904
1136.845097,-2604.031287,5437.830040,8424.807105
1136.845394,-382.945777,5897.364973,8041.861327
1136.845691,2833.798753,4442.171019,9573.644437
1136.845988,7046.202306,4748.527641,9650.233593
1136.846285,8807.752882,6663.256528,10416.125148
1136.846582,4671.938485,5284.651729,11258.605858
1136.846879,-2604.031287,306.356622,12790.388968
1136.847176,-8118.450483,-3140.155375,12790.388968
1136.847490,-9573.644437,-2986.977064,10262.946837
1136.847792,-9037.520349,-5208.062574,9420.466126
1136.848095,-5744.186662,-9037.520349,11028.838392
1136.848398,459.534933,-7812.093861,12560.621502
1136.848701,6127.132440,-3293.333686,11641.551636
1136.849003,7275.969772,1531.783110,10875.660081
1136.849306,4901.705952,3829.457775,10262.946837
1136.849609,1378.604799,6050.543284,10492.714303
1136.849882,-0.000000,8195.039638,8501.396260
1136.850185,1378.604799,9114.109504,7275.969772
1136.850487,1684.961421,5131.473418,7735.504705
1136.850790,3752.868619,3523.101153,9650.233593
1136.851093,4748.527641,2450.852976,11488.373325
1136.851395,-76.589155,459.534933,13249.923901
1136.851698,-4135.814397,-4365.581863,13249.923901
1136.852000,-8424.807105,-4059.225241,12713.799813
1136.852318,-9343.876971,-4825.116796,9190.698660
1136.852613,-9573.644437,-6280.310751,9803.411904
1136.852908,-6050.543284,-9343.876971,10262.946837
1136.853203,1225.426488,-8731.163727,11105.427547
1136.853499,6739.845684,-5667.597507,10416.125148
1136.853794,7582.326394,-2986.977064,9956.590215
1136.854089,5667.597507,-995.659021,10722.481770
1136.854384,3906.046930,459.534933,9956.590215
1136.854684,306.356622,1378.604799,8424.807105
1136.854982,-1148.837332,1838.139732,6663.256528
1136.855279,-1455.193954,153.178311,9037.520349
1136.855577,1531.783110,-2374.263820,10799.070925
1136.855874,3293.333686,-1608.372265,12713.799813
1136.856172,1378.604799,-842.480710,12254.264880
1136.856469,-995.659021,-1302.015643,12330.854035
1136.856766,-4748.527641,-2680.620442,11488.373325
1136.857097,-7122.791461,-2833.798753,9803.411904
1136.857394,-8424.807105,-3752.868619,10262.946837
1136.857691,-6050.543284,-5667.597507,10109.768526
1136.857987,919.069866,-6739.845684,10722.481770
1136.858284,6586.667373,-3140.155375,11947.908258
1136.858581,8041.861327,-76.589155,11028.838392
1136.858878,7122.791461,4595.349330,10109.768526
1136.859175,2986.977064,4288.992708,9267.287815
1136.859483,-2604.031287,5131.473418,10109.768526
1136.859783,-5131.473418,3676.279464,10109.768526
1136.860083,-2450.852976,2910.387909,9497.055282
1136.860383,2833.798753,-689.302399,10109.768526
1136.860682,4212.403552,1531.783110,12101.086569
1136.860982,4365.581863,3216.744531,11641.551636
1136.861282,1838.139732,4825.116796,12560.621502
1136.861582,-2374.263820,2144.496354,11947.908258
1136.861865,-6816.434839,3063.566220,10416.125148
1136.862168,-7505.737239,1991.318043,8884.342038
1136.862471,-5437.830040,306.356622,8960.931193
1136.862774,-1455.193954,-4518.760174,10722.481770
1136.863077,2144.496354,-4365.581863,13096.745590
1136.863380,5667.597507,-1761.550576,11182.016703
1136.863682,4671.938485,-382.945777,9190.698660
1136.863985,1531.783110,-1608.372265,9956.590215
1136.864267,-2450.852976,-2221.085509,9956.590215
1136.864569,-2757.209598,-1455.193954,8501.396260
1136.864871,765.891555,-2680.620442,7888.683016
1136.865173,3752.868619,-4671.938485,9190.698660
1136.865475,7122.791461,-2833.798753,11335.195014
1136.865777,7275.969772,-0.000000,11488.373325
1136.866079,2144.496354,1378.604799,11182.016703
1136.866381,-2910.387909,612.713244,10645.892614
1136.866694,-9880.001059,459.534933,10186.357681
1136.866989,-13020.156435,-382.945777,11182.016703
1136.867285,-10339.535992,-3599.690308,10109.768526
1136.867581,-4748.527641,-6127.132440,11028.838392
1136.867877,2527.442131,-7199.380617,11335.195014
1136.868173,6893.023995,-5667.597507,11335.195014
1136.868468,7888.683016,-3906.046930,11028.838392
1136.868764,5514.419196,-3446.511997,10416.125148
1136.869073,612.713244,-2374.263820,9650.233593
1136.869372,-76.589155,1072.248177,7582.326394
1136.869670,306.356622,459.534933,7275.969772
1136.869969,1072.248177,-2067.907198,9650.233593
1136.870267,4212.403552,-382.945777,11182.016703
1136.870566,3752.868619,3982.636086,12790.388968
1136.870865,1072.248177,4825.116796,11335.195014
1136.871163,-3216.744531,6050.543284,11488.373325
1136.871470,-8731.163727,3982.636086,11028.838392
1136.871770,-11411.784169,3982.636086,11641.551636
1136.872070,-10339.535992,765.891555,9803.411904
1136.872369,-3216.744531,-1302.015643,9956.590215
1136.872669,2374.263820,-5667.597507,12407.443191
1136.872969,6586.667373,-3906.046930,12254.264880
1136.873269,6893.023995,-2527.442131,11028.838392
1136.873568,5054.884263,-1914.728887,10262.946837
1136.873865,2374.263820,-76.589155,9267.287815
1136.874165,459.534933,3829.457775,8654.574571
1136.874464,612.713244,4595.349330,6663.256528
1136.874764,3293.333686,2450.852976,8577.985416
1136.875063,5054.884263,2604.031287,10722.481770
1136.875363,4901.705952,4748.527641,11641.551636
1136.875663,1531.783110,5437.830040,11488.373325
1136.875962,-3676.279464,3523.101153,12101.086569
1136.876257,-9497.055282,2450.852976,11794.729947
1136.876557,-10952.249236,765.891555,10722.481770
1136.876857,-9880.001059,-1455.193954,9650.233593
1136.877158,-5591.008351,-7812.093861,10875.660081
1136.877458,612.713244,-9880.001059,11718.140791
1136.877758,4901.705952,-9037.520349,11335.195014
1136.878058,5973.954129,-6893.023995,11105.427547
1136.878358,4059.225241,-7965.272172,10262.946837
1136.878670,1531.783110,-5054.884263,9956.590215
1136.878967,919.069866,-2067.907198,7429.148083
1136.879265,612.713244,-536.124088,6969.613150
1136.879562,1378.604799,-2221.085509,8501.396260
1136.879860,5973.954129,-76.589155,10033.179370
1136.880157,7122.791461,1378.604799,10722.481770
1136.880455,4365.581863,4748.527641,11028.838392
1136.880752,-2221.085509,3216.744531,11028.838392
1136.881061,-6663.256528,2757.209598,11641.551636
1136.881361,-9573.644437,459.534933,10645.892614
1136.881660,-10339.535992,-842.480710,10569.303459
1136.881959,-7658.915550,-5820.775818,10875.660081
1136.882259,-2910.387909,-9343.876971,12484.032346
1136.882558,2833.798753,-9343.876971,13556.280523
1136.882857,4671.938485,-5973.954129,12254.264880
1136.883157,4365.581863,-2221.085509,9956.590215
1136.883464,1684.961421,-229.767466,8960.931193
1136.883762,459.534933,3063.566220,8807.752882
1136.884060,2527.442131,4825.116796,8654.574571
1136.884358,3293.333686,5437.830040,8348.217949
1136.884657,7122.791461,4825.116796,9880.001059
1136.884955,9650.233593,7122.791461,10875.660081
1136.885253,7275.969772,8041.861327,11488.373325
1136.885551,1838.139732,8195.039638,11488.373325
1136.885867,-6663.256528,3982.636086,10416.125148
1136.886166,-11718.140791,1838.139732,12101.086569
1136.886464,-14475.350389,-2527.442131,12101.086569
1136.886763,-12713.799813,-6739.845684,12713.799813
1136.887061,-5591.008351,-9726.822748,12943.567279
1136.887359,3752.868619,-7658.915550,11641.551636
1136.887658,8654.574571,-3599.690308,10109.768526
1136.887956,9114.109504,-229.767466,9114.109504
1136.888271,7122.791461,-76.589155,8348.217949
1136.888569,2297.674665,1531.783110,8807.752882
1136.888868,-995.659021,2757.209598,7888.683016
1136.889167,-1302.015643,612.713244,8348.217949
1136.889466,-0.000000,-2067.907198,9650.233593
1136.889764,3752.868619,-1608.372265,11488.373325
1136.890063,3906.046930,-229.767466,11641.551636
1136.890362,-0.000000,-0.000000,11335.195014
1136.890650,-4595.349330,-1761.550576,11182.016703
1136.890950,-7658.915550,-995.659021,12713.799813
1136.891250,-8271.628794,-2527.442131,10492.714303
1136.891549,-6356.899906,-4059.225241,10109.768526
1136.891849,-2910.387909,-8118.450483,11794.729947
1136.892149,3599.690308,-7352.558928,10416.125148
1136.892449,7122.791461,-4365.581863,10262.946837
1136.892749,5820.775818,-2221.085509,10109.768526
1136.893049,2297.674665,-2221.085509,9956.590215
1136.893348,-2067.907198,-0.000000,9803.411904
1136.893647,-2374.263820,1531.783110,8960.931193
1136.893946,-1761.550576,612.713244,9573.644437
1136.894246,1531.783110,612.713244,9956.590215
1136.894545,5208.062574,1531.783110,10109.768526
1136.894844,5054.884263,3216.744531,10109.768526
1136.895143,-76.589155,765.891555,12101.086569
1136.895450,-4748.527641,1072.248177,13709.458834
1136.895750,-5284.651729,459.534933,10109.768526
1136.896049,-5591.008351,1225.426488,8577.985416
1136.896348,-5437.830040,-2221.085509,10416.125148
1136.896647,-3369.922842,-3446.511997,12254.264880
1136.896947,2680.620442,-2527.442131,11794.729947
1136.897246,4901.705952,612.713244,10875.660081
1136.897545,2986.977064,1991.318043,9956.590215
1136.897866,-76.589155,3063.566220,11182.016703
1136.898166,-2221.085509,2910.387909,9573.644437
1136.898467,-995.659021,3982.636086,9114.109504
1136.898767,153.178311,2757.209598,8960.931193
1136.899067,5667.597507,1838.139732,8960.931193
1136.899368,9114.109504,1072.248177,9956.590215
1136.899668,7735.504705,1684.961421,11182.016703
1136.899969,2144.496354,1072.248177,10875.660081
1136.900287,-4595.349330,-995.659021,12407.443191
1136.900581,-9343.876971,-3446.511997,10645.892614
1136.900874,-11564.962480,-2680.620442,10875.660081
1136.901168,-9726.822748,-4212.403552,10875.660081
1136.901461,-4748.527641,-5054.884263,10569.303459
1136.901755,3599.690308,-3599.690308,10952.249236
1136.902048,6280.310751,-76.589155,10569.303459
1136.902342,5514.419196,1072.248177,9956.590215
1136.902659,2297.674665,-1608.372265,10033.179370
1136.902955,-1455.193954,-1455.193954,10186.357681
1136.903251,-2374.263820,-2221.085509,8884.342038
1136.903547,-3063.566220,-4518.760174,9420.466126
1136.903843,1991.318043,-7352.558928,10262.946837
1136.904139,7122.791461,-5820.775818,10416.125148
1136.904435,8041.861327,-2833.798753,10722.481770
1136.904731,5361.240885,1378.604799,10033.179370
1136.905031,-229.767466,306.356622,10109.768526
1136.905332,-6510.078217,459.534933,11794.729947
1136.905632,-10645.892614,-76.589155,11335.195014
1136.905933,-9573.644437,306.356622,10262.946837
1136.906234,-5591.008351,-4059.225241,10645.892614
1136.906534,1225.426488,-4518.760174,11182.016703
1136.906835,6280.310751,-1148.837332,11488.373325
1136.907136,8654.574571,2757.209598,9956.590215
1136.907443,4212.403552,1072.248177,9650.233593
1136.907744,-3063.566220,459.534933,11641.551636
1136.908045,-4748.527641,1225.426488,9650.233593
1136.908346,-4442.171019,-76.589155,9114.109504
1136.908647,-2067.907198,-3599.690308,9956.590215
1136.908948,3906.046930,-1761.550576,10722.481770
1136.909249,8195.039638,1684.961421,11182.016703
1136.909550,7582.326394,4978.295107,10492.714303
1136.909795,1991.318043,2910.387909,12254.264880
1136.910105,-3216.744531,4442.171019,11028.838392
1136.910415,-5284.651729,4595.349330,9803.411904
1136.910725,-4135.814397,3829.457775,9650.233593
1136.911036,-2374.263820,-995.659021,10416.125148
1136.911346,1225.426488,-2986.977064,11335.195014
1136.911656,5208.062574,-1914.728887,10645.892614
1136.911966,2144.496354,-2986.977064,10645.892614
1136.912285,-5591.008351,-5514.419196,13862.637145
1136.912577,-9343.876971,-4518.760174,14015.815456
1136.912870,-6356.899906,-842.480710,9650.233593
1136.913163,-1914.728887,919.069866,7735.504705
1136.913455,1378.604799,-536.124088,8501.396260
1136.913748,5514.419196,-1455.193954,9956.590215
1136.914041,9956.590215,612.713244,11335.195014
1136.914333,8960.931193,1531.783110,9573.644437
1136.914651,3140.155375,1378.604799,10569.303459
1136.914948,-1914.728887,-995.659021,9803.411904
1136.915246,-3063.566220,-229.767466,9650.233593
1136.915544,-2910.387909,-3293.333686,9037.520349
1136.915842,-2910.387909,-6586.667373,9114.109504
1136.916139,-1455.193954,-9880.001059,11564.962480
1136.916437,1531.783110,-8271.628794,12024.497413
1136.916735,306.356622,-6893.023995,12254.264880
1136.917035,-3676.279464,-4901.705952,12866.978124
1136.917334,-7122.791461,-3140.155375,11105.427547
1136.917633,-6969.613150,765.891555,11028.838392
1136.917932,-4748.527641,2757.209598,8654.574571
1136.918231,-76.589155,1378.604799,8195.039638
1136.918530,4671.938485,-229.767466,10262.946837
1136.918829,10109.768526,1531.783110,9803.411904
1136.919129,10722.481770,4978.295107,9420.466126
1136.919442,5208.062574,4442.171019,10109.768526
1136.919741,-1608.372265,1378.604799,11488.373325
1136.920040,-6663.256528,612.713244,10875.660081
1136.920339,-6663.256528,-229.767466,9573.644437
1136.920637,-4135.814397,-3293.333686,8807.752882
1136.920936,-995.659021,-6280.310751,11182.016703
1136.921235,3906.046930,-5208.062574,12866.978124
1136.921533,5054.884263,-2374.263820,12560.621502
1136.921840,2527.442131,-76.589155,12407.443191
1136.922138,-1148.837332,1991.318043,11182.016703
1136.922435,-3216.744531,4595.349330,9956.590215
1136.922732,-3369.922842,6510.078217,9420.466126
1136.923029,-2221.085509,4748.527641,8654.574571
1136.923327,459.534933,3676.279464,9573.644437
1136.923624,3140.155375,1378.604799,11718.140791
1136.923921,3906.046930,4135.814397,12254.264880
1136.924218,1225.426488,1838.139732,12101.086569
1136.924519,-2067.907198,1072.248177,11182.016703
1136.924820,-4288.992708,-1914.728887,9343.876971
1136.925121,-4978.295107,-2680.620442,9650.233593
1136.925422,-2374.263820,-6586.667373,8654.574571
1136.925723,1684.961421,-7352.558928,10109.768526
1136.926024,6739.845684,-7352.558928,10645.892614
1136.926325,5973.954129,-4825.116796,11258.605858
1136.926620,2833.798753,-2833.798753,11488.373325
1136.926921,-2067.907198,-1302.015643,10645.892614
1136.927222,-5897.364973,306.356622,10262.946837
1136.927523,-7199.380617,2297.674665,9267.287815
1136.927823,-6050.543284,1225.426488,9497.055282
1136.928124,-1914.728887,-689.302399,10109.768526
1136.928425,4671.938485,-76.589155,11028.838392
1136.928726,8654.574571,2450.852976,9650.233593
1136.929014,5973.954129,1225.426488,9420.466126
1136.929315,612.713244,-1761.550576,11641.551636
1136.929616,-3523.101153,-3752.868619,11028.838392
1136.929917,-4978.295107,-4518.760174,9803.411904
1136.930217,-4748.527641,-6739.845684,8960.931193
1136.930518,-2221.085509,-8271.628794,9956.590215
1136.930819,1838.139732,-7046.202306,12177.675724
1136.931120,3906.046930,-3446.511997,11641.551636
1136.931452,1838.139732,1072.248177,12254.264880
1136.931746,-2067.907198,1991.318043,11488.373325
1136.932040,-6050.543284,4288.992708,11335.195014
1136.932334,-6203.721595,5437.830040,10033.179370
1136.932628,-3216.744531,6203.721595,9267.287815
1136.932922,1225.426488,3982.636086,9650.233593
1136.933216,6893.023995,3216.744531,9650.233593
1136.933510,8960.931193,1991.318043,10875.660081
1136.933817,6586.667373,1225.426488,12254.264880
1136.934117,2144.496354,-1761.550576,10799.070925
1136.934416,-2757.209598,-1302.015643,10645.892614
1136.934716,-4442.171019,-2986.977064,9037.520349
1136.935016,-4135.814397,-2221.085509,9573.644437
1136.935315,-2757.209598,-4365.581863,10339.535992
1136.935615,1991.318043,-3446.511997,12407.443191
1136.935915,4212.403552,1225.426488,11641.551636
1136.936211,3293.333686,4748.527641,11488.373325
1136.936514,-1608.372265,3982.636086,11488.373325
1136.936817,-4748.527641,5284.651729,11335.195014
1136.937120,-6050.543284,4978.295107,9650.233593
1136.937423,-3982.636086,4288.992708,8807.752882
1136.937726,-842.480710,-382.945777,8195.039638
1136.938028,3906.046930,-2527.442131,10109.768526
1136.938331,5973.954129,-4059.225241,11488.373325
1136.938626,3140.155375,-5361.240885,11488.373325
1136.938926,1378.604799,-4671.938485,10416.125148
1136.939226,-1455.193954,-4518.760174,8807.752882
1136.939526,-4978.295107,-4365.581863,8195.039638
1136.939827,-5284.651729,-4901.705952,9420.466126
1136.940127,-4135.814397,-6127.132440,9267.287815
1136.940427,153.178311,-6433.489062,11028.838392
1136.940727,2144.496354,-5361.240885,12713.799813
1136.941015,1991.318043,-2374.263820,12177.675724
1136.941315,2297.674665,612.713244,11182.016703
1136.941615,-536.124088,919.069866,9267.287815
1136.941915,-2221.085509,2297.674665,9650.233593
1136.942215,-2221.085509,1531.783110,8271.628794
1136.942515,-1455.193954,-689.302399,9650.233593
1136.942815,3446.511997,-3599.690308,10262.946837
1136.943115,5054.884263,-2374.263820,11718.140791
1136.943438,4518.760174,-1914.728887,12254.264880
1136.943735,1838.139732,459.534933,10875.660081
1136.944031,-3063.566220,153.178311,10875.660081
1136.944328,-4825.116796,1531.783110,10339.535992
1136.944625,-5744.186662,153.178311,9114.109504
1136.944921,-3063.566220,-842.480710,10109.768526
1136.945218,2527.442131,-1914.728887,10109.768526
1136.945515,4518.760174,-1302.015643,13326.513057
1136.945822,4901.705952,1378.604799,11564.962480
1136.946123,3906.046930,3523.101153,10569.303459
1136.946425,-2757.209598,2604.031287,11028.838392
1136.946726,-6510.078217,2144.496354,11411.784169
1136.947028,-5897.364973,2297.674665,10416.125148
1136.947329,-1761.550576,3063.566220,9420.466126
1136.947631,3906.046930,1225.426488,9573.644437
1136.947932,8041.861327,2297.674665,11028.838392
1136.948249,8807.752882,4748.527641,11564.962480
1136.948542,5667.597507,5131.473418,9956.590215
1136.948836,-1148.837332,2910.387909,10109.768526
1136.949130,-7965.272172,-382.945777,10492.714303
1136.949423,-10186.357681,-2374.263820,10722.481770
1136.949717,-7122.791461,-4671.938485,10416.125148
1136.950011,-2067.907198,-6893.023995,9803.411904
1136.950304,2297.674665,-6586.667373,11947.908258
1136.950623,4059.225241,-4059.225241,11641.551636
1136.950921,3293.333686,-2374.263820,10722.481770
1136.951220,-0.000000,-1914.728887,10186.357681
1136.951518,-3982.636086,-1914.728887,9956.590215
1136.951816,-4442.171019,-536.124088,8807.752882
1136.952114,-1148.837332,-1914.728887,7888.683016
1136.952412,1684.961421,-3446.511997,9573.644437
1136.952710,6433.489062,-3752.868619,10722.481770
1136.953023,7122.791461,-229.767466,11182.016703
1136.953322,5973.954129,1531.783110,10109.768526
1136.953620,1378.604799,1991.318043,10262.946837
1136.953919,-5897.364973,-2221.085509,11258.605858
1136.954217,-8424.807105,-1302.015643,9803.411904
1136.954516,-6356.899906,-4059.225241,8807.752882
1136.954814,-4748.527641,-7046.202306,10339.535992
1136.955113,-382.945777,-9343.876971,12943.567279
1136.955400,3599.690308,-6127.132440,13403.102212
1136.955702,5208.062574,-1455.193954,10569.303459
1136.956003,2986.977064,-229.767466,10109.768526
1136.956304,-2450.852976,1378.604799,9956.590215
1136.956606,-2604.031287,6050.543284,8884.342038
1136.956907,-2910.387909,6050.543284,8654.574571
1136.957208,-2067.907198,2757.209598,10109.768526
1136.957510,2144.496354,2757.209598,12254.264880
1136.957817,5973.954129,4288.992708,10875.660081
1136.958114,5973.954129,5437.830040,10416.125148
1136.958411,2144.496354,4135.814397,9956.590215
1136.958707,-3063.566220,2144.496354,10875.660081
1136.959004,-6510.078217,1531.783110,10722.481770
1136.959301,-4442.171019,-536.124088,9420.466126
1136.959598,-2604.031287,-3906.046930,11794.729947
1136.959895,2144.496354,-6739.845684,12254.264880
1136.960209,4518.760174,-4671.938485,12101.086569
1136.960509,4518.760174,-1914.728887,11411.784169
1136.960810,459.534933,-1608.372265,10875.660081
1136.961110,-4978.295107,-536.124088,12101.086569
1136.961410,-6510.078217,3523.101153,9573.644437
1136.961711,-4442.171019,6510.078217,8348.217949
1136.962011,459.534933,5437.830040,8348.217949
1136.962311,4748.527641,3829.457775,10416.125148
1136.962630,7735.504705,3523.101153,11411.784169
1136.962926,8348.217949,4825.116796,9420.466126
1136.963222,2374.263820,612.713244,9650.233593
1136.963518,-2450.852976,-3140.155375,10492.714303
1136.963814,-6969.613150,-6280.310751,9956.590215
1136.964110,-5437.830040,-7812.093861,9037.520349
1136.964407,-4288.992708,-11105.427547,8807.752882
1136.964703,-1148.837332,-12790.388968,12254.264880
1136.965020,2374.263820,-11411.784169,13249.923901
1136.965318,3752.868619,-6433.489062,10952.249236
1136.965617,2144.496354,-1914.728887,9726.822748
1136.965915,-3216.744531,1225.426488,9650.233593
1136.966214,-6510.078217,1838.139732,10186.357681
1136.966513,-5284.651729,4748.527641,9956.590215
1136.966811,-842.480710,4135.814397,8884.342038
1136.967110,4748.527641,1225.426488,9650.233593
1136.967398,9420.466126,1225.426488,10339.535992
1136.967697,8807.752882,1378.604799,10109.768526
1136.967996,3752.868619,919.069866,10799.070925
1136.968295,-2604.031287,-2221.085509,11028.838392
1136.968594,-6663.256528,-2221.085509,9956.590215
1136.968892,-8884.342038,-3599.690308,10645.892614
1136.969191,-9343.876971,-6127.132440,10722.481770
1136.969490,-3523.101153,-8271.628794,13096.745590
1136.969820,3293.333686,-5667.597507,13096.745590
1136.970117,8195.039638,-382.945777,10569.303459
1136.970414,6893.023995,3829.457775,10645.892614
1136.970711,3140.155375,5897.364973,10262.946837
1136.971008,-536.124088,7735.504705,10799.070925
1136.971305,-3216.744531,7888.683016,9573.644437
1136.971602,-2221.085509,8348.217949,9114.109504
1136.971899,2374.263820,4442.171019,9420.466126
1136.972207,5514.419196,2604.031287,11028.838392
1136.972507,5820.775818,919.069866,11794.729947
1136.972807,2527.442131,-0.000000,10569.303459
1136.973106,-2757.209598,-3906.046930,10033.179370
1136.973406,-6356.899906,-4518.760174,10109.768526
1136.973706,-9726.822748,-6433.489062,10339.535992
1136.974006,-9343.876971,-8118.450483,11335.195014
1136.974306,-3523.101153,-9037.520349,10952.249236
1136.974622,3599.690308,-6433.489062,10262.946837
1136.974921,7046.202306,-3140.155375,10875.660081
1136.975221,6127.132440,-1148.837332,9956.590215
1136.975520,2833.798753,2144.496354,9420.466126
1136.975819,-1914.728887,2757.209598,9420.466126
1136.976118,-6203.721595,1838.139732,9037.520349
1136.976418,-4288.992708,2144.496354,9650.233593
1136.976717,-76.589155,765.891555,9573.644437
1136.976989,4748.527641,-2527.442131,10109.768526
1136.977293,6893.023995,-1761.550576,11258.605858
1136.977597,5361.240885,-2374.263820,10492.714303
1136.977900,2374.263820,-1914.728887,10339.535992
1136.978204,-3829.457775,-4671.938485,9956.590215
1136.978508,-8731.163727,-4901.705952,11028.838392
1136.978812,-6816.434839,-5514.419196,10109.768526
1136.979116,-4135.814397,-5973.954129,10722.481770
1136.979394,919.069866,-5361.240885,11871.319102
1136.979695,4901.705952,-2221.085509,11411.784169
1136.979995,5820.775818,919.069866,11335.195014
1136.980296,1991.318043,3063.566220,11182.016703
1136.980597,-2067.907198,4442.171019,10569.303459
1136.980898,-4135.814397,6663.256528,10033.179370
1136.981198,-2910.387909,6663.256528,8195.039638
1136.981499,-1148.837332,4288.992708,9803.411904
1136.981785,4365.581863,3676.279464,11182.016703
1136.982084,8807.752882,4135.814397,11182.016703
1136.982382,8807.752882,3063.566220,10109.768526
1136.982681,3752.868619,2910.387909,10875.660081
1136.982979,-3369.922842,-76.589155,10416.125148
1136.983278,-8271.628794,-76.589155,11028.838392
1136.983576,-9880.001059,-2221.085509,11028.838392
1136.983875,-8271.628794,-3140.155375,11182.016703
1136.984182,-2374.263820,-2833.798753,11794.729947
1136.984482,2374.263820,-2374.263820,11182.016703
1136.984783,3752.868619,-1761.550576,11794.729947
1136.985083,3752.868619,-229.767466,10875.660081
1136.985384,1378.604799,765.891555,9114.109504
1136.985684,-0.000000,2450.852976,7658.915550
1136.985985,-1455.193954,765.891555,8577.985416
1136.986285,-229.767466,-1761.550576,9956.590215
1136.986582,3752.868619,-1302.015643,10875.660081
1136.986882,7582.326394,-689.302399,11182.016703
1136.987181,6433.489062,-76.589155,9803.411904
1136.987481,2527.442131,-842.480710,9573.644437
1136.987780,-3829.457775,-1148.837332,10033.179370
1136.988080,-8884.342038,-2221.085509,10875.660081
1136.988379,-11947.908258,-4901.705952,11488.373325
1136.988679,-10186.357681,-6739.845684,11028.838392
1136.988979,-3216.744531,-7046.202306,12101.086569
1136.989277,1838.139732,-7352.558928,12713.799813
1136.989576,5054.884263,-5361.240885,11641.551636
1136.989875,7122.791461,-2833.798753,9573.644437
1136.990174,4748.527641,-536.124088,8654.574571
1136.990473,306.356622,-1455.193954,8654.574571
1136.990771,-1302.015643,-229.767466,9573.644437
1136.991070,612.713244,612.713244,9420.466126
1136.991382,2374.263820,459.534933,10416.125148
1136.991683,4059.225241,765.891555,11794.729947
1136.991983,4059.225241,3063.566220,10875.660081
1136.992284,1684.961421,1991.318043,9956.590215
1136.992585,-3063.566220,3063.566220,11182.016703
1136.992886,-8118.450483,765.891555,11105.427547
1136.993187,-7965.272172,1072.248177,9956.590215
1136.993487,-6663.256528,-1148.837332,9650.233593
1136.993796,-3829.457775,-4518.760174,11718.140791
1136.994092,459.534933,-6433.489062,13862.637145
1136.994389,5667.597507,-3752.868619,11335.195014
1136.994685,7735.504705,-1914.728887,9880.001059
1136.994981,5208.062574,-689.302399,8807.752882
1136.995277,2680.620442,2450.852976,8960.931193
1136.995573,1838.139732,5437.830040,8654.574571
1136.995869,612.713244,6510.078217,8960.931193
1136.996176,306.356622,5284.651729,10569.303459
1136.996475,1378.604799,5744.186662,11641.551636
1136.996774,1991.318043,4595.349330,11028.838392
1136.997073,-229.767466,4442.171019,10492.714303
1136.997372,-3982.636086,1225.426488,10722.481770
1136.997671,-6663.256528,459.534933,11105.427547
1136.997970,-8731.163727,-2986.977064,12101.086569
1136.998269,-8884.342038,-5820.775818,12254.264880
1136.998585,-4288.992708,-7812.093861,11794.729947
1136.998883,1838.139732,-7965.272172,11028.838392
1136.999180,6127.132440,-6127.132440,10262.946837
1136.999478,5667.597507,-6433.489062,10033.179370
1136.999776,4212.403552,-6433.489062,9114.109504
1137.000074,2374.263820,-4059.225241,9573.644437
1137.000371,612.713244,-2833.798753,8807.752882
1137.000669,612.713244,-842.480710,8654.574571
1137.000983,2680.620442,1378.604799,9114.109504
1137.001282,3752.868619,4135.814397,10952.249236
1137.001581,4901.705952,5284.651729,11182.016703
1137.001880,459.534933,5284.651729,11488.373325
1137.002178,-3369.922842,1838.139732,11028.838392
1137.002477,-8271.628794,153.178311,11488.373325
1137.002776,-10492.714303,-5208.062574,11335.195014
1137.003074,-9190.698660,-8424.807105,10569.303459
1137.003362,-5437.830040,-10339.535992,11028.838392
1137.003665,153.178311,-9497.055282,12560.621502
1137.003967,5667.597507,-7812.093861,10416.125148
1137.004270,5973.954129,-5973.954129,10262.946837
1137.004572,4671.938485,-2067.907198,10262.946837
1137.004875,4212.403552,2144.496354,8041.861327
1137.005177,4518.760174,5437.830040,6969.613150
1137.005480,3140.155375,6050.543284,7429.148083
1137.005779,2374.263820,6203.721595,9497.055282
1137.006079,2833.798753,6663.256528,11794.729947
1137.006378,3446.511997,7888.683016,11182.016703
1137.006677,306.356622,4825.116796,11794.729947
1137.006976,-5284.651729,2910.387909,12560.621502
1137.007276,-10033.179370,-689.302399,12254.264880
1137.007575,-9573.644437,-842.480710,11182.016703
1137.007874,-6816.434839,-2527.442131,10569.303459
1137.008181,-4288.992708,-4825.116796,10722.481770
1137.008480,-995.659021,-7046.202306,12943.567279
1137.008780,4365.581863,-4671.938485,12560.621502
1137.009079,8654.574571,-2221.085509,10033.179370
1137.009378,5667.597507,-995.659021,9343.876971
1137.009677,2527.442131,612.713244,8884.342038
1137.009977,612.713244,3829.457775,8807.752882
1137.010276,1838.139732,4288.992708,7735.504705
1137.010597,919.069866,4135.814397,9420.466126
1137.010894,1378.604799,2910.387909,11335.195014
1137.011191,2144.496354,3369.922842,11488.373325
1137.011488,2527.442131,2144.496354,11182.016703
1137.011785,-2757.209598,-842.480710,12713.799813
1137.012082,-6816.434839,-4671.938485,12637.210657
1137.012379,-6816.434839,-5208.062574,9650.233593
1137.012676,-4288.992708,-6586.667373,8654.574571
1137.013023,-4748.527641,-9497.055282,10186.357681
1137.013318,-2757.209598,-10492.714303,12943.567279
1137.013613,3599.690308,-4825.116796,11028.838392
1137.013908,6127.132440,-1302.015643,9956.590215
1137.014203,3906.046930,-229.767466,9573.644437
1137.014498,765.891555,-229.767466,8960.931193
1137.014792,-842.480710,1378.604799,8960.931193
1137.015087,-1302.015643,2450.852976,9956.590215
1137.015400,306.356622,1531.783110,9420.466126
1137.015696,3752.868619,2450.852976,9343.876971
1137.015992,4901.705952,2297.674665,11028.838392
1137.016288,3446.511997,3369.922842,12254.264880
1137.016584,306.356622,612.713244,11182.016703
1137.016881,-2757.209598,153.178311,11182.016703
1137.017177,-5284.651729,-1914.728887,10109.768526
1137.017473,-6816.434839,-3140.155375,10262.946837
1137.017772,-6356.899906,-4825.116796,11564.962480
1137.018070,-2910.387909,-3446.511997,12407.443191
1137.018367,1072.248177,153.178311,11794.729947
1137.018665,2833.798753,1838.139732,10569.303459
1137.018962,-0.000000,2144.496354,11641.551636
1137.019259,-1914.728887,3829.457775,11641.551636
1137.019557,-842.480710,3829.457775,9114.109504
1137.019854,919.069866,3829.457775,8960.931193
1137.020161,5054.884263,1225.426488,8501.396260
1137.020463,8960.931193,-382.945777,10262.946837
1137.020765,11335.195014,612.713244,9956.590215
1137.021066,8960.931193,-76.589155,8960.931193
1137.021368,1838.139732,-3140.155375,10722.481770
1137.021670,-5591.008351,-4059.225241,11258.605858
1137.021972,-10799.070925,-5208.062574,11105.427547
1137.022273,-12254.264880,-4825.116796,10416.125148
1137.022553,-10186.357681,-3906.046930,10875.660081
1137.022858,-5131.473418,-3293.333686,11947.908258
1137.023164,-0.000000,-1302.015643,12484.032346
1137.023469,2374.263820,459.534933,11258.605858
1137.023774,765.891555,1072.248177,10875.660081
1137.024079,153.178311,459.534933,10569.303459
1137.024384,306.356622,306.356622,8960.931193
1137.024690,1684.961421,-229.767466,7888.683016
1137.025008,3293.333686,-3906.046930,7735.504705
1137.025301,5820.775818,-5667.597507,10569.303459
1137.025594,8807.752882,-4059.225241,10722.481770
1137.025886,7582.326394,-2986.977064,10416.125148
1137.026179,3599.690308,-995.659021,10722.481770
1137.026472,-4595.349330,-1914.728887,10109.768526
1137.026764,-8731.163727,-689.302399,11028.838392
1137.027057,-9573.644437,-536.124088,10186.357681
1137.027374,-8884.342038,-1608.372265,10569.303459
1137.027672,-4135.814397,-3599.690308,12330.854035
1137.027970,459.534933,-3293.333686,12254.264880
1137.028267,2680.620442,-3293.333686,12713.799813
1137.028565,2527.442131,-1455.193954,11335.195014
1137.028863,1838.139732,-1302.015643,10109.768526
1137.029161,-2067.907198,459.534933,9956.590215
1137.029459,459.534933,1378.604799,7582.326394
1137.029758,1072.248177,1838.139732,8041.861327
1137.030059,4901.705952,-0.000000,10645.892614
1137.030359,7275.969772,459.534933,11794.729947
1137.030659,8041.861327,2910.387909,10875.660081
1137.030959,5514.419196,3369.922842,9726.822748
1137.031259,306.356622,2910.387909,10569.303459
1137.031559,-5744.186662,2910.387909,10262.946837
1137.031859,-8118.450483,1378.604799,10416.125148
1137.032149,-9190.698660,459.534933,11564.962480
1137.032450,-5591.008351,-1914.728887,12713.799813
1137.032751,765.891555,-1148.837332,12637.210657
1137.033052,4212.403552,-1148.837332,10875.660081
1137.033352,1991.318043,-2527.442131,11718.140791
1137.033653,-842.480710,-3599.690308,10262.946837
1137.033954,-5131.473418,-3446.511997,10339.535992
1137.034255,-5131.473418,-2221.085509,9650.233593
1137.034561,-1455.193954,-3446.511997,9114.109504
1137.034859,2374.263820,-2374.263820,9956.590215
1137.035156,9420.466126,-842.480710,9956.590215
1137.035453,12177.675724,2910.387909,9114.109504
1137.035750,7888.683016,1531.783110,9573.644437
1137.036048,-229.767466,306.356622,11028.838392
1137.036345,-7505.737239,-1455.193954,11335.195014
1137.036642,-9497.055282,-842.480710,9956.590215
1137.036972,-9726.822748,-5514.419196,10722.481770
1137.037268,-8118.450483,-6586.667373,12330.854035
1137.037564,-229.767466,-5208.062574,11794.729947
1137.037861,4748.527641,-2833.798753,11488.373325
1137.038157,3906.046930,-3906.046930,11794.729947
1137.038453,765.891555,-2833.798753,11182.016703
1137.038750,-1608.372265,-2221.085509,9650.233593
1137.039046,-2221.085509,612.713244,8118.450483
1137.039341,-536.124088,-76.589155,7582.326394
1137.039642,1838.139732,-0.000000,8654.574571
1137.039943,6280.310751,306.356622,10262.946837
1137.040244,8960.931193,2450.852976,11411.784169
1137.040544,7275.969772,3216.744531,11028.838392
1137.040845,1838.139732,1991.318043,9343.876971
1137.041146,-3523.101153,1838.139732,10262.946837
1137.041447,-10492.714303,153.178311,10952.249236
1137.041759,-10186.357681,-2221.085509,11028.838392
1137.042056,-9190.698660,-3140.155375,12254.264880
1137.042354,-2604.031287,-3446.511997,12560.621502
1137.042651,2527.442131,-2833.798753,11258.605858
1137.042949,5361.240885,-689.302399,11258.605858
1137.043246,4059.225241,-229.767466,10722.481770
1137.043543,2527.442131,1531.783110,10262.946837
1137.043841,919.069866,4135.814397,8501.396260
1137.044150,1531.783110,4978.295107,8424.807105
1137.044448,1378.604799,3982.636086,9573.644437
1137.044747,4365.581863,5591.008351,10109.768526
1137.045046,6127.132440,4442.171019,10416.125148
1137.045344,1225.426488,2297.674665,11641.551636
1137.045643,-2604.031287,-995.659021,12407.443191
1137.045941,-5591.008351,-536.124088,10416.125148
1137.046240,-6510.078217,-2986.977064,9803.411904
1137.046547,-6050.543284,-5820.775818,10262.946837
1137.046845,-2221.085509,-6280.310751,9880.001059
1137.047144,1991.318043,-5514.419196,10416.125148
1137.047443,5054.884263,-6127.132440,11182.016703
1137.047742,2144.496354,-5361.240885,12637.210657
1137.048041,-76.589155,-2986.977064,11488.373325
1137.048340,-2450.852976,-382.945777,9956.590215
1137.048639,-5897.364973,-382.945777,8807.752882
1137.048935,-4442.171019,919.069866,9420.466126
1137.049238,-2910.387909,153.178311,10109.768526
1137.049541,3599.690308,765.891555,10109.768526
1137.049844,9114.109504,1838.139732,10569.303459
1137.050147,7429.148083,-0.000000,9803.411904
1137.050449,2297.674665,-2221.085509,11488.373325
1137.050752,-2067.907198,-3446.511997,10875.660081
1137.051055,-3982.636086,-3599.690308,9343.876971
1137.051383,-4288.992708,-5054.884263,9420.466126
1137.051678,-3829.457775,-6127.132440,9956.590215
1137.051974,765.891555,-6433.489062,12101.086569
1137.052269,5667.597507,-3293.333686,11718.140791
1137.052565,6739.845684,-0.000000,9650.233593
1137.052860,1225.426488,1072.248177,11028.838392
1137.053156,-6203.721595,919.069866,11641.551636
1137.053451,-9880.001059,3982.636086,12790.388968
1137.053739,-7965.272172,5131.473418,9803.411904
1137.054040,-3369.922842,5284.651729,10262.946837
1137.054341,3752.868619,4748.527641,10416.125148
1137.054642,11488.373325,4748.527641,9037.520349
1137.054943,12790.388968,4288.992708,10569.303459
1137.055243,7735.504705,3369.922842,10109.768526
1137.055544,459.534933,-1455.193954,10492.714303
1137.055845,-5591.008351,-3446.511997,10416.125148
1137.056145,-9037.520349,-4901.705952,10262.946837
1137.056445,-8271.628794,-5973.954129,10722.481770
1137.056745,-3523.101153,-5514.419196,10416.125148
1137.057045,1991.318043,-4059.225241,11641.551636
1137.057345,6280.310751,-1455.193954,11488.373325
1137.057645,4518.760174,919.069866,10952.249236
1137.057945,1378.604799,2297.674665,9650.233593
1137.058245,-3216.744531,3369.922842,9420.466126
1137.058552,-5744.186662,2757.209598,9573.644437
1137.058849,-3982.636086,2604.031287,9267.287815
1137.059147,153.178311,1072.248177,10262.946837
1137.059444,5514.419196,459.534933,10875.660081
1137.059742,8654.574571,-1914.728887,10033.179370
1137.060039,5973.954129,-2527.442131,10109.768526
1137.060337,919.069866,-3599.690308,9803.411904
1137.060634,-5897.364973,-6280.310751,10262.946837
1137.060950,-11105.427547,-7658.915550,10569.303459
1137.061247,-9497.055282,-7505.737239,10339.535992
1137.061544,-3523.101153,-6280.310751,9803.411904
1137.061841,1838.139732,-4825.116796,11028.838392
1137.062138,4901.705952,-3293.333686,11794.729947
1137.062435,5054.884263,-1608.372265,11947.908258
1137.062732,4059.225241,1531.783110,9956.590215
1137.063029,306.356622,1838.139732,8195.039638
1137.063348,-3063.566220,2297.674665,9650.233593
1137.063646,-5131.473418,306.356622,9803.411904
1137.063944,-1761.550576,1072.248177,10109.768526
1137.064243,2144.496354,-382.945777,11488.373325
1137.064541,4671.938485,-229.767466,12254.264880
1137.064839,6127.132440,153.178311,10186.357681
1137.065137,3446.511997,1531.783110,8654.574571
1137.065436,-1302.015643,-229.767466,9114.109504
1137.065749,-6203.721595,-842.480710,11488.373325
1137.066045,-7199.380617,-689.302399,11488.373325
1137.066341,-5131.473418,-229.767466,10722.481770
1137.066637,-1608.372265,-689.302399,11718.140791
1137.066933,-76.589155,-229.767466,12713.799813
1137.067229,1531.783110,1378.604799,11641.551636
1137.067525,612.713244,2757.209598,11182.016703
1137.067821,-1302.015643,1838.139732,9803.411904
1137.068120,-1455.193954,1991.318043,9650.233593
1137.068420,-689.302399,1531.783110,9573.644437
1137.068720,4059.225241,1684.961421,9573.644437
1137.069020,8041.861327,1684.961421,10109.768526
1137.069320,8348.217949,1225.426488,10262.946837
1137.069621,9650.233593,2604.031287,9114.109504
1137.069921,2144.496354,612.713244,9114.109504
1137.070221,-3982.636086,-2067.907198,10416.125148
1137.070528,-10799.070925,-3906.046930,11947.908258
1137.070831,-9343.876971,-3906.046930,11182.016703
1137.071134,-5897.364973,-3599.690308,10109.768526
1137.071438,-2067.907198,-3293.333686,10722.481770
1137.071741,-1455.193954,-4059.225241,12713.799813
1137.072044,612.713244,-1761.550576,11641.551636
1137.072348,-689.302399,-1608.372265,10722.481770
1137.072651,-3369.922842,-2833.798753,10722.481770
1137.072925,-3829.457775,-3752.868619,10416.125148
1137.073229,-229.767466,-1761.550576,8654.574571
1137.073532,5361.240885,-842.480710,7122.791461
1137.073836,7735.504705,-995.659021,8807.752882
1137.074140,7275.969772,-536.124088,11028.838392
1137.074443,6127.132440,1225.426488,11028.838392
1137.074747,2986.977064,1225.426488,9420.466126
1137.075051,-3982.636086,612.713244,9573.644437
1137.075369,-7352.558928,-2221.085509,10722.481770
1137.075665,-7965.272172,-2221.085509,10569.303459
1137.075961,-4748.527641,-3599.690308,10109.768526
1137.076257,-1608.372265,-4901.705952,11258.605858
1137.076553,765.891555,-5208.062574,13249.923901
1137.076849,2680.620442,-2067.907198,12790.388968
1137.077146,3752.868619,-0.000000,10109.768526
1137.077442,459.534933,1991.318043,10109.768526
1137.077787,-3982.636086,919.069866,10722.481770
1137.078079,-5437.830040,1531.783110,11182.016703
1137.078371,-1608.372265,3369.922842,9726.822748
1137.078663,4212.403552,5284.651729,9267.287815
1137.078955,9114.109504,6816.434839,9573.644437
1137.079247,7122.791461,5744.186662,10799.070925
1137.079539,4212.403552,5591.008351,10722.481770
1137.079831,-1302.015643,4288.992708,10875.660081
1137.080131,-4825.116796,1684.961421,11028.838392
1137.080428,-6663.256528,-2986.977064,10722.481770
1137.080726,-5591.008351,-5667.597507,10262.946837
1137.081023,153.178311,-6893.023995,10416.125148
1137.081321,3599.690308,-6739.845684,12101.086569
1137.081618,3752.868619,-7046.202306,12484.032346
1137.081915,2527.442131,-3293.333686,11794.729947
1137.082213,153.178311,-1148.837332,8501.396260
1137.082543,-4825.116796,-229.767466,9803.411904
1137.082840,-6203.721595,-76.589155,10569.303459
1137.083137,-3982.636086,2450.852976,9650.233593
1137.083434,4059.225241,4595.349330,8577.985416
1137.083731,8807.752882,6050.543284,9114.109504
1137.084028,7735.504705,4748.527641,11182.016703
1137.084325,2374.263820,2910.387909,11947.908258
1137.084622,-2374.263820,-229.767466,10109.768526
1137.084930,-6816.434839,-2374.263820,10262.946837
1137.085229,-8424.807105,-7658.915550,10262.946837
1137.085529,-8884.342038,-11105.427547,11794.729947
1137.085829,-2604.031287,-12024.497413,11641.551636
1137.086129,4901.705952,-10186.357681,11028.838392
1137.086429,8501.396260,-7812.093861,10262.946837
1137.086728,6586.667373,-4365.581863,9726.822748
1137.087028,1072.248177,-2680.620442,9880.001059
1137.087311,-3523.101153,612.713244,10033.179370
1137.087614,-4748.527641,3982.636086,9573.644437
1137.087917,-4288.992708,3523.101153,10569.303459
1137.088220,919.069866,5131.473418,10109.768526
1137.088523,8195.039638,7735.504705,8884.342038
1137.088826,8348.217949,8041.861327,10722.481770
1137.089129,2833.798753,3982.636086,11411.784169
1137.089432,-2450.852976,765.891555,11258.605858
1137.089714,-7352.558928,-1302.015643,10569.303459
1137.090016,-9726.822748,-3446.511997,10569.303459
1137.090317,-10186.357681,-6893.023995,12101.086569
1137.090619,-4825.116796,-7352.558928,11335.195014
1137.090921,3140.155375,-5820.775818,10416.125148
1137.091223,6739.845684,-3140.155375,11488.373325
1137.091525,6893.023995,-229.767466,11028.838392
1137.091827,4901.705952,2910.387909,9956.590215
1137.092117,612.713244,5897.364973,9114.109504
1137.092416,-536.124088,6816.434839,9114.109504
1137.092715,-1761.550576,6050.543284,9343.876971
1137.093014,1838.139732,6663.256528,9420.466126
1137.093314,5667.597507,4135.814397,9420.466126
1137.093613,5361.240885,1684.961421,10416.125148
1137.093912,2297.674665,-995.659021,13096.745590
1137.094211,-2450.852976,-2067.907198,12101.086569
1137.094525,-7965.272172,-5208.062574,10875.660081
1137.094823,-10492.714303,-5973.954129,10109.768526
1137.095122,-9190.698660,-6739.845684,10262.946837
1137.095421,-6050.543284,-7658.915550,10569.303459
1137.095720,459.534933,-6739.845684,11028.838392
1137.096018,4212.403552,-4825.116796,11718.140791
1137.096317,5667.597507,-3446.511997,12101.086569
1137.096616,4518.760174,-689.302399,10569.303459
1137.096923,2833.798753,3216.744531,8348.217949
1137.097222,-229.767466,4595.349330,7735.504705
1137.097522,-2604.031287,3369.922842,8807.752882
1137.097822,153.178311,2297.674665,9956.590215
1137.098122,3752.868619,1684.961421,10262.946837
1137.098422,4901.705952,-0.000000,10416.125148
1137.098721,2527.442131,-2833.798753,11794.729947
1137.099021,1378.604799,-3293.333686,11028.838392
1137.099318,-2910.387909,-4518.760174,9726.822748
1137.099618,-9497.055282,-7046.202306,11488.373325
1137.099918,-10033.179370,-7046.202306,11488.373325
1137.100218,-7199.380617,-6433.489062,10799.070925
1137.100518,-0.000000,-3906.046930,9803.411904
1137.100819,2297.674665,-2986.977064,11105.427547
1137.101119,2680.620442,-995.659021,12407.443191
1137.101419,3293.333686,1838.139732,11028.838392
1137.101714,1838.139732,4748.527641,9650.233593
1137.102015,-0.000000,5591.008351,9420.466126
1137.102316,-382.945777,6050.543284,9114.109504
1137.102617,2527.442131,5284.651729,8960.931193
1137.102917,4518.760174,4135.814397,10416.125148
1137.103218,7046.202306,3523.101153,12101.086569
1137.103519,7735.504705,3523.101153,11028.838392
1137.103820,4671.938485,2144.496354,10416.125148
1137.104132,-995.659021,-382.945777,10109.768526
1137.104429,-8271.628794,-3140.155375,11258.605858
1137.104727,-10492.714303,-2680.620442,11488.373325
1137.105024,-10645.892614,-4059.225241,12101.086569
1137.105322,-6510.078217,-3140.155375,12560.621502
1137.105619,-229.767466,-1148.837332,11028.838392
1137.105916,3906.046930,459.534933,10262.946837
1137.106214,4901.705952,765.891555,9956.590215
1137.106523,2374.263820,612.713244,9803.411904
1137.106822,1531.783110,-689.302399,9343.876971
1137.107120,1684.961421,-1148.837332,8807.752882
1137.107419,4365.581863,-1455.193954,7582.326394
1137.107718,5208.062574,-2374.263820,9114.109504
1137.108016,4901.705952,-1914.728887,10569.303459
1137.108315,3752.868619,-1608.372265,11182.016703
1137.108614,-382.945777,-842.480710,11335.195014
1137.108921,-5591.008351,-1608.372265,10722.481770
1137.109220,-10033.179370,-2067.907198,11182.016703
1137.109520,-10952.249236,-1761.550576,10569.303459
1137.109820,-8731.163727,-3293.333686,11105.427547
1137.110119,-4442.171019,-3599.690308,11335.195014
1137.110419,1378.604799,-3752.868619,11641.551636
1137.110718,5514.419196,-4518.760174,11335.195014
1137.111018,5973.954129,-3140.155375,10569.303459
1137.111315,5667.597507,-3293.333686,9420.466126
1137.111613,3293.333686,-1914.728887,9114.109504
1137.111911,2527.442131,-1455.193954,8654.574571
1137.112209,3599.690308,-229.767466,7352.558928
1137.112507,4518.760174,306.356622,8501.396260
1137.112805,2144.496354,-229.767466,11794.729947
1137.113103,-76.589155,-689.302399,14628.528700
1137.113401,-3676.279464,1378.604799,14322.172078
1137.113716,-4442.171019,3982.636086,10722.481770
1137.114014,-7122.791461,4595.349330,10109.768526
1137.114313,-7658.915550,4288.992708,10186.357681
1137.114612,-5591.008351,3523.101153,10109.768526
1137.114911,-1148.837332,1225.426488,9803.411904
1137.115209,2527.442131,-689.302399,12560.621502
1137.115508,3752.868619,-3752.868619,12560.621502
1137.115807,5361.240885,-3446.511997,10722.481770
1137.116095,5361.240885,-1761.550576,9267.287815
1137.116395,2986.977064,-689.302399,8424.807105
1137.116695,-689.302399,-995.659021,10262.946837
1137.116995,-689.302399,153.178311,10722.481770
1137.117295,3293.333686,2604.031287,8960.931193
1137.117595,3599.690308,3369.922842,10109.768526
1137.117895,3599.690308,3982.636086,10416.125148
1137.118195,-229.767466,3676.279464,12254.264880
1137.118494,-2067.907198,3829.457775,10952.249236
1137.118794,-7505.737239,1684.961421,10416.125148
1137.119093,-9880.001059,-536.124088,11794.729947
1137.119392,-7505.737239,-3293.333686,10492.714303
1137.119691,-2067.907198,-4518.760174,9803.411904
1137.119991,3140.155375,-5820.775818,10722.481770
1137.120290,4901.705952,-5820.775818,11258.605858
1137.120589,5054.884263,-5667.597507,11335.195014
1137.120896,4212.403552,-3906.046930,9573.644437
1137.121195,-76.589155,-4518.760174,9650.233593
1137.121495,-2910.387909,-3906.046930,9573.644437
1137.121794,-2374.263820,-2221.085509,9573.644437
1137.122093,306.356622,-382.945777,10262.946837
1137.122392,3599.690308,1378.604799,10569.303459
1137.122691,4671.938485,3829.457775,11488.373325
1137.122991,4059.225241,4978.295107,11488.373325
1137.123311,-995.659021,5131.473418,10569.303459
1137.123608,-6203.721595,1684.961421,10416.125148
1137.123905,-10339.535992,-995.659021,11641.551636
1137.124202,-8424.807105,-3752.868619,10875.660081
1137.124499,-3982.636086,-5514.419196,9573.644437
1137.124796,1072.248177,-8424.807105,10875.660081
1137.125093,3446.511997,-9190.698660,11488.373325
1137.125390,4901.705952,-5973.954129,11641.551636
1137.125709,4365.581863,-2527.442131,10186.357681
1137.126007,2986.977064,765.891555,7658.915550
1137.126306,153.178311,3216.744531,9114.109504
1137.126604,306.356622,5437.830040,9573.644437
1137.126902,2833.798753,7122.791461,8807.752882
1137.127200,3446.511997,8195.039638,10416.125148
1137.127499,3446.511997,6663.256528,11641.551636
1137.127797,612.713244,6356.899906,12254.264880
1137.128110,-2374.263820,4595.349330,11182.016703
1137.128406,-5284.651729,3676.279464,11028.838392
1137.128702,-8731.163727,-229.767466,11488.373325
1137.128998,-6816.434839,-2680.620442,10186.357681
1137.129294,-2374.263820,-4059.225241,9956.590215
1137.129590,2374.263820,-6893.023995,9803.411904
1137.129886,2833.798753,-8424.807105,11641.551636
1137.130182,2680.620442,-8118.450483,12560.621502
1137.130482,1991.318043,-4825.116796,10416.125148
1137.130782,765.891555,-842.480710,9343.876971
1137.131083,-2221.085509,-0.000000,9573.644437
1137.131384,-2067.907198,3216.744531,9650.233593
1137.131685,2680.620442,4595.349330,7965.272172
1137.131985,7582.326394,5897.364973,7888.683016
1137.132286,5820.775818,2910.387909,12101.086569
1137.132587,1991.318043,459.534933,13326.513057
1137.132894,-0.000000,-76.589155,10952.249236
1137.133195,-3523.101153,153.178311,9956.590215
1137.133495,-7352.558928,-3446.511997,9803.411904
1137.133795,-10952.249236,-7046.202306,11411.784169
1137.134096,-7352.558928,-7505.737239,10722.481770
1137.134396,-689.302399,-6893.023995,10186.357681
1137.134696,919.069866,-7199.380617,11488.373325
1137.134997,2986.977064,-6127.132440,11871.319102
1137.135277,2297.674665,-3293.333686,11564.962480
1137.135582,2527.442131,306.356622,8960.931193
1137.135887,153.178311,919.069866,8501.396260
1137.136192,-536.124088,459.534933,8807.752882
1137.136498,3599.690308,765.891555,8348.217949
1137.136803,8807.752882,1991.318043,8195.039638
1137.137108,9956.590215,2604.031287,9573.644437
1137.137413,4212.403552,-0.000000,12790.388968
1137.137686,153.178311,153.178311,12790.388968
1137.137989,-4825.116796,1378.604799,11488.373325
1137.138292,-11105.427547,919.069866,11182.016703
1137.138594,-14092.404612,-1302.015643,11794.729947
1137.138897,-11105.427547,-1302.015643,11641.551636
1137.139199,-2910.387909,-1148.837332,11488.373325
1137.139502,2986.977064,306.356622,12713.799813
1137.139805,7429.148083,919.069866,10722.481770
1137.140122,8348.217949,3523.101153,9803.411904
1137.140416,5820.775818,2450.852976,8501.396260
1137.140711,1991.318043,3063.566220,9114.109504
1137.141005,-229.767466,306.356622,8884.342038
1137.141300,459.534933,-536.124088,9573.644437
1137.141595,4059.225241,-1761.550576,10033.179370
1137.141889,6586.667373,-1302.015643,10416.125148
1137.142184,5361.240885,-1761.550576,11641.551636
1137.142507,-382.945777,-2833.798753,12943.567279
1137.142803,-4978.295107,-2067.907198,11258.605858
1137.143100,-9573.644437,-229.767466,11182.016703
1137.143397,-10645.892614,-536.124088,10339.535992
1137.143693,-9880.001059,-689.302399,11028.838392
1137.143990,-3523.101153,-1148.837332,9956.590215
1137.144287,3293.333686,-76.589155,11182.016703
1137.144583,6739.845684,153.178311,11028.838392
1137.144914,6739.845684,-536.124088,10569.303459
1137.145211,4748.527641,-1302.015643,9114.109504
1137.145507,919.069866,-2221.085509,8195.039638
1137.145804,-536.124088,-3599.690308,9650.233593
1137.146101,-1914.728887,-5667.597507,9420.466126
1137.146398,2986.977064,-4365.581863,8960.931193
1137.146695,5667.597507,-4518.760174,9114.109504
1137.146992,3140.155375,-4212.403552,12101.086569
1137.147300,-2067.907198,-5208.062574,14322.172078
1137.147600,-4748.527641,-689.302399,11947.908258
1137.147900,-7122.791461,612.713244,10109.768526
1137.148199,-9190.698660,1684.961421,9880.001059
1137.148499,-8424.807105,612.713244,11488.373325
1137.148799,-3216.744531,1684.961421,9956.590215
1137.149099,5973.954129,2297.674665,8807.752882
1137.149399,5820.775818,-689.302399,11794.729947
1137.149682,4671.938485,-1455.193954,13096.745590
1137.149985,3906.046930,306.356622,10416.125148
1137.150288,3446.511997,1684.961421,7582.326394
1137.150591,-689.302399,153.178311,8960.931193
1137.150893,-2604.031287,-2374.263820,10722.481770
1137.151196,-76.589155,-76.589155,10569.303459
1137.151499,4671.938485,1991.318043,10569.303459
1137.151802,2680.620442,-229.767466,11794.729947
1137.152084,306.356622,1225.426488,12943.567279
1137.152386,306.356622,3829.457775,10722.481770
1137.152689,-3063.566220,3676.279464,9573.644437
1137.152992,-6969.613150,4135.814397,9650.233593
1137.153295,-6663.256528,2144.496354,10722.481770
1137.153597,-3369.922842,-76.589155,10569.303459
1137.153900,2527.442131,-2374.263820,10109.768526
1137.154203,3906.046930,-3906.046930,11335.195014
1137.154492,3446.511997,-5208.062574,11947.908258
1137.154788,2144.496354,-3293.333686,10109.768526
1137.155084,-842.480710,-4212.403552,8348.217949
1137.155380,-4825.116796,-4518.760174,9803.411904
1137.155676,-3369.922842,-2833.798753,10033.179370
1137.155971,1378.604799,-382.945777,8501.396260
1137.156267,5361.240885,1225.426488,9650.233593
1137.156563,5514.419196,765.891555,11794.729947
1137.156877,5973.954129,3063.566220,11335.195014
1137.157175,2144.496354,3676.279464,10492.714303
1137.157472,-3982.636086,2604.031287,9573.644437
1137.157770,-7505.737239,-382.945777,9803.411904
1137.158068,-9190.698660,-3140.155375,10569.303459
1137.158366,-6050.543284,-6127.132440,11182.016703
1137.158664,-2910.387909,-9037.520349,12101.086569
1137.158962,2297.674665,-8271.628794,11182.016703
1137.159269,3752.868619,-7199.380617,11641.551636
1137.159568,2527.442131,-4901.705952,11335.195014
1137.159868,1072.248177,-3293.333686,9114.109504
1137.160168,-76.589155,-842.480710,9114.109504
1137.160467,-689.302399,459.534933,9497.055282
1137.160767,459.534933,-229.767466,10416.125148
1137.161067,3906.046930,2450.852976,9803.411904
1137.161366,6893.023995,4442.171019,10262.946837
1137.161663,3599.690308,3676.279464,12254.264880
1137.161962,-76.589155,3216.744531,12254.264880
1137.162262,-2910.387909,5437.830040,10645.892614
1137.162562,-4442.171019,3523.101153,9573.644437
1137.162861,-6510.078217,1531.783110,10952.249236
1137.163161,-4595.349330,-1148.837332,10722.481770
1137.163460,1838.139732,-1608.372265,9420.466126
1137.163760,6280.310751,-2986.977064,9803.411904
1137.164055,1838.139732,-6739.845684,13249.923901
1137.164358,-1761.550576,-5973.954129,14015.815456
1137.164662,-382.945777,-995.659021,9956.590215
1137.164965,-689.302399,1991.318043,6969.613150
1137.165268,-4135.814397,1838.139732,9650.233593
1137.165572,-4442.171019,1991.318043,10569.303459
1137.165875,1378.604799,5591.008351,9880.001059
1137.166179,5667.597507,5131.473418,9267.287815
1137.166456,1991.318043,459.534933,11947.908258
1137.166758,-382.945777,-382.945777,13479.691368
1137.167061,1378.604799,306.356622,9114.109504
1137.167363,1378.604799,1225.426488,7275.969772
1137.167665,-2604.031287,-3752.868619,9114.109504
1137.167968,-4595.349330,-6127.132440,10645.892614
1137.168270,459.534933,-5361.240885,10722.481770
1137.168573,4748.527641,-4671.938485,10262.946837
1137.168882,1684.961421,-6280.310751,11641.551636
1137.169180,-1761.550576,-5820.775818,12943.567279
1137.169479,-3063.566220,-4518.760174,11488.373325
1137.169778,-6969.613150,-1608.372265,11641.551636
1137.170076,-5591.008351,-229.767466,8654.574571
1137.170375,-3369.922842,459.534933,9420.466126
1137.170674,3906.046930,1378.604799,9037.520349
1137.170972,8041.861327,153.178311,10262.946837
1137.171279,7429.148083,612.713244,12101.086569
1137.171577,6893.023995,1531.783110,10569.303459
1137.171876,4901.705952,-0.000000,9267.287815
1137.172174,-1914.728887,-1148.837332,9726.822748
1137.172472,-7122.791461,-3906.046930,11182.016703
1137.172770,-10033.179370,-5054.884263,11335.195014
1137.173068,-4442.171019,-3752.868619,10492.714303
1137.173366,-1148.837332,-3293.333686,12407.443191
1137.173682,153.178311,-1914.728887,13862.637145
1137.173981,306.356622,1225.426488,12637.210657
1137.174279,2144.496354,5437.830040,9650.233593
1137.174578,-1761.550576,6203.721595,9343.876971
1137.174876,-3216.744531,4288.992708,9573.644437
1137.175175,-1761.550576,4135.814397,9726.822748
1137.175473,4212.403552,3523.101153,8271.628794
1137.175772,9420.466126,306.356622,7812.093861
1137.176086,9956.590215,-76.589155,9956.590215
1137.176385,7582.326394,-1914.728887,11182.016703
1137.176683,2986.977064,-1608.372265,9956.590215
1137.176982,-1608.372265,-842.480710,9956.590215
1137.177281,-8271.628794,-1914.728887,9956.590215
1137.177579,-11871.319102,-4518.760174,11794.729947
1137.177878,-11258.605858,-4212.403552,12177.675724
1137.178177,-3676.279464,-1148.837332,12101.086569
1137.178454,-1455.193954,-842.480710,12943.567279
1137.178755,919.069866,459.534933,12407.443191
1137.179056,2833.798753,2144.496354,11641.551636
