#time,accel_x,accel_y,accel_z
1197.235151,-229.767466,-842.480710,10569.303459
1197.235454,-382.945777,-842.480710,10186.357681
1197.235757,-76.589155,-536.124088,10416.125148
1197.236059,459.534933,-689.302399,10875.660081
1197.236362,4212.403552,-382.945777,10109.768526
1197.236657,6280.310751,-76.589155,10033.179370
1197.236956,11335.195014,-0.000000,9573.644437
1197.237256,15011.474478,153.178311,9573.644437
1197.237555,19147.288875,-76.589155,9114.109504
1197.237854,22134.265939,459.534933,8807.752882
1197.238154,21674.731006,1378.604799,9650.233593
1197.238453,22440.622561,2450.852976,8654.574571
1197.238752,19760.002119,2144.496354,9267.287815
1197.239040,17692.094920,1531.783110,9573.644437
1197.239340,14705.117856,1225.426488,9956.590215
1197.239639,14398.761234,765.891555,10799.070925
1197.239939,17998.451542,612.713244,10416.125148
1197.240239,22900.157494,919.069866,10033.179370
1197.240538,27648.685135,1378.604799,9114.109504
1197.240838,26882.793580,-995.659021,8348.217949
1197.241137,21521.552695,-3446.511997,11641.551636
1197.241470,13403.102212,-5973.954129,15624.187722
1197.241765,8807.752882,-4212.403552,15164.652789
1197.242060,6433.489062,-1761.550576,14168.993767
1197.242356,4059.225241,-382.945777,13556.280523
1197.242651,1225.426488,919.069866,14628.528700
1197.242947,1225.426488,2450.852976,17079.381676
1197.243242,7275.969772,3982.636086,13786.047990
1197.243537,16390.079277,7582.326394,10416.125148
1197.243844,24202.173138,6816.434839,7888.683016
1197.244145,27648.685135,1378.604799,7888.683016
1197.244446,30022.948956,-2833.798753,7122.791461
1197.244747,35231.011530,-5208.062574,6050.543284
1197.245047,36226.670551,-8884.342038,5208.062574
1197.245348,35920.313929,-10339.535992,6586.667373
1197.245649,30482.483889,-9190.698660,9956.590215
1197.245950,24814.886382,-4671.938485,10569.303459
1197.246266,18994.110564,-536.124088,11641.551636
1197.246560,13709.458834,3216.744531,12943.567279
1197.246853,6127.132440,5897.364973,13020.156435
1197.247147,-1148.837332,5591.008351,12943.567279
1197.247441,-4748.527641,3216.744531,13020.156435
1197.247734,-2221.085509,-3140.155375,11794.729947
1197.248028,-842.480710,-6893.023995,12560.621502
1197.248322,7046.202306,-4901.705952,11258.605858
1197.248640,16926.203365,-995.659021,9573.644437
1197.248939,26116.902025,4595.349330,7046.202306
1197.249237,28414.576690,7275.969772,7275.969772
1197.249535,23512.870738,7735.504705,8960.931193
1197.249833,14858.296167,5897.364973,8654.574571
1197.250132,1072.248177,-995.659021,10262.946837
1197.250430,-10799.070925,-8731.163727,14628.528700
1197.250728,-18075.040698,-11564.962480,15547.598566
1197.251041,-16160.311810,-11564.962480,14858.296167
1197.251340,-4288.992708,-9037.520349,11871.319102
1197.251638,5208.062574,-4212.403552,9037.520349
1197.251937,15164.652789,2450.852976,9420.466126
1197.252235,20066.358741,7122.791461,8501.396260
1197.252533,21981.087628,12560.621502,6280.310751
1197.252832,13403.102212,12101.086569,8041.861327
1197.253130,-1761.550576,8654.574571,11871.319102
1197.253430,-10952.249236,4442.171019,12254.264880
1197.253731,-19683.412963,1991.318043,13556.280523
1197.254031,-19530.234652,-5361.240885,12560.621502
1197.254332,-18687.753942,-9190.698660,12560.621502
1197.254633,-11947.908258,-15624.187722,14781.707011
1197.254934,3599.690308,-14858.296167,10262.946837
1197.255234,20525.893674,-10799.070925,3293.333686
1197.255535,28108.220068,-10339.535992,5208.062574
1197.255842,30788.840511,-7812.093861,5054.884263
1197.256139,26040.312870,1072.248177,5667.597507
1197.256436,17998.451542,6510.078217,6280.310751
1197.256733,3293.333686,4595.349330,5284.651729
1197.257030,-15241.241944,3369.922842,12330.854035
1197.257327,-28031.630913,-689.302399,17002.792521
1197.257624,-33316.282642,-76.589155,15547.598566
1197.257920,-30942.018822,919.069866,15317.831100
1197.258234,-19989.769585,-229.767466,15088.063633
1197.258535,-8884.342038,-2067.907198,11947.908258
1197.258835,5361.240885,-842.480710,13786.047990
1197.259135,16236.900966,-1608.372265,12943.567279
1197.259436,27801.863446,-382.945777,4978.295107
1197.259736,30329.305578,4135.814397,4901.705952
1197.260036,26729.615269,765.891555,2986.977064
1197.260337,12484.032346,-1148.837332,7505.737239
1197.260655,-3829.457775,-1148.837332,13249.923901
1197.260951,-11871.319102,-382.945777,10262.946837
1197.261246,-18840.932253,2757.209598,12560.621502
1197.261541,-19070.699719,4595.349330,15700.776877
1197.261836,-14092.404612,4825.116796,14705.117856
1197.262131,-4978.295107,9573.644437,13862.637145
1197.262427,8041.861327,10875.660081,13096.745590
1197.262722,15471.009411,7582.326394,8654.574571
1197.263039,19453.645497,4978.295107,9114.109504
1197.263338,18304.808164,2757.209598,10569.303459
1197.263636,14398.761234,-2833.798753,4518.760174
1197.263935,4059.225241,-5820.775818,8041.861327
1197.264233,-7122.791461,-9650.233593,10109.768526
1197.264532,-19070.699719,-12484.032346,9343.876971
1197.264831,-27572.095980,-9726.822748,16236.900966
1197.265129,-27265.739358,-7965.272172,17155.970832
1197.265429,-21904.498473,-4365.581863,15930.544344
1197.265729,-10645.892614,4595.349330,15777.366033
1197.266029,8041.861327,9803.411904,8654.574571
1197.266329,18764.343097,14245.582923,4059.225241
1197.266629,23742.638205,9114.109504,7429.148083
1197.266929,21368.374384,-4059.225241,7888.683016
1197.267229,16083.722655,-8424.807105,6816.434839
1197.267529,10875.660081,-11564.962480,6663.256528
1197.267836,1072.248177,-16696.435899,3140.155375
1197.268136,-10033.179370,-15164.652789,10262.946837
1197.268437,-13939.226301,-11105.427547,12484.032346
1197.268737,-15241.241944,-7965.272172,11335.195014
1197.269037,-15547.598566,-76.589155,16390.079277
1197.269337,-9190.698660,2910.387909,15394.420255
1197.269638,-842.480710,6663.256528,11182.016703
1197.269938,8195.039638,13173.334746,10262.946837
1197.270246,16926.203365,11028.838392,7888.683016
1197.270542,17538.916609,6663.256528,6127.132440
1197.270839,10875.660081,2297.674665,9956.590215
1197.271135,5667.597507,-2527.442131,8195.039638
1197.271432,-5591.008351,-4671.938485,7582.326394
1197.271728,-10952.249236,-4825.116796,10416.125148
1197.272025,-16619.846743,-9497.055282,10569.303459
1197.272321,-21215.196073,-7352.558928,15471.009411
1197.272638,-17309.149143,-3752.868619,18304.808164
1197.272939,-6663.256528,-536.124088,12254.264880
1197.273239,5054.884263,7122.791461,10569.303459
1197.273540,15777.366033,9420.466126,8041.861327
1197.273841,18994.110564,7429.148083,4518.760174
1197.274141,17232.559987,8501.396260,6433.489062
1197.274442,13249.923901,3676.279464,7199.380617
1197.274743,3446.511997,-2221.085509,6203.721595
1197.275024,-6663.256528,-4518.760174,12024.497413
1197.275327,-11871.319102,-8424.807105,13556.280523
1197.275630,-17921.862387,-9190.698660,14475.350389
1197.275932,-16696.435899,-5514.419196,17155.970832
1197.276235,-12254.264880,-3752.868619,15547.598566
1197.276538,-6663.256528,153.178311,13173.334746
1197.276840,1378.604799,3523.101153,12943.567279
1197.277143,9803.411904,3216.744531,8424.807105
1197.277375,15471.009411,4825.116796,5208.062574
1197.277679,17538.916609,3676.279464,5973.954129
1197.277983,14245.582923,-1914.728887,3293.333686
1197.278287,5667.597507,-1608.372265,8195.039638
1197.278591,-229.767466,-6739.845684,10952.249236
1197.278895,-10339.535992,-11258.605858,14168.993767
1197.279199,-14934.885322,-10645.892614,16236.900966
1197.279503,-10799.070925,-6893.023995,15088.063633
1197.279817,-6816.434839,-4901.705952,10952.249236
1197.280115,-1608.372265,612.713244,11718.140791
1197.280413,6127.132440,2757.209598,8348.217949
1197.280711,9650.233593,3829.457775,5208.062574
1197.281009,10875.660081,2450.852976,8195.039638
1197.281306,6280.310751,-1761.550576,6969.613150
1197.281604,765.891555,-3293.333686,7812.093861
1197.281902,-2910.387909,-2680.620442,10416.125148
1197.282209,-4748.527641,-5361.240885,9267.287815
1197.282510,-7199.380617,-3293.333686,11258.605858
1197.282810,-8118.450483,-1914.728887,15547.598566
1197.283111,-8118.450483,-536.124088,13709.458834
1197.283411,-3369.922842,2910.387909,12560.621502
1197.283712,2986.977064,4135.814397,10875.660081
1197.284012,5361.240885,1225.426488,6739.845684
1197.284313,4059.225241,1225.426488,9267.287815
1197.284610,3140.155375,-2374.263820,10109.768526
1197.284909,1684.961421,-1608.372265,8501.396260
1197.285209,2297.674665,1684.961421,9343.876971
1197.285508,3599.690308,1225.426488,9573.644437
1197.285808,-689.302399,1225.426488,11028.838392
1197.286108,-2221.085509,4748.527641,14934.885322
1197.286407,-2450.852976,3829.457775,13326.513057
1197.286707,-4595.349330,3063.566220,12330.854035
1197.287002,-2067.907198,1225.426488,14092.404612
1197.287302,459.534933,-1914.728887,11488.373325
1197.287602,2833.798753,-1914.728887,8731.163727
1197.287902,3752.868619,-1914.728887,9114.109504
1197.288202,5208.062574,-2986.977064,6663.256528
1197.288502,3140.155375,-842.480710,7122.791461
1197.288802,153.178311,-1148.837332,9956.590215
1197.289103,-2450.852976,-2527.442131,10569.303459
1197.289414,-4825.116796,-1608.372265,12713.799813
1197.289712,-5284.651729,-2986.977064,13249.923901
1197.290009,-3982.636086,-1914.728887,10799.070925
1197.290306,-3063.566220,612.713244,11258.605858
1197.290604,1225.426488,153.178311,9267.287815
1197.290901,-1761.550576,-5361.240885,9726.822748
1197.291199,-1914.728887,-6739.845684,12407.443191
1197.291496,3446.511997,-5514.419196,7429.148083
1197.291796,4365.581863,-5054.884263,3676.279464
1197.292096,4059.225241,-5054.884263,7965.272172
1197.292396,-0.000000,-6586.667373,10416.125148
1197.292696,-842.480710,-536.124088,10952.249236
1197.292996,-2067.907198,306.356622,12484.032346
1197.293296,-4825.116796,-995.659021,12101.086569
1197.293596,-8118.450483,-1608.372265,14551.939545
1197.293896,-3369.922842,153.178311,15241.241944
1197.294203,5667.597507,2450.852976,7735.504705
1197.294502,7888.683016,4748.527641,7275.969772
1197.294801,5208.062574,765.891555,11182.016703
1197.295100,2297.674665,306.356622,9650.233593
1197.295399,3752.868619,5131.473418,9803.411904
1197.295697,2297.674665,2910.387909,10492.714303
1197.295996,-3063.566220,612.713244,10109.768526
1197.296295,-4978.295107,1378.604799,14322.172078
1197.296612,-5284.651729,-229.767466,15394.420255
1197.296910,-2757.209598,2144.496354,12101.086569
1197.297209,-229.767466,4135.814397,12943.567279
1197.297507,3293.333686,2757.209598,9267.287815
1197.297806,4901.705952,1378.604799,7582.326394
1197.298104,3446.511997,2910.387909,9650.233593
1197.298402,3293.333686,153.178311,6050.543284
1197.298701,-382.945777,-995.659021,7735.504705
1197.299015,-2374.263820,-2067.907198,10799.070925
1197.299314,-5591.008351,-4059.225241,9497.055282
1197.299613,-9343.876971,-2067.907198,12713.799813
1197.299911,-7352.558928,-2527.442131,14015.815456
1197.300210,-3216.744531,-2986.977064,11182.016703
1197.300509,1991.318043,-536.124088,11488.373325
1197.300807,5820.775818,-1302.015643,10492.714303
1197.301106,8041.861327,-2986.977064,5591.008351
1197.301394,6127.132440,-4518.760174,8195.039638
1197.301694,1378.604799,-8118.450483,9956.590215
1197.301994,-3982.636086,-7965.272172,8501.396260
1197.302294,-3676.279464,-3752.868619,11488.373325
1197.302594,-1608.372265,-689.302399,8960.931193
1197.302894,-4825.116796,-76.589155,11564.962480
1197.303193,-6663.256528,1072.248177,16696.435899
1197.303493,-1455.193954,-76.589155,12943.567279
1197.303793,3906.046930,2450.852976,10952.249236
1197.304092,7888.683016,306.356622,11028.838392
1197.304391,9420.466126,-1608.372265,9114.109504
1197.304691,9650.233593,-382.945777,7046.202306
1197.304990,7046.202306,-1455.193954,8577.985416
1197.305289,153.178311,-6586.667373,8807.752882
1197.305588,-8118.450483,-4901.705952,12560.621502
1197.305888,-8424.807105,-2067.907198,13632.869679
1197.306195,-6816.434839,1991.318043,9573.644437
1197.306495,-6356.899906,6356.899906,12790.388968
1197.306795,-5284.651729,7429.148083,14092.404612
1197.307095,153.178311,8501.396260,11105.427547
1197.307395,4059.225241,8654.574571,12330.854035
1197.307695,5820.775818,4135.814397,8118.450483
1197.307995,6280.310751,765.891555,5744.186662
1197.308295,1991.318043,-4825.116796,10033.179370
1197.308616,919.069866,-8884.342038,9267.287815
1197.308916,-995.659021,-5667.597507,9114.109504
1197.309216,-1455.193954,-842.480710,10569.303459
1197.309517,-4442.171019,-1914.728887,9650.233593
1197.309817,-6356.899906,1072.248177,11028.838392
1197.310117,-6969.613150,2757.209598,14015.815456
1197.310418,-4748.527641,1531.783110,10722.481770
1197.310718,-842.480710,2604.031287,11871.319102
1197.310991,3906.046930,765.891555,12713.799813
1197.311291,6433.489062,-1914.728887,7429.148083
1197.311591,8807.752882,-536.124088,8195.039638
1197.311891,6280.310751,-2833.798753,9497.055282
1197.312191,2986.977064,-6739.845684,7735.504705
1197.312491,-382.945777,-4518.760174,11564.962480
1197.312791,-0.000000,-1761.550576,12254.264880
1197.313091,-382.945777,-842.480710,8271.628794
1197.313409,-1914.728887,-76.589155,12330.854035
1197.313705,-3982.636086,-1914.728887,14015.815456
1197.314000,-4442.171019,-2527.442131,10645.892614
1197.314296,-1914.728887,-0.000000,12330.854035
1197.314592,-995.659021,-2374.263820,9420.466126
1197.314888,-1608.372265,-3752.868619,10875.660081
1197.315184,306.356622,-2986.977064,11182.016703
1197.315480,5667.597507,-536.124088,4212.403552
1197.315780,3906.046930,765.891555,7352.558928
1197.316081,-76.589155,-1148.837332,10952.249236
1197.316381,-995.659021,-995.659021,8731.163727
1197.316682,-536.124088,3216.744531,12101.086569
1197.316983,-5284.651729,919.069866,13556.280523
1197.317284,-6356.899906,-3140.155375,11794.729947
1197.317584,-5284.651729,-2067.907198,13249.923901
1197.317885,153.178311,-536.124088,9880.001059
1197.318192,765.891555,-2374.263820,7352.558928
1197.318493,1531.783110,-689.302399,9726.822748
1197.318794,3446.511997,306.356622,9037.520349
1197.319095,3446.511997,1838.139732,7965.272172
1197.319396,2144.496354,4135.814397,10569.303459
1197.319697,1072.248177,4442.171019,8807.752882
1197.319998,-995.659021,3676.279464,9880.001059
1197.320299,-4748.527641,919.069866,15164.652789
1197.320579,-4595.349330,-2067.907198,13709.458834
1197.320884,-1148.837332,306.356622,12713.799813
1197.321189,4671.938485,612.713244,10722.481770
1197.321495,6433.489062,-1455.193954,8501.396260
1197.321800,4671.938485,-842.480710,9420.466126
1197.322105,2680.620442,-1148.837332,9650.233593
1197.322410,1072.248177,-2527.442131,6816.434839
1197.322715,-1761.550576,-689.302399,10569.303459
1197.323034,-5591.008351,-3446.511997,12407.443191
1197.323327,-7505.737239,-1761.550576,12024.497413
1197.323619,-3676.279464,2450.852976,14475.350389
1197.323912,-76.589155,1531.783110,10875.660081
1197.324205,306.356622,2297.674665,10109.768526
1197.324497,1684.961421,2604.031287,12024.497413
1197.324790,1531.783110,-1148.837332,8654.574571
1197.325083,2527.442131,-2833.798753,5973.954129
1197.325400,459.534933,-6433.489062,10416.125148
1197.325698,-2067.907198,-10645.892614,8960.931193
1197.325996,-3829.457775,-8731.163727,10569.303459
1197.326293,-842.480710,-4901.705952,10033.179370
1197.326591,-2221.085509,-4059.225241,9190.698660
1197.326889,-5897.364973,-2680.620442,14628.528700
1197.327187,-3216.744531,1225.426488,13556.280523
1197.327484,2374.263820,5591.008351,8501.396260
1197.327784,4901.705952,8041.861327,9114.109504
1197.328083,6586.667373,2757.209598,8424.807105
1197.328383,3599.690308,-382.945777,8424.807105
1197.328682,1991.318043,-2221.085509,10569.303459
1197.328981,-689.302399,-4365.581863,9650.233593
1197.329280,-3523.101153,-4825.116796,9573.644437
1197.329579,-4288.992708,-3599.690308,12790.388968
1197.329878,-2450.852976,-2374.263820,11718.140791
1197.330192,-0.000000,1838.139732,12101.086569
1197.330491,2680.620442,6510.078217,12254.264880
1197.330789,4748.527641,5744.186662,8960.931193
1197.331088,2680.620442,5591.008351,11794.729947
1197.331387,3140.155375,3982.636086,10952.249236
1197.331686,2833.798753,919.069866,8501.396260
1197.331984,-0.000000,-536.124088,9803.411904
1197.332283,-2757.209598,-2221.085509,9420.466126
1197.332590,-7199.380617,-4365.581863,9420.466126
1197.332887,-8577.985416,-1302.015643,12254.264880
1197.333185,-7352.558928,306.356622,11794.729947
1197.333482,-5591.008351,306.356622,10109.768526
1197.333779,-2067.907198,1225.426488,13632.869679
1197.334076,1225.426488,153.178311,13249.923901
1197.334374,5361.240885,1531.783110,9114.109504
1197.334671,8654.574571,765.891555,9190.698660
1197.334967,7122.791461,-4518.760174,7658.915550
1197.335268,4212.403552,-5667.597507,8271.628794
1197.335569,-2604.031287,-7199.380617,11335.195014
1197.335870,-5437.830040,-6280.310751,9114.109504
1197.336172,-7122.791461,-3293.333686,9880.001059
1197.336473,-5284.651729,-689.302399,10722.481770
1197.336774,-5437.830040,-1148.837332,10569.303459
1197.337075,-4135.814397,2144.496354,13326.513057
1197.337369,153.178311,1072.248177,12943.567279
1197.337670,5973.954129,765.891555,9497.055282
1197.337971,9497.055282,1531.783110,11182.016703
1197.338272,14168.993767,-536.124088,8501.396260
1197.338573,10722.481770,-3140.155375,5897.364973
1197.338874,4671.938485,-4365.581863,8884.342038
1197.339175,-1302.015643,-5973.954129,9420.466126
1197.339476,-8884.342038,-5973.954129,9420.466126
1197.339764,-11258.605858,-3906.046930,12790.388968
1197.340064,-12713.799813,-2833.798753,13403.102212
1197.340364,-13326.513057,919.069866,14168.993767
1197.340665,-5897.364973,5437.830040,14551.939545
1197.340965,1225.426488,8195.039638,11411.784169
1197.341265,7046.202306,9650.233593,9726.822748
1197.341566,8960.931193,6663.256528,9037.520349
1197.341866,7429.148083,306.356622,6816.434839
1197.342175,5514.419196,-2680.620442,8654.574571
1197.342474,2986.977064,-5973.954129,8501.396260
1197.342772,-1608.372265,-7965.272172,8424.807105
1197.343070,-6050.543284,-6739.845684,12177.675724
1197.343369,-7505.737239,-4671.938485,11488.373325
1197.343667,-6816.434839,-995.659021,10875.660081
1197.343966,-6356.899906,1531.783110,14015.815456
1197.344264,-5131.473418,2910.387909,14628.528700
1197.344537,-689.302399,5284.651729,12254.264880
1197.344841,4518.760174,7122.791461,11411.784169
1197.345146,8807.752882,6816.434839,8960.931193
1197.345451,9420.466126,3523.101153,6127.132440
1197.345755,7582.326394,765.891555,8654.574571
1197.346060,2986.977064,-4212.403552,8424.807105
1197.346365,-3063.566220,-4212.403552,8884.342038
1197.346669,-4595.349330,-5973.954129,11564.962480
1197.346966,-7965.272172,-7505.737239,12024.497413
1197.347268,-6969.613150,-6127.132440,13786.047990
1197.347571,-5591.008351,-2374.263820,14551.939545
1197.347874,-76.589155,-995.659021,10262.946837
1197.348177,3599.690308,2604.031287,10492.714303
1197.348480,8960.931193,1225.426488,9956.590215
1197.348783,9956.590215,1684.961421,5208.062574
1197.349086,9956.590215,1838.139732,6739.845684
1197.349380,5208.062574,-0.000000,7199.380617
1197.349677,-842.480710,-2527.442131,6050.543284
1197.349974,-8271.628794,-3752.868619,11641.551636
1197.350271,-10339.535992,-6280.310751,11028.838392
1197.350568,-11564.962480,-5054.884263,11335.195014
1197.350864,-11718.140791,-5514.419196,15088.063633
1197.351161,-10952.249236,-8271.628794,16313.490121
1197.351458,-3369.922842,-3446.511997,14551.939545
1197.351770,8348.217949,459.534933,10799.070925
1197.352070,15164.652789,1838.139732,5667.597507
1197.352370,13556.280523,1684.961421,6586.667373
1197.352670,8960.931193,153.178311,8501.396260
1197.352970,5514.419196,1225.426488,5208.062574
1197.353270,-1761.550576,1378.604799,10109.768526
1197.353570,-8271.628794,-2833.798753,12560.621502
1197.353870,-15088.063633,-3140.155375,13173.334746
1197.354169,-13786.047990,306.356622,17309.149143
1197.354469,-7965.272172,1838.139732,15853.955188
1197.354768,306.356622,3216.744531,13249.923901
1197.355067,8501.396260,7582.326394,12560.621502
1197.355366,16236.900966,6969.613150,9267.287815
1197.355666,19453.645497,7275.969772,5667.597507
1197.355965,15777.366033,4825.116796,4825.116796
1197.356264,7735.504705,-2067.907198,5284.651729
1197.356605,-6663.256528,-3446.511997,9037.520349
1197.356897,-15394.420255,-5667.597507,13786.047990
1197.357189,-18381.397320,-5361.240885,12790.388968
1197.357480,-15853.955188,-995.659021,14322.172078
1197.357772,-10799.070925,765.891555,15088.063633
1197.358064,-3676.279464,3523.101153,12637.210657
1197.358356,2680.620442,7582.326394,11488.373325
1197.358648,12177.675724,5591.008351,7275.969772
1197.358968,12177.675724,1378.604799,4748.527641
1197.359265,10722.481770,-4212.403552,6969.613150
1197.359562,6893.023995,-8271.628794,7582.326394
1197.359859,919.069866,-10339.535992,6586.667373
1197.360156,-3523.101153,-10339.535992,10416.125148
1197.360453,-5284.651729,-9880.001059,10569.303459
1197.360750,-10492.714303,-6586.667373,11105.427547
1197.361047,-11564.962480,-3293.333686,15088.063633
1197.361366,-9573.644437,-1914.728887,14705.117856
1197.361664,-3829.457775,1991.318043,13326.513057
1197.361962,5667.597507,4442.171019,12637.210657
1197.362261,12484.032346,3982.636086,7582.326394
1197.362559,14705.117856,3829.457775,5820.775818
1197.362857,13862.637145,1531.783110,7275.969772
1197.363155,7888.683016,-4212.403552,6510.078217
1197.363454,-1455.193954,-3906.046930,11335.195014
1197.363766,-7122.791461,-5054.884263,12407.443191
1197.364065,-11411.784169,-4212.403552,11028.838392
1197.364363,-12560.621502,-2221.085509,15088.063633
1197.364662,-12407.443191,-689.302399,16696.435899
1197.364960,-6050.543284,1531.783110,12560.621502
1197.365259,1991.318043,5744.186662,13479.691368
1197.365557,7429.148083,4288.992708,9956.590215
1197.365856,12177.675724,4825.116796,6280.310751
1197.366155,13249.923901,5591.008351,7275.969772
1197.366456,11641.551636,2910.387909,4212.403552
1197.366757,4059.225241,1684.961421,6356.899906
1197.367057,-4288.992708,-0.000000,10722.481770
1197.367358,-8271.628794,-1608.372265,9573.644437
1197.367659,-11718.140791,-229.767466,11947.908258
1197.367960,-14092.404612,-2680.620442,14628.528700
1197.368260,-11947.908258,-4671.938485,14015.815456
1197.368601,-8731.163727,-1455.193954,15777.366033
1197.368893,-536.124088,-995.659021,13326.513057
1197.369185,6893.023995,-0.000000,8424.807105
1197.369477,11794.729947,2757.209598,7735.504705
1197.369769,14168.993767,1531.783110,5667.597507
1197.370061,8501.396260,-842.480710,5514.419196
1197.370354,3293.333686,1072.248177,9114.109504
1197.370646,-76.589155,-229.767466,8884.342038
1197.370960,-7122.791461,-1761.550576,9803.411904
1197.371262,-11564.962480,-3293.333686,15471.009411
1197.371565,-11105.427547,-4365.581863,14475.350389
1197.371868,-6663.256528,-1761.550576,14168.993767
1197.372171,765.891555,-995.659021,14015.815456
1197.372473,7582.326394,-842.480710,11488.373325
1197.372776,9803.411904,2604.031287,8041.861327
1197.373079,13556.280523,2910.387909,6127.132440
1197.373352,8041.861327,-536.124088,5208.062574
1197.373655,2833.798753,-2833.798753,8807.752882
1197.373957,-2604.031287,-4901.705952,10722.481770
1197.374260,-7122.791461,-4365.581863,9420.466126
1197.374562,-8271.628794,-1914.728887,12101.086569
1197.374865,-7965.272172,-1148.837332,12713.799813
1197.375167,-9726.822748,-1302.015643,11718.140791
1197.375470,-10033.179370,-2067.907198,15853.955188
1197.375787,-8118.450483,-2680.620442,13862.637145
1197.376082,-995.659021,-382.945777,9803.411904
1197.376378,6586.667373,1684.961421,7275.969772
1197.376673,9114.109504,-0.000000,6280.310751
1197.376968,8960.931193,765.891555,5973.954129
1197.377264,6280.310751,1225.426488,8654.574571
1197.377559,1378.604799,-842.480710,9114.109504
1197.377854,-5744.186662,-2221.085509,10875.660081
1197.378154,-10492.714303,-2527.442131,14322.172078
1197.378451,-9880.001059,-3293.333686,12024.497413
1197.378749,-7812.093861,-1914.728887,13249.923901
1197.379046,-382.945777,-995.659021,14245.582923
1197.379344,5973.954129,919.069866,9803.411904
1197.379641,12637.210657,5131.473418,9267.287815
1197.379938,11794.729947,4748.527641,9037.520349
1197.380236,9420.466126,5131.473418,6127.132440
1197.380600,6893.023995,5591.008351,7429.148083
1197.380892,2144.496354,2604.031287,9650.233593
1197.381184,-4748.527641,-536.124088,11564.962480
1197.381476,-8884.342038,1838.139732,13403.102212
1197.381768,-6356.899906,-0.000000,12330.854035
1197.382060,-7658.915550,-995.659021,11947.908258
1197.382353,-5744.186662,-842.480710,15317.831100
1197.382645,-2450.852976,-1914.728887,12637.210657
1197.382953,765.891555,-1302.015643,9573.644437
1197.383252,5054.884263,-0.000000,9573.644437
1197.383552,5820.775818,-2221.085509,6739.845684
1197.383852,2833.798753,-2067.907198,7888.683016
1197.384152,2374.263820,-2680.620442,9650.233593
1197.384452,-1914.728887,-3293.333686,7812.093861
1197.384751,-5437.830040,-2986.977064,10722.481770
1197.385051,-9190.698660,-2986.977064,12407.443191
1197.385300,-7658.915550,-3752.868619,11718.140791
1197.385609,-5744.186662,-1914.728887,14092.404612
1197.385919,-689.302399,-4825.116796,11641.551636
1197.386229,2986.977064,-5514.419196,9726.822748
1197.386538,6893.023995,-4901.705952,9803.411904
1197.386848,9420.466126,-4518.760174,7505.737239
1197.387158,7429.148083,-3140.155375,6280.310751
1197.387468,6586.667373,765.891555,6893.023995
1197.387702,3752.868619,306.356622,6969.613150
1197.388011,-2910.387909,765.891555,10262.946837
1197.388319,-9190.698660,-2374.263820,15088.063633
1197.388628,-10952.249236,-4059.225241,14628.528700
1197.388937,-6203.721595,-0.000000,13403.102212
1197.389246,-995.659021,-76.589155,12866.978124
1197.389555,3752.868619,-1455.193954,9803.411904
1197.389864,4518.760174,3216.744531,10645.892614
1197.390153,7582.326394,2910.387909,8807.752882
1197.390449,7582.326394,1991.318043,6893.023995
1197.390745,1838.139732,3216.744531,9803.411904
1197.391041,1072.248177,765.891555,9956.590215
1197.391337,-3369.922842,2297.674665,9114.109504
1197.391633,-2757.209598,4288.992708,10416.125148
1197.391929,-6203.721595,306.356622,12330.854035
1197.392224,-9037.520349,-1455.193954,14168.993767
1197.392538,-5591.008351,-229.767466,13862.637145
1197.392836,-2221.085509,-3446.511997,11182.016703
1197.393134,459.534933,-3140.155375,10186.357681
1197.393432,5054.884263,-1148.837332,10722.481770
1197.393730,8195.039638,459.534933,7275.969772
1197.394027,8041.861327,3829.457775,6356.899906
1197.394325,4518.760174,3369.922842,9726.822748
1197.394623,-382.945777,1378.604799,9267.287815
1197.394930,-3063.566220,1991.318043,11335.195014
1197.395231,-5284.651729,459.534933,12713.799813
1197.395531,-6969.613150,-1761.550576,12101.086569
1197.395832,-6816.434839,-2680.620442,14015.815456
1197.396132,-995.659021,-4212.403552,12254.264880
1197.396433,-229.767466,-4825.116796,10339.535992
1197.396733,2297.674665,-4901.705952,11335.195014
1197.397034,3752.868619,-4365.581863,9267.287815
1197.397330,6893.023995,-995.659021,7275.969772
1197.397630,8348.217949,765.891555,9037.520349
1197.397930,6893.023995,1225.426488,9343.876971
1197.398229,2374.263820,3523.101153,9803.411904
1197.398529,-1302.015643,2450.852976,11564.962480
1197.398828,-7199.380617,-995.659021,11641.551636
1197.399128,-7352.558928,-1302.015643,12713.799813
1197.399427,-8731.163727,-3140.155375,13862.637145
1197.399722,-6203.721595,-6127.132440,10416.125148
1197.400022,-76.589155,-3752.868619,9880.001059
1197.400322,2374.263820,-4901.705952,10569.303459
1197.400623,5361.240885,-3599.690308,6280.310751
1197.400923,6280.310751,612.713244,7965.272172
1197.401223,7122.791461,1225.426488,8195.039638
1197.401523,-536.124088,-2833.798753,10109.768526
1197.401823,-4748.527641,-1148.837332,13939.226301
1197.402135,-4748.527641,-842.480710,11488.373325
1197.402432,-3369.922842,-1302.015643,8960.931193
1197.402730,-4442.171019,-4365.581863,13326.513057
1197.403027,-2374.263820,-4671.938485,12177.675724
1197.403324,1378.604799,-1608.372265,8884.342038
1197.403622,5054.884263,-76.589155,10262.946837
1197.403919,3906.046930,-536.124088,8807.752882
1197.404217,3599.690308,2450.852976,9573.644437
1197.404526,3752.868619,5131.473418,9880.001059
1197.404825,3599.690308,5284.651729,7812.093861
1197.405125,765.891555,4442.171019,10952.249236
1197.405424,-2221.085509,1225.426488,14322.172078
1197.405723,-2067.907198,1378.604799,11411.784169
1197.406023,-0.000000,3523.101153,12024.497413
1197.406322,765.891555,-1148.837332,12254.264880
1197.406622,-2450.852976,-1914.728887,11335.195014
1197.406929,-2221.085509,-689.302399,11028.838392
1197.407227,1378.604799,-842.480710,8731.163727
1197.407525,765.891555,612.713244,8195.039638
1197.407823,1531.783110,2297.674665,12024.497413
1197.408121,1072.248177,3523.101153,9803.411904
1197.408419,612.713244,3982.636086,9573.644437
1197.408718,-995.659021,1684.961421,11794.729947
1197.409016,-3982.636086,-689.302399,11335.195014
1197.409332,-7199.380617,-2680.620442,13173.334746
1197.409630,-1761.550576,-4518.760174,11641.551636
1197.409929,-2067.907198,-7352.558928,9420.466126
1197.410227,765.891555,-6280.310751,9343.876971
1197.410526,1991.318043,-6739.845684,9726.822748
1197.410824,1991.318043,-6280.310751,9114.109504
1197.411122,1684.961421,-2833.798753,10262.946837
1197.411421,3293.333686,-1608.372265,9650.233593
1197.411735,919.069866,919.069866,9573.644437
1197.412034,1072.248177,1838.139732,10722.481770
1197.412333,612.713244,765.891555,11182.016703
1197.412631,-1302.015643,612.713244,12101.086569
1197.412930,306.356622,153.178311,11028.838392
1197.413229,919.069866,-2067.907198,8960.931193
1197.413528,459.534933,-3906.046930,9037.520349
1197.413826,-2910.387909,-9497.055282,11794.729947
1197.414114,-4978.295107,-8884.342038,12560.621502
1197.414414,-995.659021,-3446.511997,10722.481770
1197.414714,1838.139732,-382.945777,8807.752882
1197.415014,765.891555,306.356622,9880.001059
1197.415314,306.356622,6203.721595,10569.303459
1197.415614,2144.496354,7582.326394,9726.822748
1197.415914,612.713244,4135.814397,9880.001059
1197.416214,-1302.015643,459.534933,13249.923901
1197.416514,-536.124088,-3752.868619,12560.621502
1197.416813,765.891555,-2067.907198,9880.001059
1197.417112,4212.403552,-1608.372265,8501.396260
1197.417411,1378.604799,-3446.511997,9267.287815
1197.417711,-3063.566220,-1455.193954,9803.411904
1197.418010,-1761.550576,1684.961421,10492.714303
1197.418309,-842.480710,2757.209598,9880.001059
1197.418608,-3829.457775,3982.636086,11641.551636
1197.418915,-2450.852976,4288.992708,12866.978124
1197.419215,612.713244,5897.364973,10875.660081
1197.419515,3446.511997,3369.922842,10952.249236
1197.419815,3293.333686,-995.659021,11028.838392
1197.420115,306.356622,-3752.868619,10339.535992
1197.420416,2374.263820,-1608.372265,9573.644437
1197.420716,1378.604799,-3906.046930,9114.109504
1197.421016,-1914.728887,-4365.581863,8960.931193
1197.421319,-5897.364973,-1302.015643,10722.481770
1197.421620,-4288.992708,-229.767466,11335.195014
1197.421920,-3063.566220,1072.248177,10875.660081
1197.422220,-1148.837332,3523.101153,12330.854035
1197.422521,153.178311,3063.566220,12560.621502
1197.422821,3599.690308,2450.852976,10722.481770
1197.423121,3752.868619,-382.945777,11794.729947
1197.423421,5361.240885,-2833.798753,10875.660081
1197.423740,4518.760174,-2221.085509,9190.698660
1197.424038,3293.333686,-2221.085509,7352.558928
1197.424336,1531.783110,-5973.954129,6969.613150
1197.424635,-4135.814397,-5054.884263,9267.287815
1197.424933,-6203.721595,-5973.954129,12254.264880
1197.425231,-6663.256528,-4901.705952,11335.195014
1197.425529,-4442.171019,-1302.015643,12254.264880
1197.425827,-3369.922842,-229.767466,12407.443191
1197.426140,1378.604799,459.534933,9114.109504
1197.426436,4059.225241,2297.674665,10875.660081
1197.426731,5054.884263,-1455.193954,10262.946837
1197.427026,-689.302399,-5973.954129,10722.481770
1197.427322,-995.659021,-4365.581863,10416.125148
1197.427617,612.713244,-3599.690308,8195.039638
1197.427912,-1455.193954,-3599.690308,7582.326394
1197.428207,-3369.922842,-1761.550576,9956.590215
1197.428507,-3982.636086,-689.302399,10416.125148
1197.428808,-1761.550576,2604.031287,12101.086569
1197.429108,-2067.907198,3216.744531,13556.280523
1197.429409,-229.767466,612.713244,11794.729947
1197.429710,-689.302399,1225.426488,13249.923901
1197.430011,4059.225241,919.069866,11564.962480
1197.430311,8654.574571,919.069866,6510.078217
1197.430612,7735.504705,1225.426488,8654.574571
1197.430919,6127.132440,-76.589155,10033.179370
1197.431216,1225.426488,459.534933,6816.434839
1197.431513,-1148.837332,1991.318043,9037.520349
1197.431810,-7658.915550,-1914.728887,12407.443191
1197.432107,-11947.908258,-1761.550576,13709.458834
1197.432404,-7352.558928,3523.101153,13939.226301
1197.432701,-1608.372265,4978.295107,10569.303459
1197.432998,1225.426488,3063.566220,10416.125148
1197.433306,1991.318043,2297.674665,13939.226301
1197.433605,5361.240885,1072.248177,11028.838392
1197.433904,7888.683016,153.178311,6663.256528
1197.434203,3752.868619,-1455.193954,9114.109504
1197.434502,-382.945777,-5667.597507,8195.039638
1197.434801,-4748.527641,-4671.938485,7965.272172
1197.435099,-5591.008351,-6739.845684,11258.605858
1197.435398,-6203.721595,-6739.845684,9803.411904
1197.435715,-6510.078217,-3446.511997,13556.280523
1197.436013,-3676.279464,-76.589155,13479.691368
1197.436312,2986.977064,1684.961421,10722.481770
1197.436610,5361.240885,3829.457775,12560.621502
1197.436909,8960.931193,1838.139732,10262.946837
1197.437207,7582.326394,612.713244,7735.504705
1197.437506,3906.046930,-1761.550576,10109.768526
1197.437804,1225.426488,-5361.240885,7582.326394
1197.438121,-2604.031287,-4901.705952,5973.954129
1197.438419,-6203.721595,-5820.775818,11794.729947
1197.438717,-10339.535992,-7965.272172,12713.799813
1197.439015,-11947.908258,-4825.116796,14934.885322
1197.439312,-8731.163727,-229.767466,15471.009411
1197.439610,-995.659021,1684.961421,11182.016703
1197.439908,4365.581863,5284.651729,10722.481770
1197.440206,10722.481770,4748.527641,8960.931193
1197.440505,12330.854035,3523.101153,7582.326394
1197.440805,14551.939545,1684.961421,7735.504705
1197.441105,9420.466126,-2680.620442,8348.217949
1197.441404,3599.690308,-5361.240885,6663.256528
1197.441704,-4135.814397,-5054.884263,9956.590215
1197.442003,-8577.985416,-5208.062574,10416.125148
1197.442303,-11564.962480,-2986.977064,9650.233593
1197.442602,-14934.885322,-1455.193954,14781.707011
1197.442858,-11947.908258,765.891555,14322.172078
1197.443164,-5284.651729,3369.922842,14322.172078
1197.443470,3599.690308,6203.721595,13403.102212
1197.443777,9650.233593,6203.721595,8501.396260
1197.444083,10875.660081,5744.186662,7888.683016
1197.444389,9114.109504,1531.783110,8807.752882
1197.444695,5820.775818,612.713244,6510.078217
1197.445002,765.891555,-995.659021,7275.969772
1197.445309,-6356.899906,-3446.511997,11718.140791
1197.445606,-9343.876971,-5054.884263,11411.784169
1197.445903,-10033.179370,-536.124088,13020.156435
1197.446200,-7658.915550,-0.000000,13632.869679
1197.446498,-5744.186662,-1302.015643,12713.799813
1197.446795,-2221.085509,-0.000000,14475.350389
1197.447092,7046.202306,306.356622,12177.675724
1197.447389,12943.567279,1531.783110,6816.434839
1197.447686,12177.675724,1225.426488,8041.861327
1197.447987,9420.466126,-1608.372265,6050.543284
1197.448288,5820.775818,-1761.550576,6816.434839
1197.448589,306.356622,-229.767466,9267.287815
1197.448890,-5744.186662,-4212.403552,8884.342038
1197.449191,-13939.226301,-5361.240885,12330.854035
1197.449492,-12560.621502,-4518.760174,15471.009411
1197.449793,-7122.791461,-3140.155375,12407.443191
1197.450088,-2757.209598,-1302.015643,11718.140791
1197.450389,765.891555,-1148.837332,13556.280523
1197.450690,2986.977064,-2527.442131,11105.427547
1197.450991,7582.326394,-2986.977064,9037.520349
1197.451291,10569.303459,-3140.155375,6816.434839
1197.451592,10109.768526,-4518.760174,2986.977064
1197.451893,4365.581863,-4518.760174,6893.023995
1197.452194,-689.302399,-3446.511997,9114.109504
1197.452506,-5897.364973,-76.589155,9420.466126
1197.452803,-8884.342038,1531.783110,12866.978124
1197.453101,-13326.513057,765.891555,15547.598566
1197.453398,-11258.605858,3829.457775,14705.117856
1197.453695,-3523.101153,7275.969772,14858.296167
1197.453993,2680.620442,3216.744531,12943.567279
1197.454290,9114.109504,765.891555,9650.233593
1197.454588,11182.016703,1684.961421,9803.411904
1197.454897,10262.946837,1072.248177,6510.078217
1197.455196,7735.504705,2910.387909,7275.969772
1197.455496,919.069866,1225.426488,8960.931193
1197.455795,-2604.031287,919.069866,8424.807105
1197.456094,-10339.535992,-76.589155,12713.799813
1197.456394,-14781.707011,-1761.550576,15394.420255
1197.456693,-10952.249236,-689.302399,14015.815456
1197.456993,-4748.527641,1684.961421,14015.815456
1197.457300,2374.263820,459.534933,13249.923901
1197.457599,8654.574571,919.069866,9497.055282
1197.457899,14551.939545,4442.171019,7582.326394
1197.458199,15164.652789,2604.031287,5208.062574
1197.458498,10875.660081,-382.945777,4901.705952
1197.458798,2144.496354,-4518.760174,8731.163727
1197.459098,-3063.566220,-6127.132440,7965.272172
1197.459398,-9343.876971,-7199.380617,9956.590215
1197.459694,-16696.435899,-9497.055282,15700.776877
1197.459993,-15853.955188,-8577.985416,15700.776877
1197.460292,-12101.086569,-3446.511997,15317.831100
1197.460591,-1455.193954,2604.031287,12560.621502
1197.460889,5514.419196,3216.744531,9420.466126
1197.461188,8807.752882,4442.171019,9650.233593
1197.461487,11794.729947,2604.031287,7812.093861
1197.461786,12177.675724,3063.566220,5054.884263
1197.462081,7888.683016,1225.426488,6663.256528
1197.462380,2680.620442,-1914.728887,9114.109504
1197.462679,-4825.116796,-4365.581863,11028.838392
1197.462978,-9190.698660,-2833.798753,14092.404612
1197.463278,-10645.892614,-5054.884263,13786.047990
1197.463577,-11564.962480,-3906.046930,13096.745590
1197.463876,-6510.078217,-2221.085509,14322.172078
1197.464175,459.534933,-3446.511997,12254.264880
1197.464487,7429.148083,2450.852976,9573.644437
1197.464788,10875.660081,2297.674665,7582.326394
1197.465089,6433.489062,153.178311,8041.861327
1197.465389,4518.760174,1684.961421,9497.055282
1197.465690,6127.132440,2144.496354,7275.969772
1197.465991,3599.690308,2450.852976,6510.078217
1197.466292,-3216.744531,-0.000000,10339.535992
1197.466593,-6816.434839,-1455.193954,12177.675724
1197.466902,-6969.613150,306.356622,12254.264880
1197.467200,-6203.721595,-229.767466,14705.117856
1197.467499,-7965.272172,-3293.333686,14858.296167
1197.467798,-5744.186662,-3446.511997,11794.729947
1197.468096,-0.000000,-2221.085509,9803.411904
1197.468395,5208.062574,-3140.155375,8501.396260
1197.468694,11182.016703,919.069866,6356.899906
1197.468992,11028.838392,3676.279464,7582.326394
1197.469300,7122.791461,4595.349330,6663.256528
1197.469597,2527.442131,6663.256528,9190.698660
1197.469894,-4288.992708,6510.078217,12177.675724
1197.470192,-10186.357681,2757.209598,11411.784169
1197.470489,-14628.528700,1531.783110,15700.776877
1197.470787,-10339.535992,-536.124088,16390.079277
1197.471084,-4135.814397,-2527.442131,11564.962480
1197.471381,1838.139732,-3293.333686,11794.729947
1197.471698,4518.760174,-5820.775818,10952.249236
1197.471995,9267.287815,-4212.403552,7888.683016
1197.472292,9114.109504,-689.302399,8041.861327
1197.472589,7046.202306,-536.124088,5897.364973
1197.472886,2144.496354,-689.302399,7275.969772
1197.473183,-2910.387909,-689.302399,10875.660081
1197.473480,-5284.651729,-3140.155375,10569.303459
1197.473777,-5897.364973,-2527.442131,10952.249236
1197.474095,-5591.008351,-2527.442131,14398.761234
1197.474394,-3216.744531,-6586.667373,13939.226301
1197.474692,1531.783110,-3599.690308,12177.675724
1197.474990,4901.705952,-1302.015643,9880.001059
1197.475288,6586.667373,-3752.868619,6510.078217
1197.475586,5514.419196,-1148.837332,7505.737239
1197.475885,3599.690308,-1608.372265,8654.574571
1197.476183,1225.426488,-1761.550576,7275.969772
1197.476496,-3676.279464,-536.124088,9956.590215
1197.476792,-6510.078217,-2221.085509,11564.962480
1197.477088,-8731.163727,-2527.442131,13096.745590
1197.477384,-9343.876971,-229.767466,16543.257588
1197.477680,-4288.992708,1072.248177,14781.707011
1197.477976,-382.945777,2757.209598,10186.357681
1197.478272,4748.527641,7275.969772,10109.768526
1197.478568,6586.667373,5897.364973,7888.683016
1197.478867,7429.148083,6203.721595,7965.272172
1197.479168,5973.954129,4825.116796,9650.233593
1197.479468,1684.961421,2450.852976,8960.931193
1197.479768,-1914.728887,1991.318043,10109.768526
1197.480068,-4135.814397,-536.124088,11718.140791
1197.480368,-4825.116796,-2221.085509,11488.373325
1197.480668,-4825.116796,-2221.085509,11718.140791
1197.480968,-3982.636086,-4825.116796,14475.350389
1197.481275,612.713244,-5054.884263,11641.551636
1197.481577,2144.496354,-2221.085509,9343.876971
1197.481880,4518.760174,-2833.798753,9343.876971
1197.482182,3293.333686,-2527.442131,7199.380617
1197.482485,3906.046930,306.356622,9037.520349
1197.482788,2986.977064,-689.302399,9573.644437
1197.483090,2680.620442,-229.767466,8807.752882
1197.483393,-2067.907198,-689.302399,11794.729947
1197.483667,-4135.814397,-4059.225241,10722.481770
1197.483970,-5744.186662,-4825.116796,10492.714303
1197.484272,-7352.558928,-5973.954129,14322.172078
1197.484575,-5284.651729,-6739.845684,12637.210657
1197.484878,-2374.263820,-4671.938485,9956.590215
1197.485181,1378.604799,-4212.403552,10109.768526
1197.485483,5361.240885,-3140.155375,8195.039638
1197.485786,7275.969772,1072.248177,7352.558928
1197.486024,7046.202306,3216.744531,8041.861327
1197.486332,1225.426488,765.891555,9726.822748
1197.486639,-3829.457775,3369.922842,13020.156435
1197.486947,-3369.922842,5284.651729,11871.319102
1197.487255,-3982.636086,3829.457775,10492.714303
1197.487562,-5131.473418,1531.783110,12943.567279
1197.487870,-2221.085509,-1761.550576,14322.172078
1197.488177,1684.961421,-1914.728887,9956.590215
1197.488495,2680.620442,-2374.263820,9956.590215
1197.488789,306.356622,-5514.419196,10033.179370
1197.489084,-995.659021,-4518.760174,8348.217949
1197.489378,-995.659021,-1455.193954,9497.055282
1197.489673,-842.480710,-382.945777,9497.055282
1197.489967,-842.480710,2144.496354,9803.411904
1197.490261,1225.426488,3829.457775,9956.590215
1197.490556,1378.604799,3676.279464,10569.303459
1197.490856,2144.496354,1991.318043,11335.195014
1197.491156,2986.977064,-0.000000,13096.745590
1197.491456,3446.511997,-1914.728887,9650.233593
1197.491756,3752.868619,-3293.333686,9420.466126
1197.492056,2833.798753,-4212.403552,9956.590215
1197.492356,1531.783110,-5054.884263,7888.683016
1197.492656,-2757.209598,-3906.046930,10262.946837
1197.492956,-4748.527641,-2680.620442,11641.551636
1197.493286,-6203.721595,-76.589155,10722.481770
1197.493583,-6203.721595,3063.566220,11794.729947
1197.493880,-5131.473418,3829.457775,12024.497413
1197.494177,-4135.814397,1225.426488,11564.962480
1197.494474,-1148.837332,3216.744531,13709.458834
1197.494771,2986.977064,765.891555,11335.195014
1197.495068,3906.046930,919.069866,9190.698660
1197.495365,4059.225241,306.356622,10492.714303
1197.495673,4365.581863,-2527.442131,7582.326394
1197.495973,2297.674665,-2374.263820,7658.915550
1197.496273,-2604.031287,-5361.240885,10033.179370
1197.496572,-3982.636086,-5054.884263,11105.427547
1197.496872,-3523.101153,-3446.511997,10416.125148
1197.497172,-1761.550576,-3599.690308,10799.070925
1197.497472,-1608.372265,-4901.705952,10952.249236
1197.497771,-229.767466,-3293.333686,12407.443191
1197.498060,5514.419196,-2680.620442,9650.233593
1197.498362,3752.868619,-4518.760174,9803.411904
1197.498665,3599.690308,-2833.798753,11641.551636
1197.498967,2297.674665,-3140.155375,8118.450483
1197.499270,765.891555,-3140.155375,6969.613150
1197.499572,-1761.550576,-995.659021,9803.411904
1197.499875,-3676.279464,-4059.225241,9573.644437
1197.500177,-4442.171019,-689.302399,11105.427547
1197.500494,-1914.728887,765.891555,11794.729947
1197.500791,-2374.263820,-995.659021,11794.729947
1197.501088,153.178311,-382.945777,12407.443191
1197.501385,1838.139732,612.713244,13709.458834
1197.501681,3293.333686,-382.945777,11411.784169
1197.501978,5514.419196,2450.852976,9190.698660
1197.502275,4212.403552,2604.031287,9420.466126
1197.502572,3446.511997,2604.031287,8118.450483
1197.502885,1378.604799,5744.186662,8348.217949
1197.503180,-2910.387909,5284.651729,10416.125148
1197.503476,-5284.651729,5437.830040,10569.303459
1197.503772,-7122.791461,5284.651729,13709.458834
1197.504068,-6663.256528,3982.636086,13096.745590
1197.504364,-4135.814397,1684.961421,12484.032346
1197.504660,-1148.837332,1531.783110,14475.350389
1197.504955,4059.225241,-0.000000,10492.714303
1197.505269,6127.132440,-2833.798753,8884.342038
1197.505568,4365.581863,-4059.225241,10109.768526
1197.505867,5054.884263,-4059.225241,6816.434839
1197.506165,3599.690308,-2986.977064,6280.310751
1197.506464,-995.659021,-2680.620442,8960.931193
1197.506763,-3676.279464,-4671.938485,9114.109504
1197.507061,-5591.008351,-2221.085509,10952.249236
1197.507360,-7352.558928,-2680.620442,13096.745590
1197.507667,-5131.473418,-3446.511997,12407.443191
1197.507967,-2757.209598,-2680.620442,14015.815456
1197.508267,2297.674665,-995.659021,13096.745590
1197.508566,9420.466126,-689.302399,9114.109504
1197.508866,11871.319102,1072.248177,7888.683016
1197.509166,11794.729947,-1608.372265,5897.364973
1197.509466,7429.148083,-3140.155375,6433.489062
1197.509765,459.534933,-1608.372265,8501.396260
1197.510062,-4135.814397,-2221.085509,8424.807105
1197.510362,-14628.528700,-5208.062574,12713.799813
1197.510661,-18075.040698,-3446.511997,17155.970832
1197.510961,-13939.226301,-1608.372265,15930.544344
1197.511261,-4978.295107,3063.566220,12866.978124
1197.511560,2374.263820,4288.992708,12024.497413
1197.511860,8807.752882,5897.364973,9956.590215
1197.512159,15471.009411,10262.946837,7582.326394
1197.512454,15317.831100,7122.791461,5361.240885
1197.512755,7429.148083,919.069866,6356.899906
1197.513056,-2067.907198,-3140.155375,9267.287815
1197.513357,-6816.434839,-5054.884263,10262.946837
1197.513658,-7812.093861,-7046.202306,9803.411904
1197.513959,-9497.055282,-5361.240885,12790.388968
1197.514260,-9037.520349,-5208.062574,14398.761234
1197.514560,-6050.543284,-1761.550576,13020.156435
1197.514848,-995.659021,1531.783110,15011.474478
1197.515149,2527.442131,1378.604799,12713.799813
1197.515450,8041.861327,5437.830040,6969.613150
1197.515751,9497.055282,4825.116796,5744.186662
1197.516052,8041.861327,2450.852976,6280.310751
1197.516352,5054.884263,-536.124088,8348.217949
1197.516653,-0.000000,-1761.550576,10033.179370
1197.516954,-1761.550576,-3599.690308,9880.001059
1197.517219,-9726.822748,-5054.884263,14015.815456
1197.517524,-12560.621502,-2986.977064,14934.885322
1197.517829,-9037.520349,-1761.550576,12713.799813
1197.518134,-5437.830040,-1914.728887,13403.102212
1197.518439,612.713244,306.356622,14322.172078
1197.518744,8041.861327,1531.783110,9803.411904
1197.519049,15164.652789,6050.543284,6356.899906
1197.519354,16390.079277,2450.852976,6356.899906
1197.519661,11641.551636,1684.961421,6510.078217
1197.519960,3599.690308,2604.031287,7582.326394
1197.520260,-3829.457775,919.069866,7658.915550
1197.520560,-11871.319102,-1455.193954,10033.179370
1197.520859,-18840.932253,-4671.938485,15241.241944
1197.521159,-18840.932253,-7965.272172,16390.079277
1197.521459,-10186.357681,-6586.667373,13249.923901
1197.521758,459.534933,-2374.263820,13249.923901
1197.522055,8501.396260,-3752.868619,10033.179370
1197.522352,11488.373325,-3140.155375,9573.644437
1197.522650,12790.388968,-0.000000,7965.272172
1197.522947,10262.946837,-2374.263820,3982.636086
1197.523245,3140.155375,-3599.690308,4671.938485
1197.523542,-4595.349330,-5054.884263,10262.946837
1197.523839,-7122.791461,-5820.775818,10339.535992
1197.524137,-8424.807105,-2986.977064,9956.590215
1197.524451,-10186.357681,-3446.511997,14781.707011
1197.524750,-11411.784169,-3140.155375,15241.241944
1197.525048,-4748.527641,1531.783110,15930.544344
1197.525347,5667.597507,4442.171019,13709.458834
1197.525646,10875.660081,5744.186662,8195.039638
1197.525945,15317.831100,7122.791461,8041.861327
1197.526243,16619.846743,7582.326394,5284.651729
1197.526542,14015.815456,6510.078217,3982.636086
1197.526830,2833.798753,1378.604799,9803.411904
1197.527133,-9037.520349,-1455.193954,12330.854035
1197.527435,-13479.691368,-995.659021,11488.373325
1197.527738,-17462.327454,-1608.372265,14934.885322
1197.528040,-18075.040698,-2680.620442,15394.420255
1197.528342,-11947.908258,919.069866,15930.544344
1197.528645,-3829.457775,4135.814397,14398.761234
1197.528947,9956.590215,4442.171019,9880.001059
1197.529247,14245.582923,4978.295107,7888.683016
1197.529546,14858.296167,2144.496354,7582.326394
1197.529845,14398.761234,1378.604799,3676.279464
1197.530145,7275.969772,-536.124088,5820.775818
1197.530444,-1302.015643,-4825.116796,8807.752882
1197.530743,-8884.342038,-7812.093861,8884.342038
1197.531042,-13326.513057,-7812.093861,12254.264880
1197.531342,-16619.846743,-10033.179370,13556.280523
1197.531648,-16007.133499,-12024.497413,16083.722655
1197.531948,-9343.876971,-6280.310751,16773.025054
1197.532247,3752.868619,-842.480710,12407.443191
1197.532546,12330.854035,1684.961421,9420.466126
1197.532846,17232.559987,4442.171019,6663.256528
1197.533145,15624.187722,4978.295107,6203.721595
1197.533444,9267.287815,3216.744531,3829.457775
1197.533743,3752.868619,459.534933,8807.752882
1197.534064,-3676.279464,-4825.116796,8501.396260
1197.534361,-10952.249236,-5054.884263,13862.637145
1197.534658,-14934.885322,-8118.450483,17002.792521
1197.534955,-11947.908258,-3752.868619,13403.102212
1197.535252,-5131.473418,-995.659021,13862.637145
1197.535549,-689.302399,-0.000000,13862.637145
1197.535846,4365.581863,1838.139732,11411.784169
1197.536143,14168.993767,7429.148083,7275.969772
1197.536461,15471.009411,4978.295107,6586.667373
1197.536760,10109.768526,765.891555,6127.132440
1197.537058,5667.597507,3369.922842,8654.574571
1197.537356,1072.248177,1378.604799,7812.093861
1197.537654,-6203.721595,-842.480710,8577.985416
1197.537953,-15547.598566,-3906.046930,14015.815456
1197.538251,-19070.699719,-4059.225241,14015.815456
1197.538549,-16466.668432,-3752.868619,13939.226301
1197.538862,-10186.357681,-3140.155375,16313.490121
1197.539158,-2910.387909,-4365.581863,14168.993767
1197.539454,9803.411904,306.356622,8884.342038
1197.539750,18151.629853,1378.604799,4825.116796
1197.540046,18457.986475,306.356622,4901.705952
1197.540342,13249.923901,612.713244,7658.915550
1197.540638,6739.845684,1072.248177,8807.752882
1197.540934,1225.426488,153.178311,7122.791461
1197.541234,-10186.357681,-1302.015643,10569.303459
1197.541534,-18228.219009,-4059.225241,15853.955188
1197.541834,-17768.684076,-4518.760174,15088.063633
1197.542134,-12101.086569,-2986.977064,16466.668432
1197.542434,-5284.651729,-3752.868619,15700.776877
1197.542734,4748.527641,1991.318043,12407.443191
1197.543034,17692.094920,7122.791461,8195.039638
1197.543334,21674.731006,6816.434839,4288.992708
1197.543642,16390.079277,3829.457775,5054.884263
1197.543942,7429.148083,306.356622,7122.791461
1197.544242,2680.620442,-1455.193954,6586.667373
1197.544542,-6050.543284,-7812.093861,10339.535992
1197.544842,-14781.707011,-10339.535992,13709.458834
1197.545142,-15241.241944,-9037.520349,14168.993767
1197.545443,-14934.885322,-6433.489062,13862.637145
1197.545743,-7965.272172,-4059.225241,13709.458834
1197.546023,-5131.473418,-3599.690308,12790.388968
1197.546322,-382.945777,1072.248177,11641.551636
1197.546621,9267.287815,1531.783110,7429.148083
1197.546920,14245.582923,2604.031287,3369.922842
1197.547219,11794.729947,153.178311,6127.132440
1197.547518,5361.240885,-3599.690308,9420.466126
1197.547817,765.891555,-1761.550576,9803.411904
1197.548116,-2067.907198,-0.000000,9573.644437
1197.548432,-9880.001059,-3446.511997,11488.373325
1197.548731,-13786.047990,-4212.403552,14398.761234
1197.549029,-11105.427547,-2527.442131,14934.885322
1197.549327,-6510.078217,-4365.581863,13403.102212
1197.549626,-842.480710,-1914.728887,12713.799813
1197.549924,7888.683016,2604.031287,10722.481770
1197.550223,14858.296167,6510.078217,6893.023995
1197.550521,16236.900966,6969.613150,5973.954129
1197.550838,12330.854035,7122.791461,9420.466126
1197.551136,6127.132440,5437.830040,8960.931193
1197.551434,-1302.015643,5744.186662,8960.931193
1197.551732,-7658.915550,1684.961421,10262.946837
1197.552029,-15700.776877,-4518.760174,12407.443191
1197.552327,-19377.056341,-9650.233593,17309.149143
1197.552625,-13939.226301,-7046.202306,17002.792521
1197.552923,-2450.852976,-3752.868619,11411.784169
1197.553223,5667.597507,-1148.837332,10262.946837
1197.553523,12943.567279,1072.248177,8348.217949
1197.553823,17232.559987,6203.721595,4288.992708
1197.554123,14551.939545,5284.651729,4901.705952
1197.554423,6739.845684,459.534933,6893.023995
1197.554723,-2910.387909,-1455.193954,8807.752882
1197.555023,-8424.807105,-2986.977064,12713.799813
1197.555323,-10952.249236,-5361.240885,10645.892614
1197.555653,-11947.908258,-7812.093861,14168.993767
1197.555949,-10492.714303,-7352.558928,15317.831100
1197.556244,-2450.852976,-5667.597507,11028.838392
1197.556540,1838.139732,-3752.868619,13173.334746
1197.556836,5361.240885,-2221.085509,10186.357681
1197.557131,7122.791461,459.534933,8654.574571
1197.557427,8960.931193,4978.295107,6050.543284
1197.557722,8195.039638,4442.171019,7429.148083
1197.558029,306.356622,1072.248177,8577.985416
1197.558330,-2221.085509,2604.031287,9880.001059
1197.558630,-6969.613150,-3140.155375,12407.443191
1197.558931,-8118.450483,-4825.116796,12560.621502
1197.559231,-6816.434839,-7812.093861,15930.544344
1197.559532,-4288.992708,-8731.163727,14781.707011
1197.559832,4365.581863,-5667.597507,10109.768526
1197.560133,7429.148083,-1455.193954,10033.179370
1197.560416,10722.481770,765.891555,6356.899906
1197.560716,9420.466126,4978.295107,6127.132440
1197.561016,7122.791461,5897.364973,8348.217949
1197.561315,1378.604799,2757.209598,8041.861327
1197.561615,-6510.078217,2757.209598,12866.978124
1197.561915,-7965.272172,612.713244,12101.086569
1197.562214,-7965.272172,-689.302399,9650.233593
1197.562514,-10952.249236,-2067.907198,13249.923901
1197.562809,-11258.605858,-4671.938485,15547.598566
1197.563110,-6663.256528,-2986.977064,13403.102212
1197.563411,2680.620442,2757.209598,10186.357681
1197.563711,8654.574571,2910.387909,8577.985416
1197.564012,9267.287815,4748.527641,7812.093861
1197.564313,8501.396260,7582.326394,9343.876971
1197.564614,7582.326394,4978.295107,7429.148083
1197.564915,1684.961421,4288.992708,8654.574571
1197.565203,-4978.295107,-0.000000,12637.210657
1197.565503,-8731.163727,-3140.155375,11641.551636
1197.565803,-8271.628794,-4901.705952,13096.745590
1197.566104,-6356.899906,-6280.310751,13556.280523
1197.566404,-3216.744531,-7046.202306,11335.195014
1197.566704,459.534933,-4365.581863,10645.892614
1197.567004,7046.202306,-2527.442131,8195.039638
1197.567304,8348.217949,-1302.015643,7812.093861
1197.567636,7735.504705,459.534933,9573.644437
1197.567934,7888.683016,1225.426488,8654.574571
1197.568232,7582.326394,1684.961421,5973.954129
1197.568529,4748.527641,612.713244,9267.287815
1197.568827,-3829.457775,-2680.620442,12330.854035
1197.569125,-10186.357681,-6586.667373,13096.745590
1197.569423,-11411.784169,-6433.489062,14092.404612
1197.569721,-9497.055282,-9037.520349,14015.815456
1197.570028,-7812.093861,-7046.202306,10262.946837
1197.570324,-382.945777,-2833.798753,10722.481770
1197.570620,4901.705952,-76.589155,8807.752882
1197.570917,7735.504705,3369.922842,7582.326394
1197.571213,6586.667373,4978.295107,10416.125148
1197.571509,5361.240885,6663.256528,8041.861327
1197.571806,3140.155375,9114.109504,9420.466126
1197.572102,-3676.279464,3676.279464,11105.427547
1197.572399,-7199.380617,765.891555,10569.303459
1197.572702,-8271.628794,-1608.372265,13709.458834
1197.573004,-5591.008351,-5054.884263,12790.388968
1197.573307,-5437.830040,-8424.807105,12330.854035
1197.573610,-2067.907198,-7352.558928,13326.513057
1197.573913,6127.132440,-4059.225241,9420.466126
1197.574216,9267.287815,919.069866,5973.954129
1197.574519,9114.109504,4978.295107,8195.039638
1197.574814,6586.667373,5131.473418,6969.613150
1197.575114,1378.604799,6663.256528,8884.342038
1197.575414,-2604.031287,4595.349330,12790.388968
1197.575714,-6969.613150,-536.124088,11182.016703
1197.576014,-5131.473418,-1761.550576,12254.264880
1197.576314,-3829.457775,-3752.868619,11794.729947
1197.576614,-3063.566220,-7352.558928,12254.264880
1197.576914,919.069866,-4365.581863,11794.729947
1197.577203,3599.690308,-3293.333686,10186.357681
1197.577503,6280.310751,1531.783110,8807.752882
1197.577804,5208.062574,4595.349330,8577.985416
1197.578105,5361.240885,6050.543284,8884.342038
1197.578406,1378.604799,6510.078217,8654.574571
1197.578707,-3216.744531,4288.992708,11335.195014
1197.579008,-6356.899906,765.891555,12560.621502
1197.579309,-7352.558928,-382.945777,12101.086569
1197.579596,-4825.116796,-1148.837332,12943.567279
1197.579899,-4442.171019,-4901.705952,12560.621502
1197.580201,-2221.085509,-4212.403552,11028.838392
1197.580503,-0.000000,-3446.511997,11028.838392
1197.580806,3906.046930,-3446.511997,7965.272172
1197.581108,2297.674665,-2067.907198,8960.931193
1197.581411,2297.674665,-1761.550576,9726.822748
1197.581713,459.534933,-2374.263820,8041.861327
1197.582020,919.069866,459.534933,8501.396260
1197.582317,-382.945777,-995.659021,9956.590215
1197.582615,-2757.209598,-4518.760174,11488.373325
1197.582912,-4978.295107,-5973.954129,13709.458834
1197.583210,-2450.852976,-5361.240885,13556.280523
1197.583507,-536.124088,-7199.380617,9037.520349
1197.583804,2297.674665,-5054.884263,9037.520349
1197.584102,4212.403552,-3906.046930,8577.985416
1197.584418,6280.310751,612.713244,6280.310751
1197.584716,3906.046930,1531.783110,10109.768526
1197.585015,2833.798753,3369.922842,11182.016703
1197.585313,459.534933,4595.349330,11182.016703
1197.585612,-2604.031287,5437.830040,11258.605858
1197.585910,-1761.550576,3369.922842,11258.605858
1197.586209,-4135.814397,1838.139732,12484.032346
1197.586507,-1914.728887,-0.000000,13862.637145
1197.586822,-229.767466,-2986.977064,10339.535992
1197.587121,1225.426488,-382.945777,10109.768526
1197.587421,306.356622,-1455.193954,12177.675724
1197.587720,-689.302399,-842.480710,8195.039638
1197.588020,-1302.015643,2297.674665,9497.055282
1197.588319,-2757.209598,2297.674665,10262.946837
1197.588619,-2221.085509,3063.566220,8731.163727
1197.588919,-689.302399,4748.527641,10875.660081
1197.589207,153.178311,3676.279464,10416.125148
1197.589504,-2604.031287,-382.945777,12177.675724
1197.589802,-2374.263820,-1914.728887,13709.458834
1197.590099,306.356622,-4671.938485,12101.086569
1197.590397,612.713244,-4901.705952,9956.590215
1197.590694,2297.674665,-3599.690308,8960.931193
1197.590992,2680.620442,-3293.333686,7275.969772
1197.591289,2374.263820,-689.302399,6893.023995
1197.591635,-382.945777,-229.767466,10799.070925
1197.591929,-3829.457775,-1761.550576,10416.125148
1197.592223,-3523.101153,612.713244,11335.195014
1197.592517,-4288.992708,-229.767466,13096.745590
1197.592811,-2067.907198,-1148.837332,12790.388968
1197.593106,2297.674665,-382.945777,11335.195014
1197.593400,5361.240885,-536.124088,11335.195014
1197.593694,6586.667373,-4518.760174,9573.644437
1197.594001,5820.775818,-2221.085509,9420.466126
1197.594303,4748.527641,-1608.372265,8041.861327
1197.594606,-1148.837332,-5361.240885,8654.574571
1197.594908,-6510.078217,-6739.845684,12713.799813
1197.595211,-7122.791461,-4365.581863,11947.908258
1197.595513,-3369.922842,-689.302399,8501.396260
1197.595816,-4135.814397,153.178311,10645.892614
1197.596119,-2757.209598,919.069866,11105.427547
1197.596358,-1148.837332,3369.922842,12024.497413
1197.596666,765.891555,1838.139732,10722.481770
1197.596975,459.534933,-1148.837332,12560.621502
1197.597284,459.534933,153.178311,10799.070925
1197.597592,4671.938485,-842.480710,8501.396260
1197.597901,4748.527641,-382.945777,5591.008351
1197.598210,1072.248177,-536.124088,8424.807105
1197.598518,-3216.744531,-1608.372265,11871.319102
1197.598791,-3829.457775,153.178311,10033.179370
1197.599091,-4825.116796,2450.852976,11641.551636
1197.599390,-4288.992708,1684.961421,13249.923901
1197.599689,-3676.279464,2604.031287,11488.373325
1197.599988,153.178311,612.713244,12024.497413
1197.600288,3140.155375,612.713244,12560.621502
1197.600587,5820.775818,-689.302399,10569.303459
1197.600886,8041.861327,153.178311,8731.163727
1197.601204,7429.148083,1378.604799,6510.078217
1197.601502,4212.403552,2604.031287,7429.148083
1197.601801,-2604.031287,1378.604799,10186.357681
1197.602099,-5131.473418,-1761.550576,10799.070925
1197.602398,-8731.163727,153.178311,11641.551636
1197.602697,-8424.807105,-2986.977064,13096.745590
1197.602995,-6969.613150,-4825.116796,10186.357681
1197.603294,-3216.744531,-4825.116796,13709.458834
1197.603582,1991.318043,-4671.938485,15088.063633
1197.603884,7888.683016,-1302.015643,9573.644437
1197.604187,11335.195014,2450.852976,8195.039638
1197.604489,12790.388968,919.069866,5361.240885
1197.604791,7122.791461,-689.302399,6510.078217
1197.605094,612.713244,-995.659021,7812.093861
1197.605396,-4978.295107,-4901.705952,9037.520349
1197.605698,-10339.535992,-6127.132440,12254.264880
1197.606005,-11718.140791,-5208.062574,12866.978124
1197.606302,-10033.179370,-2680.620442,13862.637145
1197.606599,-3216.744531,1991.318043,11258.605858
1197.606896,-3369.922842,-1455.193954,15088.063633
1197.607193,765.891555,-1914.728887,14322.172078
1197.607490,7275.969772,1225.426488,9573.644437
1197.607787,10875.660081,612.713244,6816.434839
1197.608084,10109.768526,-842.480710,4135.814397
1197.608392,5820.775818,-842.480710,7582.326394
1197.608691,1838.139732,-995.659021,8654.574571
1197.608991,-4442.171019,-3599.690308,9956.590215
1197.609291,-13326.513057,-4212.403552,14781.707011
1197.609591,-11564.962480,-3140.155375,14398.761234
1197.609891,-6356.899906,-229.767466,11947.908258
1197.610190,-1148.837332,1225.426488,11411.784169
1197.610490,5208.062574,459.534933,12637.210657
1197.610779,7429.148083,1225.426488,10722.481770
1197.611081,16773.025054,7735.504705,8041.861327
1197.611384,13249.923901,4288.992708,5820.775818
1197.611686,7122.791461,4288.992708,6280.310751
1197.611989,-382.945777,-76.589155,9956.590215
1197.612291,-6050.543284,-1761.550576,10109.768526
1197.612594,-12101.086569,-0.000000,12177.675724
1197.612896,-15853.955188,-1302.015643,12943.567279
1197.613214,-13939.226301,-1302.015643,14168.993767
1197.613511,-9037.520349,306.356622,14015.815456
1197.613809,-229.767466,2910.387909,14015.815456
1197.614107,4212.403552,2450.852976,11182.016703
1197.614405,12177.675724,4135.814397,8960.931193
1197.614703,17692.094920,6816.434839,6356.899906
1197.615001,14015.815456,4442.171019,3676.279464
1197.615298,4671.938485,1838.139732,7965.272172
1197.615587,-3982.636086,-4365.581863,9573.644437
1197.615884,-10033.179370,-6127.132440,10722.481770
1197.616181,-14628.528700,-8884.342038,13862.637145
1197.616479,-15241.241944,-10799.070925,15088.063633
1197.616776,-10186.357681,-6433.489062,14858.296167
1197.617073,-2757.209598,-4059.225241,12560.621502
1197.617371,919.069866,-2527.442131,11564.962480
1197.617668,5361.240885,459.534933,10722.481770
1197.617977,12024.497413,1838.139732,8807.752882
1197.618276,14705.117856,1991.318043,4135.814397
1197.618574,13403.102212,1531.783110,5361.240885
1197.618873,7275.969772,-2067.907198,8501.396260
1197.619171,1991.318043,-2833.798753,8348.217949
1197.619470,-5591.008351,-4059.225241,12254.264880
1197.619768,-12101.086569,-5054.884263,13249.923901
1197.620067,-13173.334746,-4518.760174,12330.854035
1197.620374,-11947.908258,-2680.620442,15853.955188
1197.620674,-10186.357681,-2833.798753,17155.970832
1197.620975,-3063.566220,2604.031287,12943.567279
1197.621276,8348.217949,6510.078217,8424.807105
1197.621576,14551.939545,7122.791461,5361.240885
1197.621877,16543.257588,6510.078217,4135.814397
1197.622177,10109.768526,5744.186662,5514.419196
1197.622478,6127.132440,3369.922842,6739.845684
1197.622808,-6510.078217,-2221.085509,10875.660081
1197.623103,-14475.350389,-4059.225241,15011.474478
1197.623399,-16313.490121,-5667.597507,14475.350389
1197.623694,-13632.869679,-3906.046930,14628.528700
1197.623990,-7812.093861,-3140.155375,14628.528700
1197.624285,-1455.193954,-2067.907198,12101.086569
1197.624581,6893.023995,1531.783110,10722.481770
1197.624877,12330.854035,1991.318043,7429.148083
1197.625171,13096.745590,2450.852976,6050.543284
1197.625472,7046.202306,2604.031287,8807.752882
1197.625773,2680.620442,-0.000000,7429.148083
1197.626074,-2221.085509,-382.945777,6356.899906
1197.626375,-6356.899906,-995.659021,11258.605858
1197.626676,-10799.070925,-4825.116796,13403.102212
1197.626977,-11411.784169,-4825.116796,14475.350389
1197.627277,-6969.613150,-4365.581863,15547.598566
1197.627565,-2374.263820,-4671.938485,13862.637145
1197.627866,-842.480710,-2527.442131,14168.993767
1197.628167,9497.055282,1072.248177,9420.466126
1197.628468,15011.474478,5131.473418,3982.636086
1197.628769,16390.079277,6203.721595,4595.349330
1197.629070,9497.055282,-1455.193954,6816.434839
1197.629370,2374.263820,-4365.581863,9650.233593
1197.629671,-4748.527641,-5208.062574,10416.125148
1197.629980,-10033.179370,-8731.163727,12637.210657
1197.630280,-14092.404612,-8424.807105,14398.761234
1197.630579,-11871.319102,-3446.511997,14628.528700
1197.630878,-8271.628794,-995.659021,13249.923901
1197.631178,-4825.116796,765.891555,11488.373325
1197.631477,3752.868619,2757.209598,10339.535992
1197.631776,8654.574571,612.713244,7735.504705
1197.632076,14398.761234,2450.852976,5591.008351
1197.632383,11641.551636,-76.589155,7582.326394
1197.632682,5514.419196,-3752.868619,7429.148083
1197.632982,-1761.550576,-4825.116796,9037.520349
1197.633282,-7505.737239,-5208.062574,12254.264880
1197.633581,-11871.319102,-7046.202306,12637.210657
1197.633881,-11947.908258,-4059.225241,13556.280523
1197.634181,-6816.434839,-1455.193954,13479.691368
1197.634480,-2450.852976,-995.659021,12101.086569
1197.634810,4748.527641,4135.814397,11258.605858
1197.635103,9114.109504,5131.473418,7199.380617
1197.635395,7888.683016,5131.473418,8041.861327
1197.635688,8501.396260,6050.543284,8654.574571
1197.635981,5054.884263,4288.992708,7582.326394
1197.636273,1378.604799,3063.566220,8041.861327
1197.636566,-3369.922842,2604.031287,12024.497413
1197.636859,-9343.876971,-2067.907198,13709.458834
1197.637173,-6663.256528,-2221.085509,12254.264880
1197.637472,-6356.899906,-4059.225241,14015.815456
1197.637770,-7352.558928,-4825.116796,14628.528700
1197.638069,-995.659021,-2221.085509,10569.303459
1197.638368,6586.667373,1684.961421,8501.396260
1197.638667,9650.233593,1378.604799,6280.310751
1197.638965,9650.233593,3369.922842,8654.574571
1197.639264,8195.039638,1838.139732,8960.931193
1197.639552,5514.419196,1225.426488,6510.078217
1197.639855,-1914.728887,153.178311,9573.644437
1197.640157,-9726.822748,-4059.225241,12407.443191
1197.640459,-13326.513057,-5820.775818,13556.280523
1197.640762,-11718.140791,-4901.705952,14934.885322
1197.641064,-9037.520349,-6739.845684,13862.637145
1197.641367,-2604.031287,-3140.155375,11794.729947
1197.641669,5208.062574,-1302.015643,9650.233593
1197.641969,9114.109504,306.356622,7965.272172
1197.642268,10262.946837,3063.566220,7199.380617
1197.642566,7429.148083,4825.116796,7888.683016
1197.642865,3446.511997,1378.604799,6969.613150
1197.643164,-3369.922842,-1302.015643,9650.233593
1197.643462,-8731.163727,-4901.705952,13326.513057
1197.643761,-7965.272172,-8118.450483,11411.784169
1197.644060,-3216.744531,-5514.419196,12560.621502
1197.644367,2144.496354,-5514.419196,12560.621502
1197.644666,6739.845684,-4671.938485,9803.411904
1197.644965,7735.504705,-2374.263820,9880.001059
1197.645265,7429.148083,1225.426488,9190.698660
1197.645564,5667.597507,1991.318043,7658.915550
1197.645863,-1302.015643,1991.318043,9420.466126
1197.646162,-1914.728887,1225.426488,9650.233593
1197.646462,-4442.171019,3676.279464,11105.427547
1197.646782,-5437.830040,1378.604799,10722.481770
1197.647079,-6356.899906,-1761.550576,11182.016703
1197.647376,-5437.830040,-1148.837332,13326.513057
1197.647673,-3829.457775,-689.302399,13709.458834
1197.647970,-689.302399,-536.124088,11182.016703
1197.648267,153.178311,612.713244,9573.644437
1197.648564,153.178311,765.891555,11411.784169
1197.648861,919.069866,-1914.728887,9114.109504
1197.649163,3293.333686,2604.031287,8960.931193
1197.649465,5820.775818,1531.783110,9573.644437
1197.649766,3599.690308,459.534933,9497.055282
1197.650068,2527.442131,3523.101153,10416.125148
1197.650369,612.713244,3063.566220,9267.287815
1197.650670,-5591.008351,-1148.837332,10569.303459
1197.650972,-8424.807105,-2374.263820,13862.637145
1197.651273,-5437.830040,-3599.690308,12713.799813
1197.651586,-1302.015643,-3752.868619,10645.892614
1197.651882,6127.132440,-3906.046930,10875.660081
1197.652178,10109.768526,-2067.907198,8348.217949
1197.652474,12330.854035,1072.248177,6739.845684
1197.652770,8501.396260,1684.961421,8501.396260
1197.653066,1991.318043,-382.945777,9190.698660
1197.653363,-4748.527641,765.891555,12177.675724
1197.653659,-8731.163727,-2221.085509,12101.086569
1197.653958,-11871.319102,-5208.062574,12713.799813
1197.654259,-8577.985416,-4212.403552,12943.567279
1197.654560,-5744.186662,-6127.132440,12943.567279
1197.654860,-842.480710,-5054.884263,12254.264880
1197.655161,6893.023995,-382.945777,9880.001059
1197.655462,10416.125148,612.713244,7429.148083
1197.655763,7735.504705,3829.457775,6586.667373
1197.656063,5361.240885,4748.527641,8960.931193
1197.656370,1991.318043,5591.008351,9573.644437
1197.656667,-2604.031287,4442.171019,8654.574571
1197.656964,-6816.434839,-76.589155,10569.303459
1197.657261,-10033.179370,-5514.419196,12484.032346
1197.657558,-8884.342038,-6586.667373,13020.156435
1197.657855,-6356.899906,-7965.272172,13709.458834
1197.658151,-3063.566220,-9037.520349,12560.621502
1197.658448,3446.511997,-5361.240885,10875.660081
1197.658762,7122.791461,-2221.085509,8577.985416
1197.659062,5054.884263,-2374.263820,8041.861327
1197.659361,3293.333686,919.069866,9650.233593
1197.659661,5973.954129,4748.527641,8501.396260
1197.659960,2680.620442,4442.171019,8118.450483
1197.660260,1991.318043,4978.295107,9880.001059
1197.660559,-3063.566220,1531.783110,11182.016703
1197.660859,-5437.830040,-76.589155,11794.729947
1197.661177,-6050.543284,-2374.263820,14322.172078
1197.661473,-3676.279464,-2680.620442,13403.102212
1197.661768,2527.442131,-995.659021,10416.125148
1197.662063,7275.969772,1531.783110,9573.644437
1197.662358,9114.109504,1838.139732,8348.217949
1197.662653,9956.590215,5131.473418,8041.861327
1197.662949,5514.419196,3523.101153,9190.698660
1197.663244,-2067.907198,919.069866,9956.590215
1197.663544,-7122.791461,765.891555,11718.140791
1197.663845,-9497.055282,-536.124088,11641.551636
1197.664146,-10339.535992,-4059.225241,13403.102212
1197.664447,-9037.520349,-2067.907198,13326.513057
1197.664748,-3829.457775,-689.302399,12790.388968
1197.665049,765.891555,-536.124088,10109.768526
1197.665350,2680.620442,1225.426488,9956.590215
1197.665651,4518.760174,-1761.550576,9267.287815
1197.665951,3752.868619,-2221.085509,6127.132440
1197.666251,3752.868619,-3293.333686,7888.683016
1197.666551,2680.620442,-5820.775818,10416.125148
1197.666851,-1608.372265,-6280.310751,10262.946837
1197.667151,2374.263820,-3293.333686,10339.535992
1197.667451,612.713244,-3293.333686,9956.590215
1197.667751,-842.480710,-3140.155375,10569.303459
1197.668051,-4595.349330,-3140.155375,13173.334746
1197.668341,-3523.101153,-995.659021,11641.551636
1197.668640,612.713244,1684.961421,10722.481770
1197.668939,1378.604799,1378.604799,9803.411904
1197.669237,1072.248177,-0.000000,8041.861327
1197.669536,3140.155375,3216.744531,8424.807105
1197.669835,2297.674665,1072.248177,9037.520349
1197.670134,-689.302399,-2833.798753,10722.481770
1197.670432,-3829.457775,-2527.442131,13709.458834
1197.670740,-842.480710,-2221.085509,11411.784169
1197.671044,-0.000000,-2986.977064,10569.303459
1197.671349,-689.302399,-2680.620442,11335.195014
1197.671653,765.891555,-3446.511997,10722.481770
1197.671958,2680.620442,-2374.263820,10262.946837
1197.672263,4365.581863,-536.124088,10645.892614
1197.672567,3446.511997,-1302.015643,9650.233593
1197.672872,2680.620442,1531.783110,8577.985416
1197.673155,1378.604799,4595.349330,9803.411904
1197.673452,-1148.837332,4595.349330,9420.466126
1197.673748,-4442.171019,5591.008351,9803.411904
1197.674044,-8424.807105,3676.279464,12637.210657
1197.674341,-7965.272172,153.178311,13173.334746
1197.674637,-5284.651729,306.356622,14628.528700
1197.674933,-229.767466,-1608.372265,11794.729947
1197.675230,1378.604799,-3140.155375,11411.784169
1197.675557,-0.000000,-2067.907198,12484.032346
1197.675853,5361.240885,306.356622,9190.698660
1197.676149,4212.403552,612.713244,6433.489062
1197.676446,1378.604799,1378.604799,6510.078217
1197.676742,-689.302399,-1148.837332,9880.001059
1197.677038,-3216.744531,-3906.046930,9880.001059
1197.677334,-0.000000,-842.480710,11411.784169
1197.677630,153.178311,-1148.837332,10109.768526
1197.677942,-1761.550576,-3293.333686,11488.373325
1197.678243,612.713244,-2067.907198,13096.745590
1197.678544,2833.798753,-2374.263820,11182.016703
1197.678844,4518.760174,-2221.085509,9956.590215
1197.679145,4748.527641,-3752.868619,8348.217949
1197.679446,3906.046930,-1914.728887,8577.985416
1197.679747,5820.775818,612.713244,7735.504705
1197.680047,-536.124088,-382.945777,8501.396260
1197.680356,-5744.186662,-2374.263820,11182.016703
1197.680654,-10645.892614,-1455.193954,12407.443191
1197.680952,-10339.535992,-3752.868619,13862.637145
1197.681250,-8118.450483,-4212.403552,13096.745590
1197.681547,-4288.992708,-842.480710,12560.621502
1197.681845,2144.496354,-0.000000,12101.086569
1197.682143,5973.954129,153.178311,10645.892614
1197.682441,10722.481770,4442.171019,9190.698660
1197.682748,9650.233593,3063.566220,7582.326394
1197.683044,5208.062574,1684.961421,7429.148083
1197.683340,1838.139732,306.356622,9650.233593
1197.683637,-2221.085509,-2986.977064,8960.931193
1197.683933,-5591.008351,-2680.620442,9037.520349
1197.684229,-7965.272172,-3293.333686,10799.070925
1197.684526,-8271.628794,-4671.938485,13556.280523
1197.684822,-7965.272172,-6127.132440,14168.993767
1197.685152,-3063.566220,-3293.333686,14781.707011
1197.685450,2527.442131,-1148.837332,12330.854035
1197.685748,8348.217949,2450.852976,7735.504705
1197.686046,8960.931193,6050.543284,8654.574571
1197.686344,7275.969772,8501.396260,7275.969772
1197.686643,3446.511997,6356.899906,8424.807105
1197.686941,-2604.031287,3523.101153,10262.946837
1197.687239,-6356.899906,-1455.193954,10416.125148
1197.687566,-8424.807105,-2986.977064,13249.923901
1197.687862,-8577.985416,-5973.954129,12637.210657
1197.688157,-6816.434839,-5667.597507,12790.388968
1197.688453,-2067.907198,-2067.907198,14475.350389
1197.688748,4059.225241,-536.124088,13862.637145
1197.689044,9497.055282,3369.922842,7965.272172
1197.689339,13096.745590,6203.721595,6739.845684
1197.689635,10569.303459,4288.992708,7122.791461
1197.689946,7275.969772,2144.496354,6203.721595
1197.690244,3293.333686,-689.302399,8501.396260
1197.690541,-2450.852976,-3599.690308,8501.396260
1197.690838,-10186.357681,-5054.884263,10722.481770
1197.691136,-17002.792521,-8271.628794,14168.993767
1197.691433,-16619.846743,-8424.807105,15011.474478
1197.691731,-10799.070925,-5820.775818,14934.885322
1197.692028,-3982.636086,-3293.333686,14245.582923
1197.692328,5054.884263,-536.124088,10952.249236
1197.692628,15471.009411,3982.636086,7352.558928
1197.692928,16926.203365,3216.744531,4595.349330
1197.693228,14245.582923,2604.031287,4442.171019
1197.693528,4748.527641,-1761.550576,7735.504705
1197.693828,-3369.922842,-5208.062574,12330.854035
1197.694128,-10033.179370,-6127.132440,11718.140791
1197.694428,-15547.598566,-4365.581863,13249.923901
1197.694735,-14628.528700,-3446.511997,12484.032346
1197.695033,-13173.334746,-536.124088,13020.156435
1197.695331,-4135.814397,2910.387909,15241.241944
1197.695629,5054.884263,3676.279464,11411.784169
1197.695927,10875.660081,4442.171019,9267.287815
1197.696226,17998.451542,4748.527641,8195.039638
1197.696524,18304.808164,3829.457775,6433.489062
1197.696822,13556.280523,4288.992708,7275.969772
1197.697138,3599.690308,-229.767466,7505.737239
1197.697437,-8271.628794,-3906.046930,10416.125148
1197.697735,-14322.172078,-2986.977064,12330.854035
1197.698033,-16849.614210,-4901.705952,13556.280523
1197.698332,-15700.776877,-4518.760174,13249.923901
1197.698630,-10186.357681,-1608.372265,15317.831100
1197.698929,-689.302399,-229.767466,15547.598566
1197.699227,9803.411904,4825.116796,9267.287815
1197.699541,17079.381676,6969.613150,6816.434839
1197.699841,14858.296167,5131.473418,5514.419196
1197.700141,8654.574571,2757.209598,7812.093861
1197.700440,3906.046930,1072.248177,9573.644437
1197.700740,-1148.837332,-1148.837332,8960.931193
1197.701039,-9190.698660,-3752.868619,11182.016703
1197.701339,-13939.226301,-5514.419196,12713.799813
1197.701639,-15700.776877,-5973.954129,14475.350389
1197.701927,-12560.621502,-4212.403552,13096.745590
1197.702227,-8424.807105,-4901.705952,15088.063633
1197.702527,-1302.015643,-4518.760174,15241.241944
1197.702827,11028.838392,1072.248177,8654.574571
1197.703126,18917.521408,4595.349330,5973.954129
1197.703426,18611.164786,4135.814397,4595.349330
1197.703726,12330.854035,3369.922842,6816.434839
1197.704026,4365.581863,-689.302399,8807.752882
1197.704326,-4595.349330,-4365.581863,8884.342038
1197.704625,-12254.264880,-7965.272172,13096.745590
1197.704924,-14475.350389,-9880.001059,13862.637145
1197.705223,-12560.621502,-7046.202306,12713.799813
1197.705523,-5591.008351,-2527.442131,12713.799813
1197.705822,-1608.372265,-1148.837332,13479.691368
1197.706121,1072.248177,612.713244,13632.869679
1197.706420,9267.287815,4978.295107,10416.125148
1197.706727,16543.257588,7735.504705,5131.473418
1197.707027,15624.187722,8654.574571,4442.171019
1197.707326,10416.125148,5131.473418,6816.434839
1197.707625,3752.868619,2450.852976,9190.698660
1197.707924,-4748.527641,-382.945777,9726.822748
1197.708224,-13939.226301,-4825.116796,12637.210657
1197.708523,-20908.839451,-9880.001059,15317.831100
1197.708822,-19530.234652,-8731.163727,17921.862387
1197.709143,-9497.055282,-6127.132440,15853.955188
1197.709443,-0.000000,-76.589155,10722.481770
1197.709743,11488.373325,5744.186662,7888.683016
1197.710044,16926.203365,7275.969772,6816.434839
1197.710344,15777.366033,8195.039638,5514.419196
1197.710645,9114.109504,5591.008351,8731.163727
1197.710945,919.069866,1684.961421,9267.287815
1197.711245,-2450.852976,1225.426488,8807.752882
1197.711518,-9037.520349,-2221.085509,10722.481770
1197.711818,-13173.334746,-5667.597507,12560.621502
1197.712118,-16466.668432,-5973.954129,15317.831100
1197.712418,-11105.427547,-5514.419196,14858.296167
1197.712719,1225.426488,-2680.620442,13096.745590
1197.713019,7735.504705,1684.961421,12254.264880
1197.713319,17079.381676,4825.116796,8501.396260
1197.713619,18917.521408,6050.543284,3676.279464
1197.713936,14705.117856,7429.148083,4595.349330
1197.714231,8348.217949,1991.318043,9956.590215
1197.714527,-5131.473418,-2680.620442,10569.303459
1197.714822,-10645.892614,-5054.884263,10875.660081
1197.715117,-13632.869679,-10033.179370,12560.621502
1197.715412,-16619.846743,-10645.892614,13556.280523
1197.715708,-10492.714303,-7046.202306,15471.009411
1197.716003,-1302.015643,-2833.798753,12101.086569
1197.716326,6127.132440,1531.783110,9267.287815
1197.716623,9803.411904,3216.744531,9650.233593
1197.716921,10416.125148,1225.426488,7582.326394
1197.717218,10416.125148,3523.101153,7199.380617
1197.717516,11182.016703,3216.744531,5437.830040
1197.717813,-229.767466,-2833.798753,9497.055282
1197.718111,-8424.807105,-4671.938485,14015.815456
1197.718408,-10492.714303,-3446.511997,12560.621502
1197.718715,-13479.691368,-3599.690308,12101.086569
1197.719016,-13479.691368,-6433.489062,13709.458834
1197.719317,-10645.892614,-4901.705952,16160.311810
1197.719618,-1914.728887,-689.302399,12560.621502
1197.719919,8348.217949,4442.171019,8807.752882
1197.720220,12943.567279,4288.992708,8807.752882
1197.720520,14015.815456,5591.008351,6969.613150
1197.720821,11488.373325,7429.148083,6816.434839
1197.721102,7046.202306,4748.527641,8271.628794
1197.721401,-2374.263820,153.178311,9573.644437
1197.721701,-5897.364973,-2067.907198,12790.388968
1197.722001,-8271.628794,-4212.403552,12101.086569
1197.722301,-8271.628794,-3752.868619,10569.303459
1197.722600,-7812.093861,-5208.062574,14475.350389
1197.722900,-6050.543284,-5361.240885,13556.280523
1197.723200,919.069866,-1455.193954,10492.714303
1197.723517,8041.861327,2450.852976,9190.698660
1197.723819,10262.946837,4748.527641,6510.078217
1197.724122,10722.481770,8654.574571,8807.752882
1197.724424,9497.055282,10722.481770,7965.272172
1197.724727,5973.954129,9420.466126,6969.613150
1197.725029,-5131.473418,4288.992708,10416.125148
1197.725332,-13326.513057,-2986.977064,11794.729947
1197.725635,-16313.490121,-7658.915550,13403.102212
1197.725935,-15088.063633,-10799.070925,14168.993767
1197.726232,-8577.985416,-12637.210657,14628.528700
1197.726530,-1455.193954,-9497.055282,12560.621502
1197.726828,10875.660081,-2527.442131,8960.931193
1197.727125,14398.761234,153.178311,8807.752882
1197.727423,12484.032346,3369.922842,6280.310751
1197.727720,10722.481770,3829.457775,6433.489062
1197.728018,2986.977064,2757.209598,9956.590215
1197.728318,-3369.922842,1531.783110,9420.466126
1197.728615,-8884.342038,459.534933,12177.675724
1197.728911,-11947.908258,-1914.728887,10722.481770
1197.729208,-11258.605858,-6433.489062,13709.458834
1197.729505,-7505.737239,-8424.807105,15930.544344
1197.729801,-689.302399,-8577.985416,12637.210657
1197.730098,4748.527641,-5208.062574,12790.388968
1197.730395,12790.388968,2297.674665,7812.093861
1197.730709,15011.474478,5897.364973,5820.775818
1197.731007,11182.016703,7582.326394,7122.791461
1197.731306,3140.155375,6816.434839,9497.055282
1197.731605,-2757.209598,5131.473418,8654.574571
1197.731904,-5284.651729,1991.318043,10186.357681
1197.732202,-12101.086569,-3293.333686,13556.280523
1197.732501,-13326.513057,-7965.272172,13403.102212
1197.732800,-9726.822748,-6586.667373,13862.637145
1197.733107,-3829.457775,-5361.240885,11105.427547
1197.733407,-536.124088,-2986.977064,11182.016703
1197.733706,4059.225241,612.713244,11182.016703
1197.734006,10262.946837,5284.651729,8195.039638
1197.734306,13096.745590,8041.861327,6663.256528
1197.734606,9420.466126,7122.791461,9114.109504
1197.734905,4518.760174,4442.171019,8501.396260
1197.735205,-689.302399,5591.008351,8118.450483
1197.735502,-8424.807105,-2527.442131,11488.373325
1197.735802,-14475.350389,-7199.380617,14628.528700
1197.736102,-13326.513057,-7046.202306,15088.063633
1197.736403,-5897.364973,-6127.132440,12637.210657
1197.736703,-76.589155,-4518.760174,10262.946837
1197.737003,4671.938485,-995.659021,10722.481770
1197.737304,5973.954129,2144.496354,9956.590215
1197.737604,7888.683016,6816.434839,6280.310751
1197.737899,8041.861327,6050.543284,6969.613150
1197.738200,4365.581863,1225.426488,10645.892614
1197.738501,612.713244,-842.480710,11105.427547
1197.738801,-689.302399,-995.659021,11182.016703
1197.739102,-5284.651729,-5054.884263,10186.357681
1197.739403,-8884.342038,-8577.985416,12484.032346
1197.739704,-10186.357681,-9726.822748,15241.241944
1197.740005,-6969.613150,-9726.822748,10875.660081
1197.740293,-382.945777,-5514.419196,10416.125148
1197.740594,9420.466126,-995.659021,8041.861327
1197.740895,14245.582923,3216.744531,5514.419196
1197.741196,15930.544344,5897.364973,7199.380617
1197.741496,12943.567279,7582.326394,5054.884263
1197.741797,1378.604799,4442.171019,10262.946837
1197.742098,-7352.558928,1991.318043,13556.280523
1197.742399,-14245.582923,-1608.372265,13939.226301
1197.742708,-16849.614210,-3752.868619,13939.226301
1197.743007,-14781.707011,-5820.775818,13709.458834
1197.743306,-13632.869679,-8731.163727,15930.544344
1197.743604,-3982.636086,-4671.938485,12024.497413
1197.743903,7275.969772,-0.000000,8041.861327
1197.744202,13249.923901,1991.318043,6663.256528
1197.744501,13403.102212,3829.457775,7352.558928
1197.744800,10262.946837,3829.457775,9497.055282
1197.745107,4748.527641,3369.922842,8960.931193
1197.745407,-2374.263820,3216.744531,11258.605858
1197.745706,-6050.543284,306.356622,12177.675724
1197.746006,-7352.558928,-2833.798753,11335.195014
1197.746306,-4748.527641,-3140.155375,12713.799813
1197.746605,-689.302399,-5514.419196,12177.675724
1197.746905,459.534933,-4671.938485,11641.551636
1197.747205,7046.202306,-995.659021,9573.644437
1197.747501,9267.287815,2450.852976,7888.683016
1197.747799,4671.938485,3829.457775,7735.504705
1197.748096,306.356622,3829.457775,9803.411904
1197.748394,-3369.922842,3829.457775,9956.590215
1197.748691,-4748.527641,3063.566220,11641.551636
1197.748988,-4595.349330,612.713244,12101.086569
1197.749286,-6356.899906,-2067.907198,11564.962480
1197.749583,-3982.636086,-2374.263820,12484.032346
1197.749897,-2067.907198,-4365.581863,10875.660081
1197.750196,-1455.193954,-7199.380617,10109.768526
1197.750495,-229.767466,-4825.116796,10262.946837
1197.750794,3293.333686,-4212.403552,9114.109504
1197.751092,4059.225241,-2374.263820,7812.093861
1197.751391,5973.954129,459.534933,9114.109504
1197.751690,4748.527641,153.178311,9573.644437
1197.751988,4365.581863,3829.457775,8807.752882
1197.752300,2144.496354,1991.318043,9803.411904
1197.752597,-2910.387909,-76.589155,11641.551636
1197.752893,-7352.558928,-2680.620442,13096.745590
1197.753190,-9343.876971,-5361.240885,14475.350389
1197.753487,-6816.434839,-5514.419196,12024.497413
1197.753783,-4595.349330,-3906.046930,11335.195014
1197.754080,-1148.837332,-1608.372265,10492.714303
1197.754376,1378.604799,-76.589155,8654.574571
1197.754676,7046.202306,4135.814397,7658.915550
1197.754978,8807.752882,3063.566220,8884.342038
1197.755281,5054.884263,1684.961421,10569.303459
1197.755584,4059.225241,2604.031287,10569.303459
1197.755886,2680.620442,1072.248177,9114.109504
1197.756189,-536.124088,-2221.085509,9573.644437
1197.756491,-4825.116796,-5361.240885,13326.513057
1197.756794,-6050.543284,-6433.489062,14781.707011
1197.757101,-5744.186662,-7046.202306,11947.908258
1197.757397,-229.767466,-3906.046930,11488.373325
1197.757693,4901.705952,1378.604799,10109.768526
1197.757989,7122.791461,5284.651729,5973.954129
1197.758285,6127.132440,9267.287815,6663.256528
1197.758581,5054.884263,9650.233593,8041.861327
1197.758877,-2604.031287,6203.721595,10186.357681
1197.759173,-9343.876971,1531.783110,15088.063633
1197.759493,-10339.535992,-2986.977064,13862.637145
1197.759790,-6663.256528,-3599.690308,12101.086569
1197.760087,-3216.744531,-6280.310751,12484.032346
1197.760384,-2067.907198,-7965.272172,12790.388968
1197.760681,2374.263820,-5054.884263,10875.660081
1197.760978,7888.683016,-1455.193954,6969.613150
1197.761275,8195.039638,765.891555,4901.705952
1197.761572,4059.225241,306.356622,8960.931193
1197.761891,-689.302399,-689.302399,9726.822748
1197.762189,-3829.457775,-76.589155,8654.574571
1197.762487,-6356.899906,-0.000000,12484.032346
1197.762785,-9037.520349,-4365.581863,14168.993767
1197.763084,-5897.364973,-4212.403552,13096.745590
1197.763382,1531.783110,-3293.333686,12484.032346
1197.763680,8195.039638,-2986.977064,10339.535992
1197.763978,8501.396260,-1302.015643,9726.822748
1197.764291,9650.233593,-0.000000,9114.109504
1197.764590,7122.791461,1072.248177,6739.845684
1197.764890,2986.977064,2144.496354,6356.899906
1197.765189,-1914.728887,-1302.015643,8807.752882
1197.765488,-5744.186662,-5054.884263,9573.644437
1197.765788,-6663.256528,-2986.977064,12713.799813
1197.766087,-9037.520349,-5208.062574,12866.978124
1197.766386,-8424.807105,-5514.419196,12790.388968
1197.766686,-4135.814397,-842.480710,15241.241944
1197.766983,2527.442131,-229.767466,11335.195014
1197.767281,2986.977064,153.178311,11182.016703
1197.767578,6739.845684,1684.961421,10109.768526
1197.767876,8960.931193,2910.387909,6816.434839
1197.768173,8041.861327,3829.457775,4748.527641
1197.768471,4671.938485,3829.457775,6510.078217
1197.768768,-2374.263820,-229.767466,10645.892614
1197.769075,-7658.915550,-1302.015643,12407.443191
1197.769376,-9190.698660,-1148.837332,14475.350389
1197.769677,-10186.357681,-1302.015643,13096.745590
1197.769978,-6969.613150,-1302.015643,13786.047990
1197.770279,-2067.907198,-995.659021,14168.993767
1197.770580,2374.263820,-1608.372265,10262.946837
1197.770881,7122.791461,2757.209598,10492.714303
1197.771182,11335.195014,3216.744531,7199.380617
1197.771496,10416.125148,1684.961421,4442.171019
1197.771795,7275.969772,153.178311,7812.093861
1197.772095,612.713244,-1914.728887,10492.714303
1197.772394,-5437.830040,-2374.263820,10262.946837
1197.772694,-8577.985416,-2221.085509,11641.551636
1197.772993,-10492.714303,-3293.333686,12637.210657
1197.773293,-9497.055282,-2680.620442,14092.404612
1197.773592,-6203.721595,-2221.085509,13249.923901
1197.773911,765.891555,-2067.907198,11028.838392
1197.774207,7429.148083,-995.659021,11411.784169
1197.774503,13096.745590,612.713244,8348.217949
1197.774799,14168.993767,1991.318043,5667.597507
1197.775095,9497.055282,3369.922842,5054.884263
1197.775391,2144.496354,306.356622,7122.791461
1197.775687,-6356.899906,-2680.620442,10416.125148
1197.775983,-12407.443191,-3140.155375,12713.799813
1197.776301,-14628.528700,-4825.116796,14322.172078
1197.776595,-11105.427547,-4212.403552,12330.854035
1197.776890,-6663.256528,-2986.977064,13173.334746
1197.777184,153.178311,-2986.977064,12790.388968
1197.777478,5667.597507,-1455.193954,10109.768526
1197.777773,9267.287815,-1914.728887,10033.179370
1197.778067,11182.016703,153.178311,7582.326394
1197.778362,7429.148083,-536.124088,7122.791461
1197.778685,4671.938485,459.534933,8041.861327
1197.778982,-2221.085509,-536.124088,9190.698660
1197.779278,-10645.892614,-995.659021,11871.319102
1197.779575,-13020.156435,-1302.015643,12254.264880
1197.779872,-11564.962480,-2067.907198,13326.513057
1197.780168,-5131.473418,-1148.837332,13403.102212
1197.780465,2144.496354,-0.000000,13096.745590
1197.780762,9803.411904,-229.767466,12407.443191
1197.781092,15317.831100,4288.992708,8041.861327
1197.781388,15624.187722,5284.651729,8501.396260
1197.781683,10109.768526,4595.349330,5973.954129
1197.781979,4748.527641,3982.636086,7275.969772
1197.782274,-3676.279464,1072.248177,9956.590215
1197.782570,-11258.605858,-1608.372265,9343.876971
1197.782866,-15241.241944,-2221.085509,13862.637145
1197.783161,-15853.955188,-4671.938485,14628.528700
1197.783468,-10799.070925,-4365.581863,10875.660081
1197.783769,-4825.116796,-3140.155375,13939.226301
1197.784071,919.069866,-2067.907198,13249.923901
1197.784372,10109.768526,1225.426488,9956.590215
1197.784673,16773.025054,4595.349330,6893.023995
1197.784975,17692.094920,5131.473418,5131.473418
1197.785276,12790.388968,3369.922842,6127.132440
1197.785577,5054.884263,2450.852976,6510.078217
1197.785861,-4135.814397,-76.589155,8424.807105
1197.786164,-14092.404612,-5208.062574,12177.675724
1197.786466,-19683.412963,-8577.985416,14781.707011
1197.786769,-18534.575631,-10186.357681,14628.528700
1197.787072,-13479.691368,-7658.915550,14322.172078
1197.787375,-5131.473418,-6127.132440,15241.241944
1197.787678,2833.798753,-2833.798753,11258.605858
1197.787981,13556.280523,919.069866,8960.931193
1197.788262,15624.187722,459.534933,8501.396260
1197.788561,18457.986475,4288.992708,3906.046930
1197.788860,15317.831100,4288.992708,5591.008351
1197.789159,7735.504705,-229.767466,6356.899906
1197.789458,-1302.015643,-2833.798753,9267.287815
1197.789756,-8884.342038,-4059.225241,11641.551636
1197.790055,-16160.311810,-6893.023995,12943.567279
1197.790354,-19377.056341,-9343.876971,17462.327454
1197.790689,-15394.420255,-8731.163727,17309.149143
1197.790985,-6510.078217,-2680.620442,15164.652789
1197.791281,6739.845684,3216.744531,9880.001059
1197.791577,13862.637145,7582.326394,6816.434839
1197.791872,18457.986475,9114.109504,5054.884263
1197.792168,17692.094920,11641.551636,3752.868619
1197.792464,11641.551636,8807.752882,5437.830040
1197.792760,-689.302399,919.069866,8501.396260
1197.793097,-13939.226301,-4825.116796,14168.993767
1197.793392,-17155.970832,-8424.807105,14934.885322
1197.793686,-16849.614210,-7812.093861,12943.567279
1197.793981,-13939.226301,-6739.845684,15853.955188
1197.794275,-7122.791461,-5973.954129,14551.939545
1197.794569,3599.690308,-76.589155,10722.481770
1197.794864,16083.722655,7582.326394,8501.396260
1197.795158,15164.652789,6663.256528,6663.256528
1197.795466,13709.458834,8041.861327,5361.240885
1197.795765,8348.217949,6356.899906,8884.342038
1197.796065,-689.302399,3063.566220,8501.396260
1197.796365,-8271.628794,-536.124088,10952.249236
1197.796665,-15700.776877,-4059.225241,13249.923901
1197.796964,-13326.513057,-7965.272172,12637.210657
1197.797264,-11871.319102,-8118.450483,17309.149143
1197.797564,-3982.636086,-5054.884263,12713.799813
1197.797860,4212.403552,-1914.728887,10109.768526
1197.798160,11182.016703,2450.852976,9497.055282
1197.798460,15164.652789,3216.744531,7275.969772
1197.798759,14551.939545,4288.992708,4825.116796
1197.799059,11028.838392,3369.922842,5973.954129
1197.799358,2144.496354,-2374.263820,8041.861327
1197.799658,-6663.256528,-6739.845684,10186.357681
1197.799957,-10799.070925,-8577.985416,13939.226301
1197.800252,-13020.156435,-10033.179370,12330.854035
1197.800552,-13479.691368,-7199.380617,14015.815456
1197.800852,-9726.822748,-4825.116796,15471.009411
1197.801153,-2910.387909,-1455.193954,12407.443191
1197.801453,6586.667373,4135.814397,9803.411904
1197.801753,14705.117856,7888.683016,5361.240885
1197.802053,12177.675724,4825.116796,7582.326394
1197.802353,9650.233593,4595.349330,9803.411904
1197.802688,7735.504705,4978.295107,5897.364973
1197.802982,459.534933,153.178311,7888.683016
1197.803276,-8731.163727,-6586.667373,12254.264880
1197.803571,-17309.149143,-10645.892614,15777.366033
1197.803865,-16313.490121,-10033.179370,14398.761234
1197.804159,-10645.892614,-4365.581863,12560.621502
1197.804453,-4748.527641,-3293.333686,12560.621502
1197.804747,1378.604799,-1148.837332,11182.016703
1197.805046,9956.590215,5131.473418,10339.535992
1197.805347,12943.567279,8041.861327,7582.326394
1197.805647,12790.388968,8501.396260,6433.489062
1197.805947,9420.466126,6510.078217,9497.055282
1197.806247,3140.155375,2910.387909,9880.001059
1197.806547,306.356622,3369.922842,9267.287815
1197.806847,-3523.101153,1072.248177,10262.946837
1197.807147,-9037.520349,-3140.155375,10492.714303
1197.807454,-13173.334746,-7046.202306,14628.528700
1197.807752,-11947.908258,-7965.272172,17002.792521
1197.808050,-6510.078217,-5820.775818,12407.443191
1197.808348,3599.690308,-76.589155,11335.195014
1197.808647,8960.931193,3369.922842,8654.574571
1197.808945,13709.458834,6356.899906,5208.062574
1197.809243,13403.102212,8195.039638,7122.791461
1197.809541,8041.861327,4825.116796,6280.310751
1197.809857,-1302.015643,1072.248177,9573.644437
1197.810158,-11105.427547,-3446.511997,13556.280523
1197.810459,-13020.156435,-8424.807105,12407.443191
1197.810760,-13939.226301,-7352.558928,14015.815456
1197.811061,-9343.876971,-6280.310751,13326.513057
1197.811362,-6203.721595,-7812.093861,11794.729947
1197.811663,153.178311,-3140.155375,12101.086569
1197.811964,8960.931193,1991.318043,9880.001059
1197.812279,10875.660081,2757.209598,6356.899906
1197.812575,11641.551636,5591.008351,7199.380617
1197.812871,7429.148083,5897.364973,7582.326394
1197.813167,3599.690308,1838.139732,8654.574571
1197.813464,-5591.008351,-229.767466,12713.799813
1197.813760,-4442.171019,-1914.728887,11028.838392
1197.814056,-10645.892614,-6893.023995,13709.458834
1197.814353,-8884.342038,-9650.233593,14628.528700
1197.814688,-4442.171019,-10033.179370,14475.350389
1197.814981,2297.674665,-3446.511997,10262.946837
1197.815274,9267.287815,-382.945777,9037.520349
1197.815567,8654.574571,-76.589155,8960.931193
1197.815861,7735.504705,4825.116796,9267.287815
1197.816154,5973.954129,7429.148083,8654.574571
1197.816447,-76.589155,6510.078217,8501.396260
1197.816740,-6356.899906,1378.604799,12560.621502
1197.817040,-7812.093861,1531.783110,13096.745590
1197.817339,-6663.256528,612.713244,10875.660081
1197.817638,-6203.721595,-76.589155,11028.838392
1197.817937,-6203.721595,-4059.225241,14475.350389
1197.818237,-4748.527641,-6127.132440,14781.707011
1197.818536,5361.240885,-382.945777,12254.264880
1197.818835,12790.388968,4595.349330,6739.845684
1197.819134,11028.838392,3829.457775,3982.636086
1197.819441,5820.775818,4135.814397,9267.287815
1197.819741,1838.139732,2910.387909,10033.179370
1197.820041,-2374.263820,1991.318043,10109.768526
1197.820341,-6510.078217,-2374.263820,12254.264880
1197.820642,-10799.070925,-7046.202306,12943.567279
1197.820942,-9190.698660,-7658.915550,13862.637145
1197.821242,-5897.364973,-4901.705952,12790.388968
1197.821542,-2910.387909,-4825.116796,10875.660081
1197.821891,1684.961421,-1302.015643,10569.303459
1197.822189,4748.527641,1838.139732,10262.946837
1197.822486,8654.574571,2910.387909,5667.597507
1197.822783,9267.287815,5897.364973,7429.148083
1197.823080,7429.148083,3063.566220,8195.039638
1197.823377,2527.442131,-229.767466,8731.163727
1197.823674,-1914.728887,-76.589155,11411.784169
1197.823971,-6050.543284,-5514.419196,11028.838392
1197.824244,-11564.962480,-10492.714303,12407.443191
1197.824544,-11258.605858,-10339.535992,13556.280523
1197.824844,-6816.434839,-10799.070925,11028.838392
1197.825144,306.356622,-8118.450483,10875.660081
1197.825444,9114.109504,-2680.620442,9573.644437
1197.825744,16619.846743,1684.961421,6203.721595
1197.826044,12177.675724,5284.651729,7888.683016
1197.826344,7888.683016,6663.256528,6356.899906
1197.826690,2297.674665,5131.473418,8884.342038
1197.826983,-6203.721595,1991.318043,10645.892614
1197.827275,-11564.962480,-0.000000,14475.350389
1197.827568,-16466.668432,-5361.240885,15088.063633
1197.827861,-10799.070925,-2374.263820,14168.993767
1197.828153,-6969.613150,-4365.581863,12866.978124
1197.828446,-3676.279464,-5514.419196,11641.551636
1197.828738,1838.139732,-2680.620442,11488.373325
1197.829038,8960.931193,-689.302399,9190.698660
1197.829339,9956.590215,3523.101153,7888.683016
1197.829640,7275.969772,3676.279464,9037.520349
1197.829941,3140.155375,3063.566220,9267.287815
1197.830241,3140.155375,4748.527641,9803.411904
1197.830542,-76.589155,3982.636086,11488.373325
1197.830843,-3523.101153,1072.248177,10875.660081
1197.831144,-7352.558928,-1148.837332,12713.799813
1197.831451,-5897.364973,-3752.868619,14092.404612
1197.831748,-995.659021,-4212.403552,12943.567279
1197.832045,3446.511997,-1914.728887,10262.946837
1197.832342,8348.217949,2910.387909,8807.752882
1197.832639,11641.551636,3676.279464,5514.419196
1197.832935,7046.202306,4595.349330,8118.450483
1197.833232,2680.620442,2910.387909,10109.768526
1197.833529,-6356.899906,-1761.550576,10262.946837
1197.833837,-10186.357681,-1455.193954,13173.334746
1197.834140,-10799.070925,-3446.511997,12637.210657
1197.834443,-10492.714303,-5361.240885,10722.481770
1197.834745,-6663.256528,-5054.884263,13862.637145
1197.835048,153.178311,-5973.954129,11564.962480
1197.835351,4212.403552,-5667.597507,10262.946837
1197.835653,9267.287815,-995.659021,8960.931193
1197.835956,11641.551636,-1148.837332,4365.581863
1197.836194,8501.396260,-995.659021,8654.574571
1197.836502,3752.868619,-1455.193954,9573.644437
1197.836809,-76.589155,-382.945777,9343.876971
1197.837117,-4595.349330,-842.480710,10875.660081
1197.837424,-9037.520349,-2527.442131,12254.264880
1197.837732,-11258.605858,-5208.062574,13403.102212
1197.838039,-9343.876971,-4059.225241,13403.102212
1197.838346,-4288.992708,-3906.046930,11794.729947
1197.838692,-689.302399,-4365.581863,11488.373325
1197.838983,3140.155375,-2374.263820,10416.125148
1197.839274,7046.202306,1531.783110,10416.125148
1197.839566,7046.202306,2450.852976,7199.380617
1197.839857,6586.667373,5284.651729,7582.326394
1197.840148,4748.527641,3982.636086,7582.326394
1197.840439,-0.000000,1838.139732,8654.574571
1197.840730,-3829.457775,-536.124088,13862.637145
1197.841030,-5437.830040,-1455.193954,12943.567279
1197.841329,-2450.852976,-995.659021,11258.605858
1197.841628,-2450.852976,-1761.550576,13556.280523
1197.841928,-536.124088,-2680.620442,11871.319102
1197.842227,1531.783110,-0.000000,11488.373325
1197.842526,4748.527641,4595.349330,8807.752882
1197.842825,9420.466126,7122.791461,5361.240885
1197.843124,5208.062574,7122.791461,7429.148083
1197.843438,765.891555,4595.349330,8960.931193
1197.843736,-4288.992708,765.891555,11871.319102
1197.844034,-6510.078217,153.178311,12637.210657
1197.844332,-6356.899906,-2986.977064,10186.357681
1197.844631,-9037.520349,-7199.380617,12560.621502
1197.844929,-9573.644437,-8118.450483,16696.435899
1197.845227,-2910.387909,-6280.310751,13403.102212
1197.845525,2833.798753,-4365.581863,9497.055282
1197.845832,7888.683016,-76.589155,9420.466126
1197.846130,8960.931193,1378.604799,7735.504705
1197.846427,8348.217949,3369.922842,6280.310751
1197.846724,4518.760174,4442.171019,7658.915550
1197.847021,-382.945777,919.069866,9267.287815
1197.847318,-4748.527641,-1608.372265,10875.660081
1197.847616,-6969.613150,-3293.333686,11488.373325
1197.847913,-8731.163727,-6739.845684,12790.388968
1197.848243,-8271.628794,-5208.062574,13939.226301
1197.848538,-4595.349330,-4825.116796,13862.637145
1197.848834,3293.333686,-4059.225241,10722.481770
1197.849129,7888.683016,-536.124088,10109.768526
1197.849425,9497.055282,3216.744531,9114.109504
1197.849721,9956.590215,4135.814397,5208.062574
1197.850016,6893.023995,5131.473418,5208.062574
1197.850312,2297.674665,3829.457775,6816.434839
1197.850639,-4748.527641,-1455.193954,10416.125148
1197.850939,-11718.140791,-4212.403552,13709.458834
1197.851238,-10033.179370,-5514.419196,12637.210657
1197.851538,-8271.628794,-4365.581863,13326.513057
1197.851837,-4748.527641,-4825.116796,14475.350389
1197.852137,3752.868619,-689.302399,11794.729947
1197.852436,8960.931193,3523.101153,9880.001059
1197.852736,12943.567279,7735.504705,7582.326394
1197.853024,10262.946837,7275.969772,5973.954129
1197.853325,3599.690308,5437.830040,7275.969772
1197.853626,-2450.852976,-0.000000,9573.644437
1197.853927,-10033.179370,-3599.690308,12407.443191
1197.854227,-13020.156435,-5514.419196,13096.745590
1197.854528,-12101.086569,-6280.310751,13096.745590
1197.854829,-8424.807105,-5973.954129,14322.172078
1197.855130,-3063.566220,-2986.977064,12866.978124
1197.855439,2527.442131,-995.659021,12943.567279
1197.855734,7275.969772,612.713244,10569.303459
1197.856030,13709.458834,7122.791461,9803.411904
1197.856325,14551.939545,7888.683016,5973.954129
1197.856620,13556.280523,8041.861327,3063.566220
1197.856916,4748.527641,4978.295107,8195.039638
1197.857211,-3676.279464,-1302.015643,10799.070925
1197.857506,-11947.908258,-7046.202306,12713.799813
1197.857813,-13786.047990,-6586.667373,12713.799813
1197.858114,-11411.784169,-8118.450483,12790.388968
1197.858414,-10645.892614,-8424.807105,14168.993767
1197.858715,-4595.349330,-4212.403552,14245.582923
1197.859015,1838.139732,-689.302399,11182.016703
1197.859316,9803.411904,3216.744531,8501.396260
1197.859616,15471.009411,3982.636086,6356.899906
1197.859917,16083.722655,2450.852976,3906.046930
1197.860213,12024.497413,2144.496354,6816.434839
1197.860516,3446.511997,-842.480710,7888.683016
1197.860819,-4978.295107,-5361.240885,9803.411904
1197.861122,-12560.621502,-6739.845684,12177.675724
1197.861425,-17002.792521,-8577.985416,13709.458834
1197.861727,-17002.792521,-9497.055282,15241.241944
1197.862030,-8884.342038,-4901.705952,15394.420255
1197.862333,2297.674665,-1302.015643,10722.481770
1197.862628,9956.590215,1991.318043,9573.644437
1197.862925,12790.388968,3216.744531,9573.644437
1197.863222,14245.582923,5591.008351,7812.093861
1197.863518,9420.466126,5744.186662,7429.148083
1197.863815,2297.674665,3369.922842,7888.683016
1197.864112,-7199.380617,-2374.263820,11028.838392
1197.864409,-14475.350389,-5973.954129,13249.923901
1197.864706,-13479.691368,-5973.954129,14015.815456
1197.865018,-14092.404612,-6893.023995,13403.102212
1197.865318,-8118.450483,-2221.085509,14015.815456
1197.865618,459.534933,459.534933,13096.745590
1197.865918,8041.861327,2604.031287,10875.660081
1197.866218,16619.846743,8348.217949,9573.644437
1197.866517,20832.250296,11182.016703,7199.380617
1197.866817,17538.916609,9803.411904,4518.760174
1197.867117,9803.411904,9267.287815,7352.558928
1197.867417,-1914.728887,3829.457775,9573.644437
1197.867716,-11411.784169,-1302.015643,9190.698660
1197.868016,-18381.397320,-3906.046930,13862.637145
1197.868315,-19989.769585,-9497.055282,14705.117856
1197.868614,-16007.133499,-10033.179370,14628.528700
1197.868913,-6510.078217,-4825.116796,13862.637145
1197.869212,5514.419196,-2680.620442,10722.481770
1197.869511,11335.195014,306.356622,10262.946837
1197.869819,17845.273231,6356.899906,7352.558928
1197.870120,20985.428607,8654.574571,3676.279464
1197.870422,13403.102212,7888.683016,5667.597507
1197.870723,2680.620442,765.891555,7888.683016
1197.871024,-8424.807105,-5667.597507,11258.605858
1197.871326,-15853.955188,-7965.272172,12560.621502
1197.871627,-19223.878030,-12330.854035,13939.226301
1197.871929,-19836.591274,-14475.350389,15088.063633
1197.872164,-13020.156435,-9037.520349,15547.598566
1197.872469,-0.000000,-4365.581863,12407.443191
1197.872774,6586.667373,-229.767466,10109.768526
1197.873080,16236.900966,4135.814397,7888.683016
1197.873385,17232.559987,6816.434839,6816.434839
1197.873690,15930.544344,6663.256528,5744.186662
1197.873996,9803.411904,6356.899906,6510.078217
1197.874301,-0.000000,919.069866,8807.752882
1197.874620,-7965.272172,-3752.868619,9956.590215
1197.874918,-14781.707011,-8271.628794,14934.885322
1197.875216,-15700.776877,-9650.233593,15853.955188
1197.875514,-13786.047990,-5054.884263,14015.815456
1197.875813,-3216.744531,-1148.837332,12560.621502
1197.876111,2144.496354,1072.248177,11258.605858
1197.876409,9956.590215,7275.969772,9497.055282
1197.876707,16773.025054,10262.946837,5667.597507
1197.877020,17385.738298,10416.125148,2680.620442
1197.877319,12024.497413,5284.651729,8271.628794
1197.877617,1378.604799,-536.124088,11564.962480
1197.877916,-4595.349330,-1302.015643,10722.481770
1197.878214,-10186.357681,-1148.837332,11028.838392
1197.878512,-16466.668432,-8118.450483,11182.016703
1197.878811,-18994.110564,-10492.714303,16926.203365
1197.879109,-14092.404612,-6739.845684,17002.792521
1197.879409,-1455.193954,-1914.728887,10875.660081
1197.879709,7582.326394,1838.139732,8807.752882
1197.880009,13556.280523,4748.527641,8348.217949
1197.880309,15164.652789,5284.651729,8041.861327
1197.880609,12943.567279,8501.396260,7505.737239
1197.880909,7735.504705,6203.721595,6203.721595
1197.881209,-2374.263820,-229.767466,8960.931193
1197.881509,-12866.978124,-5667.597507,13939.226301
1197.881816,-15241.241944,-9726.822748,13096.745590
1197.882113,-14934.885322,-10952.249236,12560.621502
1197.882410,-10799.070925,-10645.892614,13862.637145
1197.882707,-4748.527641,-8424.807105,13326.513057
1197.883004,4059.225241,-3293.333686,11335.195014
1197.883301,13249.923901,4595.349330,8501.396260
1197.883597,19300.467186,6816.434839,6203.721595
1197.883894,15777.366033,7888.683016,6356.899906
1197.884208,11641.551636,8501.396260,6127.132440
1197.884511,2374.263820,4825.116796,8807.752882
1197.884814,-6816.434839,919.069866,10875.660081
1197.885117,-13479.691368,-4518.760174,11794.729947
1197.885419,-17155.970832,-9726.822748,13403.102212
1197.885722,-12254.264880,-9497.055282,13020.156435
1197.886025,-6050.543284,-6433.489062,13556.280523
1197.886328,1991.318043,-4365.581863,11411.784169
1197.886601,7735.504705,612.713244,9420.466126
1197.886903,15930.544344,6510.078217,7429.148083
1197.887206,13862.637145,7429.148083,6356.899906
1197.887509,8041.861327,7122.791461,8118.450483
1197.887811,1991.318043,4595.349330,10109.768526
1197.888114,-6050.543284,-842.480710,10109.768526
1197.888417,-12101.086569,-5208.062574,12713.799813
1197.888719,-15700.776877,-7352.558928,14781.707011
1197.889036,-11947.908258,-8271.628794,12560.621502
1197.889332,-9343.876971,-5514.419196,14015.815456
1197.889627,-2450.852976,-4671.938485,13479.691368
1197.889922,4059.225241,153.178311,11182.016703
1197.890217,10569.303459,5897.364973,9420.466126
1197.890513,13249.923901,6816.434839,6356.899906
1197.890808,9114.109504,5744.186662,8348.217949
1197.891103,5514.419196,5284.651729,8654.574571
1197.891403,459.534933,459.534933,8731.163727
1197.891701,-6203.721595,-2527.442131,11641.551636
1197.891998,-5284.651729,-6433.489062,11258.605858
1197.892295,-10492.714303,-9190.698660,13249.923901
1197.892593,-8424.807105,-5820.775818,13173.334746
1197.892890,-2221.085509,-4059.225241,11641.551636
1197.893188,2297.674665,-995.659021,11182.016703
1197.893485,8807.752882,5897.364973,7582.326394
1197.893815,8195.039638,7122.791461,8501.396260
1197.894112,11871.319102,8195.039638,8118.450483
1197.894409,11871.319102,9803.411904,6127.132440
1197.894706,6280.310751,4442.171019,6663.256528
1197.895003,-3982.636086,-2833.798753,10416.125148
1197.895300,-13326.513057,-7505.737239,15241.241944
1197.895597,-13326.513057,-9190.698660,12790.388968
1197.895894,-15241.241944,-7812.093861,12024.497413
1197.896207,-11564.962480,-9650.233593,14934.885322
1197.896505,-4288.992708,-9497.055282,13096.745590
1197.896802,4671.938485,-1914.728887,9956.590215
1197.897099,15624.187722,4442.171019,6127.132440
1197.897397,14858.296167,4978.295107,5208.062574
1197.897694,11335.195014,3982.636086,8807.752882
1197.897992,4671.938485,2450.852976,10416.125148
1197.898289,-1914.728887,-689.302399,10875.660081
1197.898606,-9037.520349,-1148.837332,12560.621502
1197.898906,-12101.086569,-4518.760174,12101.086569
1197.899207,-12560.621502,-6739.845684,13096.745590
1197.899508,-9726.822748,-5054.884263,14628.528700
1197.899808,-2450.852976,-5973.954129,12177.675724
1197.900109,5514.419196,-1914.728887,9497.055282
1197.900409,13249.923901,1838.139732,8195.039638
1197.900710,16390.079277,1991.318043,6280.310751
1197.900992,12790.388968,4748.527641,7658.915550
1197.901295,8501.396260,5897.364973,8577.985416
1197.901597,919.069866,4748.527641,9420.466126
1197.901900,-6203.721595,3676.279464,10722.481770
1197.902203,-12866.978124,1684.961421,12943.567279
1197.902505,-14781.707011,-2221.085509,13020.156435
1197.902808,-13939.226301,-3446.511997,13709.458834
1197.903111,-5131.473418,-2833.798753,12177.675724
1197.903400,153.178311,-2986.977064,10722.481770
1197.903700,6893.023995,2450.852976,9956.590215
1197.903999,13709.458834,3982.636086,7582.326394
1197.904298,11488.373325,3523.101153,6663.256528
1197.904597,5973.954129,3676.279464,9573.644437
1197.904896,2527.442131,1838.139732,9956.590215
1197.905196,-3523.101153,765.891555,11182.016703
1197.905495,-7658.915550,-2986.977064,11794.729947
1197.905781,-10033.179370,-7046.202306,12943.567279
1197.906082,-10799.070925,-8271.628794,14398.761234
1197.906384,-4978.295107,-7965.272172,13249.923901
1197.906686,153.178311,-9037.520349,11028.838392
1197.906988,5514.419196,-5208.062574,9573.644437
1197.907290,8501.396260,-1148.837332,9420.466126
1197.907591,7582.326394,612.713244,7888.683016
1197.907893,5208.062574,4135.814397,9420.466126
1197.908200,2986.977064,6510.078217,9267.287815
1197.908500,-842.480710,4288.992708,9190.698660
1197.908800,-3982.636086,459.534933,12101.086569
1197.909100,-6356.899906,-4518.760174,12254.264880
1197.909399,-6356.899906,-7199.380617,12254.264880
1197.909699,-6050.543284,-7812.093861,12101.086569
1197.909999,-2374.263820,-7199.380617,10722.481770
1197.910298,153.178311,-3906.046930,10722.481770
1197.910595,2374.263820,-842.480710,10186.357681
1197.910895,8348.217949,3216.744531,7812.093861
1197.911195,11641.551636,8041.861327,5514.419196
1197.911494,11028.838392,8501.396260,6510.078217
1197.911794,3446.511997,4825.116796,10109.768526
1197.912093,-1914.728887,3829.457775,11028.838392
1197.912393,-3676.279464,3063.566220,10799.070925
1197.912693,-10033.179370,-4059.225241,11028.838392
1197.912988,-11718.140791,-8271.628794,14168.993767
1197.913289,-8884.342038,-6280.310751,14475.350389
1197.913589,-2374.263820,-5820.775818,11028.838392
1197.913890,1991.318043,-1914.728887,10339.535992
1197.914191,6127.132440,-1455.193954,9497.055282
1197.914492,8654.574571,3676.279464,8195.039638
1197.914793,5514.419196,5897.364973,8960.931193
1197.915094,306.356622,2757.209598,9573.644437
1197.915382,-6203.721595,-995.659021,12943.567279
1197.915683,-6969.613150,-2221.085509,13709.458834
1197.915983,-6663.256528,-3906.046930,12407.443191
1197.916284,-5744.186662,-4901.705952,12254.264880
1197.916585,-4748.527641,-5820.775818,12943.567279
1197.916886,2986.977064,-4518.760174,12101.086569
1197.917186,8041.861327,-0.000000,10569.303459
1197.917487,13096.745590,2297.674665,6280.310751
1197.917796,12024.497413,4288.992708,5514.419196
1197.918092,5973.954129,2757.209598,9880.001059
1197.918387,-0.000000,1531.783110,12484.032346
1197.918682,-2757.209598,1991.318043,10416.125148
1197.918978,-6816.434839,2450.852976,9573.644437
1197.919273,-8731.163727,-4671.938485,11794.729947
1197.919568,-11718.140791,-7199.380617,15241.241944
1197.919864,-5437.830040,-3446.511997,13173.334746
1197.920171,1378.604799,-382.945777,9114.109504
1197.920470,2527.442131,1684.961421,9880.001059
1197.920769,4365.581863,3676.279464,9420.466126
1197.921068,3446.511997,5131.473418,7429.148083
1197.921367,3446.511997,4135.814397,7199.380617
1197.921666,-229.767466,1684.961421,8041.861327
1197.921965,612.713244,-3293.333686,10109.768526
1197.922264,-4288.992708,-5054.884263,11794.729947
1197.922580,-76.589155,-3906.046930,10875.660081
1197.922877,-2067.907198,-5820.775818,11258.605858
1197.923175,-2757.209598,-6739.845684,12713.799813
1197.923473,-689.302399,-6127.132440,12637.210657
1197.923770,-1914.728887,-4825.116796,11488.373325
1197.924068,306.356622,-842.480710,10033.179370
1197.924366,2986.977064,1684.961421,8501.396260
1197.924663,3752.868619,2757.209598,7888.683016
1197.924978,5054.884263,5284.651729,7199.380617
1197.925277,2297.674665,3676.279464,9956.590215
1197.925575,-2450.852976,-995.659021,12254.264880
1197.925874,-3676.279464,-1608.372265,13249.923901
1197.926173,-3369.922842,-2986.977064,12713.799813
1197.926471,-3676.279464,-3906.046930,10722.481770
1197.926770,-4978.295107,-4518.760174,12943.567279
1197.927069,-2450.852976,-4901.705952,12943.567279
1197.927380,2986.977064,-2221.085509,10645.892614
1197.927680,8654.574571,1072.248177,7199.380617
1197.927979,10109.768526,1838.139732,5744.186662
1197.928278,7046.202306,3982.636086,9114.109504
1197.928577,1072.248177,3676.279464,9343.876971
1197.928876,-2450.852976,3982.636086,10416.125148
1197.929175,-7122.791461,4748.527641,11641.551636
1197.929474,-9573.644437,-842.480710,11718.140791
1197.929774,-10799.070925,-5054.884263,14168.993767
1197.930073,-9497.055282,-6586.667373,15394.420255
1197.930372,2144.496354,-5361.240885,10875.660081
1197.930671,6127.132440,-4212.403552,9573.644437
1197.930971,11335.195014,-382.945777,7888.683016
1197.931270,9497.055282,-0.000000,7888.683016
1197.931569,4212.403552,1991.318043,8654.574571
1197.931868,459.534933,3829.457775,7582.326394
1197.932176,-4442.171019,459.534933,8577.985416
1197.932475,-10186.357681,-2067.907198,11794.729947
1197.932774,-9726.822748,-4365.581863,13479.691368
1197.933073,-9190.698660,-6127.132440,13249.923901
1197.933372,-3523.101153,-6586.667373,12713.799813
1197.933672,2297.674665,-5514.419196,11641.551636
1197.933971,8501.396260,-5361.240885,9726.822748
1197.934270,9650.233593,-2680.620442,10109.768526
1197.934591,12024.497413,459.534933,8041.861327
1197.934888,8960.931193,5897.364973,5973.954129
1197.935185,4671.938485,5131.473418,6433.489062
1197.935482,-2604.031287,1991.318043,9956.590215
1197.935779,-8577.985416,153.178311,12637.210657
1197.936076,-11564.962480,-1148.837332,13096.745590
1197.936373,-9573.644437,-5514.419196,12407.443191
1197.936670,-6050.543284,-5514.419196,13249.923901
1197.936989,306.356622,-4365.581863,12943.567279
1197.937287,5667.597507,-1608.372265,9573.644437
1197.937585,7735.504705,2450.852976,10416.125148
1197.937883,8654.574571,4978.295107,8807.752882
1197.938182,7429.148083,7735.504705,6969.613150
1197.938480,3752.868619,8041.861327,7735.504705
1197.938778,-5437.830040,2144.496354,6893.023995
1197.939076,-17002.792521,-3446.511997,13709.458834
1197.939389,-24738.297226,-5667.597507,14934.885322
1197.939685,-28720.933312,-5514.419196,14628.528700
1197.939981,-35460.778996,-7046.202306,16849.614210
1197.940277,-35613.957307,-7046.202306,18075.040698
1197.940573,-32626.980243,-4518.760174,17309.149143
1197.940869,-26346.669492,-229.767466,14628.528700
1197.941165,-18381.397320,4135.814397,12407.443191
1197.941461,-12101.086569,6510.078217,9573.644437
1197.941761,-3676.279464,6203.721595,5208.062574
1197.942061,11028.838392,9420.466126,3216.744531
1197.942362,15624.187722,6663.256528,1072.248177
1197.942663,18994.110564,-76.589155,612.713244
1197.942964,1684.961421,-10186.357681,7582.326394
1197.943264,-15394.420255,-18381.397320,11335.195014
1197.943565,-34388.530819,-20296.126207,15088.063633
1197.943866,-47868.222187,-18534.575631,16236.900966
1197.944173,-47715.043876,-10799.070925,13403.102212
1197.944469,-44038.764412,-1302.015643,13403.102212
1197.944766,-29027.289934,7735.504705,11028.838392
1197.945062,-13173.334746,14245.582923,8654.574571
1197.945359,-1455.193954,16926.203365,4365.581863
1197.945655,3752.868619,14245.582923,76.589155
1197.945952,-1148.837332,7275.969772,2067.907198
1197.946248,-14475.350389,-4518.760174,5820.775818
1197.946556,-29640.003178,-12177.675724,10569.303459
1197.946855,-38983.880149,-14551.939545,14245.582923
1197.947154,-45111.012589,-13862.637145,17002.792521
1197.947452,-44345.121034,-10799.070925,18228.219009
1197.947751,-33622.639264,-1148.837332,15700.776877
1197.948050,-17002.792521,9420.466126,10416.125148
1197.948349,-2221.085509,14934.885322,4442.171019
1197.948648,2374.263820,14934.885322,3063.566220
1197.948965,-1148.837332,10109.768526,4901.705952
1197.949263,-9726.822748,4748.527641,8960.931193
1197.949562,-21904.498473,306.356622,14705.117856
1197.949860,-30942.018822,-229.767466,18764.343097
1197.950158,-33239.693487,2910.387909,20679.071985
1197.950457,-25351.010470,10109.768526,19989.769585
1197.950755,-8731.163727,18917.521408,15394.420255
1197.951054,8348.217949,27648.685135,10722.481770
1197.951399,20372.715363,33775.817575,6969.613150
1197.951694,23359.692427,34848.065752,4212.403552
1197.951988,16083.722655,34235.352508,4748.527641
1197.952283,153.178311,30176.127267,8041.861327
1197.952577,-20602.482829,26116.902025,12101.086569
1197.952872,-36609.616329,22517.211717,15700.776877
1197.953166,-43272.872857,20372.715363,16390.079277
1197.953461,-39290.236771,19760.002119,15547.598566
1197.953761,-25657.367092,19223.878030,13709.458834
1197.954061,-6510.078217,19070.699719,10799.070925
1197.954361,16773.025054,19453.645497,7735.504705
1197.954661,34465.119975,18457.986475,4442.171019
1197.954961,43655.818635,17079.381676,2680.620442
1197.955261,40362.484948,17079.381676,3599.690308
1197.955561,27495.506824,16313.490121,4442.171019
1197.955861,7046.202306,16773.025054,8118.450483
1197.956152,-14628.528700,17692.094920,12254.264880
1197.956451,-32320.623621,18304.808164,15088.063633
1197.956749,-44651.477656,17845.273231,18381.397320
1197.957048,-47485.276410,18457.986475,19913.180430
1197.957347,-41664.500592,19606.823808,22057.676784
1197.957645,-25044.653848,24125.583982,19147.288875
1197.957944,153.178311,30329.305578,13632.869679
1197.958243,28261.398379,36533.027173,4748.527641
1197.958550,52157.214895,38754.112683,-919.069866
1197.958848,60428.843689,35001.244063,-2450.852976
1197.959146,52999.695606,25963.723714,-153.178311
1197.959444,27035.971891,14398.761234,5897.364973
