#time,accel_x,accel_y,accel_z
1193.429664,-229.767466,-689.302399,10339.535992
1193.429962,-229.767466,-689.302399,10262.946837
1193.430261,-76.589155,-382.945777,10569.303459
1193.430559,3293.333686,-382.945777,9956.590215
1193.430859,5054.884263,-229.767466,9956.590215
1193.431158,10109.768526,-76.589155,9573.644437
1193.431457,13249.923901,-536.124088,9573.644437
1193.431757,18764.343097,306.356622,9114.109504
1193.432056,20372.715363,612.713244,9420.466126
1193.432355,21827.909317,1378.604799,9343.876971
1193.432654,22593.800872,2297.674665,8960.931193
1193.432954,20066.358741,2757.209598,9420.466126
1193.433259,18151.629853,1991.318043,9497.055282
1193.433562,14398.761234,1225.426488,10339.535992
1193.433864,13709.458834,919.069866,10416.125148
1193.434167,16926.203365,612.713244,10722.481770
1193.434470,21291.785229,919.069866,10262.946837
1193.434772,27495.506824,1531.783110,9573.644437
1193.435075,27648.685135,-995.659021,8501.396260
1193.435378,21981.087628,-3293.333686,11182.016703
1193.435698,14398.761234,-5973.954129,16236.900966
1193.435995,9956.590215,-4671.938485,15241.241944
1193.436292,7735.504705,-842.480710,14245.582923
1193.436589,4518.760174,153.178311,13709.458834
1193.436886,2144.496354,459.534933,14475.350389
1193.437183,2986.977064,2144.496354,15930.544344
1193.437481,8960.931193,3829.457775,13479.691368
1193.437778,15930.544344,6203.721595,10339.535992
1193.438096,23206.514116,5897.364973,8118.450483
1193.438390,27955.041757,2910.387909,6510.078217
1193.438683,31631.321221,-1302.015643,5973.954129
1193.438977,34311.941664,-4825.116796,5973.954129
1193.439271,35231.011530,-8271.628794,6280.310751
1193.439564,36226.670551,-9497.055282,6280.310751
1193.439858,31631.321221,-8271.628794,7888.683016
1193.440151,26423.258647,-4365.581863,9267.287815
1193.440469,18764.343097,-1302.015643,11028.838392
1193.440767,10262.946837,1225.426488,13786.047990
1193.441066,-536.124088,153.178311,17155.970832
1193.441364,-8118.450483,1225.426488,17155.970832
1193.441663,-9343.876971,612.713244,14781.707011
1193.441961,-1455.193954,-2221.085509,9573.644437
1193.442260,4212.403552,-3140.155375,9497.055282
1193.442559,7888.683016,-2067.907198,10262.946837
1193.442859,13709.458834,-76.589155,10109.768526
1193.443155,20832.250296,3216.744531,9114.109504
1193.443452,27801.863446,5131.473418,5361.240885
1193.443749,23359.692427,5591.008351,8118.450483
1193.444046,17692.094920,919.069866,8424.807105
1193.444342,5361.240885,-3906.046930,12407.443191
1193.444639,-3523.101153,-9880.001059,14705.117856
1193.444936,-7812.093861,-7658.915550,14168.993767
1193.445266,-13173.334746,-7812.093861,12637.210657
1193.445563,-11718.140791,-6893.023995,12713.799813
1193.445860,-5437.830040,-3140.155375,11564.962480
1193.446157,-1148.837332,1531.783110,11794.729947
1193.446454,10569.303459,7122.791461,10722.481770
1193.446751,16083.722655,11488.373325,9114.109504
1193.447048,14705.117856,13479.691368,7582.326394
1193.447345,10109.768526,12254.264880,9573.644437
1193.447687,-76.589155,9114.109504,9497.055282
1193.447981,-7658.915550,4978.295107,11641.551636
1193.448275,-13939.226301,-2680.620442,13249.923901
1193.448569,-11411.784169,-7658.915550,9267.287815
1193.448863,-7352.558928,-10952.249236,11488.373325
1193.449157,306.356622,-16236.900966,10416.125148
1193.449451,9420.466126,-14551.939545,6663.256528
1193.449745,17232.559987,-11718.140791,8041.861327
1193.450062,20679.071985,-9650.233593,7352.558928
1193.450361,18457.986475,-4212.403552,6969.613150
1193.450660,12024.497413,3676.279464,7275.969772
1193.450959,4518.760174,6203.721595,8041.861327
1193.451259,-8271.628794,4825.116796,8654.574571
1193.451558,-19683.412963,4288.992708,13479.691368
1193.451857,-25810.545403,459.534933,14322.172078
1193.452156,-27265.739358,-842.480710,14015.815456
1193.452474,-21062.017762,-76.589155,15700.776877
1193.452770,-9573.644437,-3446.511997,13326.513057
1193.453067,2297.674665,-3599.690308,11947.908258
1193.453364,17232.559987,-2986.977064,10262.946837
1193.453660,24968.064693,-4365.581863,6050.543284
1193.453957,27495.506824,-2680.620442,4595.349330
1193.454254,18457.986475,-5667.597507,9956.590215
1193.454550,10262.946837,-8424.807105,9267.287815
1193.454840,1838.139732,-3599.690308,8577.985416
1193.455139,-5591.008351,-1302.015643,10875.660081
1193.455438,-11411.784169,1838.139732,9956.590215
1193.455738,-12866.978124,9650.233593,12024.497413
1193.456037,-9573.644437,13786.047990,13173.334746
1193.456336,-5744.186662,13020.156435,11794.729947
1193.456635,-3369.922842,11947.908258,15394.420255
1193.456934,306.356622,6203.721595,17002.792521
1193.457248,7429.148083,4135.814397,11488.373325
1193.457547,14245.582923,5131.473418,7965.272172
1193.457846,13709.458834,-1148.837332,8501.396260
1193.458144,9650.233593,-6433.489062,7046.202306
1193.458443,612.713244,-6893.023995,10416.125148
1193.458742,-7352.558928,-9037.520349,12943.567279
1193.459040,-13786.047990,-6586.667373,9497.055282
1193.459339,-16007.133499,153.178311,10569.303459
1193.459680,-14628.528700,1072.248177,12024.497413
1193.459978,-15241.241944,1225.426488,14705.117856
1193.460276,-7965.272172,8501.396260,17155.970832
1193.460575,7888.683016,11028.838392,11258.605858
1193.460873,18917.521408,11641.551636,5361.240885
1193.461171,21138.606918,7735.504705,7582.326394
1193.461470,19147.288875,-1302.015643,7735.504705
1193.461768,12024.497413,-6739.845684,5284.651729
1193.462084,5208.062574,-12177.675724,8501.396260
1193.462378,-8577.985416,-19989.769585,9880.001059
1193.462671,-16619.846743,-19300.467186,11182.016703
1193.462964,-18687.753942,-14015.815456,14628.528700
1193.463258,-15547.598566,-9726.822748,12866.978124
1193.463551,-11718.140791,-2067.907198,13786.047990
1193.463844,-5284.651729,6050.543284,15700.776877
1193.464138,4518.760174,9420.466126,10645.892614
1193.464465,12790.388968,13173.334746,7965.272172
1193.464762,17079.381676,9803.411904,7735.504705
1193.465058,17538.916609,3216.744531,5284.651729
1193.465354,13403.102212,-1608.372265,5208.062574
1193.465650,8195.039638,-6739.845684,6127.132440
1193.465946,-2757.209598,-11564.962480,6739.845684
1193.466243,-12101.086569,-11871.319102,10262.946837
1193.466539,-22517.211717,-16390.079277,17002.792521
1193.466827,-23436.281583,-13862.637145,15930.544344
1193.467128,-18228.219009,-5667.597507,15930.544344
1193.467429,-6969.613150,459.534933,12484.032346
1193.467729,5973.954129,6663.256528,8118.450483
1193.468030,15317.831100,12713.799813,7429.148083
1193.468331,22134.265939,12407.443191,5284.651729
1193.468632,19913.180430,9114.109504,3676.279464
1193.468933,9497.055282,2604.031287,8960.931193
1193.469242,-842.480710,-5820.775818,11028.838392
1193.469541,-7658.915550,-5054.884263,9573.644437
1193.469841,-11718.140791,-3599.690308,12560.621502
1193.470140,-13479.691368,-6127.132440,13709.458834
1193.470439,-14322.172078,-4212.403552,14168.993767
1193.470739,-9497.055282,1838.139732,17462.327454
1193.471038,-3829.457775,4135.814397,14551.939545
1193.471337,2144.496354,6356.899906,12101.086569
1193.471678,9650.233593,9267.287815,10645.892614
1193.471973,17079.381676,7735.504705,5437.830040
1193.472268,14245.582923,4825.116796,5437.830040
1193.472563,7429.148083,-842.480710,10492.714303
1193.472858,3293.333686,-3906.046930,9497.055282
1193.473153,153.178311,-76.589155,7965.272172
1193.473447,-4595.349330,-1455.193954,11641.551636
1193.473742,-11258.605858,-3293.333686,13862.637145
1193.474039,-13786.047990,-0.000000,16236.900966
1193.474337,-7658.915550,1531.783110,14245.582923
1193.474635,-3676.279464,-2221.085509,10109.768526
1193.474933,765.891555,-1761.550576,10262.946837
1193.475231,5514.419196,-4518.760174,9573.644437
1193.475529,10569.303459,-4365.581863,6127.132440
1193.475828,13096.745590,-2527.442131,6356.899906
1193.476126,9114.109504,-3446.511997,6663.256528
1193.476440,3599.690308,-3906.046930,5591.008351
1193.476739,-4442.171019,-1148.837332,9267.287815
1193.477037,-10492.714303,-3140.155375,12407.443191
1193.477336,-14934.885322,-4671.938485,12560.621502
1193.477635,-13479.691368,-2067.907198,15930.544344
1193.477933,-9190.698660,-4518.760174,14934.885322
1193.478232,153.178311,-1302.015643,9880.001059
1193.478531,6893.023995,3676.279464,9497.055282
1193.478819,11641.551636,-1148.837332,6280.310751
1193.479119,7122.791461,-7046.202306,8960.931193
1193.479419,4365.581863,-7812.093861,12407.443191
1193.479719,3906.046930,-6127.132440,7505.737239
1193.480019,1225.426488,-1302.015643,5208.062574
1193.480319,612.713244,1684.961421,10109.768526
1193.480619,-2604.031287,1838.139732,11871.319102
1193.480919,-4748.527641,6663.256528,13249.923901
1193.481218,-5284.651729,6510.078217,15853.955188
1193.481519,-4442.171019,3676.279464,13556.280523
1193.481819,-3216.744531,2910.387909,13709.458834
1193.482119,3293.333686,3369.922842,12713.799813
1193.482419,9267.287815,1531.783110,7505.737239
1193.482719,11182.016703,3063.566220,7275.969772
1193.483019,8348.217949,-0.000000,8501.396260
1193.483319,2374.263820,-1914.728887,8501.396260
1193.483626,-3523.101153,765.891555,10645.892614
1193.483925,-6969.613150,612.713244,11641.551636
1193.484224,-9037.520349,306.356622,9803.411904
1193.484524,-11411.784169,1684.961421,14092.404612
1193.484823,-10799.070925,-229.767466,16160.311810
1193.485122,-5437.830040,1531.783110,12407.443191
1193.485421,2527.442131,5437.830040,9343.876971
1193.485721,7046.202306,1991.318043,7275.969772
1193.486041,9420.466126,-2221.085509,5514.419196
1193.486338,8195.039638,-3752.868619,8731.163727
1193.486635,6127.132440,-8577.985416,7582.326394
1193.486932,3752.868619,-9880.001059,6127.132440
1193.487229,-1302.015643,-9343.876971,10109.768526
1193.487526,-5284.651729,-11258.605858,11564.962480
1193.487823,-10186.357681,-8118.450483,13403.102212
1193.488120,-12560.621502,-3599.690308,17155.970832
1193.488439,-8731.163727,-1455.193954,13862.637145
1193.488737,-2604.031287,3523.101153,11335.195014
1193.489035,2374.263820,6203.721595,10569.303459
1193.489334,8960.931193,3676.279464,7275.969772
1193.489632,11028.838392,3063.566220,6127.132440
1193.489930,10569.303459,-689.302399,10109.768526
1193.490228,7582.326394,-6280.310751,9114.109504
1193.490526,4212.403552,-3599.690308,8424.807105
1193.490839,765.891555,-3752.868619,10875.660081
1193.491136,-6356.899906,-6586.667373,12101.086569
1193.491432,-10799.070925,-5054.884263,15700.776877
1193.491728,-10186.357681,-1761.550576,16160.311810
1193.492024,-4135.814397,1225.426488,10339.535992
1193.492320,-2221.085509,5897.364973,10722.481770
1193.492616,2527.442131,6663.256528,10722.481770
1193.492912,8195.039638,6510.078217,6127.132440
1193.493211,9420.466126,7888.683016,6433.489062
1193.493512,4901.705952,1378.604799,10262.946837
1193.493813,919.069866,-229.767466,7735.504705
1193.494113,-1914.728887,-229.767466,9497.055282
1193.494414,-3523.101153,-2221.085509,10416.125148
1193.494715,-7505.737239,-4059.225241,10339.535992
1193.495016,-9880.001059,-2067.907198,14781.707011
1193.495316,-6510.078217,-2680.620442,14015.815456
1193.495623,-3369.922842,-382.945777,11488.373325
1193.495920,1991.318043,2910.387909,11028.838392
1193.496217,7122.791461,1838.139732,8041.861327
1193.496514,9420.466126,612.713244,4671.938485
1193.496811,6127.132440,306.356622,9114.109504
1193.497108,1378.604799,-4365.581863,10875.660081
1193.497405,-1148.837332,-1608.372265,8501.396260
1193.497702,-229.767466,-0.000000,11182.016703
1193.498016,-3216.744531,-1914.728887,10569.303459
1193.498318,-6356.899906,-1302.015643,12713.799813
1193.498621,-4825.116796,-536.124088,16083.722655
1193.498924,-76.589155,-1914.728887,12713.799813
1193.499227,2833.798753,-1608.372265,11335.195014
1193.499529,5973.954129,-1302.015643,10875.660081
1193.499832,8654.574571,-2527.442131,8041.861327
1193.500135,7429.148083,-3446.511997,6816.434839
1193.500453,3140.155375,-3446.511997,10875.660081
1193.500749,-0.000000,-4901.705952,9037.520349
1193.501045,-3216.744531,-689.302399,9650.233593
1193.501341,-3369.922842,-0.000000,11335.195014
1193.501638,-4825.116796,306.356622,9650.233593
1193.501934,-6356.899906,1991.318043,13096.745590
1193.502230,-5437.830040,-536.124088,14398.761234
1193.502526,-3063.566220,153.178311,10952.249236
1193.502843,2833.798753,3982.636086,9267.287815
1193.503138,5973.954129,2144.496354,6586.667373
1193.503432,4518.760174,-3446.511997,5514.419196
1193.503726,-382.945777,-7658.915550,11641.551636
1193.504021,-995.659021,-10033.179370,10952.249236
1193.504315,-229.767466,-5514.419196,6816.434839
1193.504610,-2450.852976,-2680.620442,10416.125148
1193.504904,-3216.744531,-1761.550576,10875.660081
1193.505204,-2604.031287,2450.852976,10109.768526
1193.505504,-1761.550576,5897.364973,13020.156435
1193.505804,-2221.085509,3063.566220,12407.443191
1193.506104,-1608.372265,2450.852976,11182.016703
1193.506404,919.069866,2604.031287,12790.388968
1193.506704,5667.597507,919.069866,8731.163727
1193.507004,5667.597507,-76.589155,6969.613150
1193.507304,4365.581863,-2374.263820,12177.675724
1193.507595,2986.977064,-3446.511997,11182.016703
1193.507898,2297.674665,459.534933,8960.931193
1193.508200,459.534933,153.178311,10722.481770
1193.508503,-1455.193954,-2067.907198,11335.195014
1193.508805,-3369.922842,1684.961421,12177.675724
1193.509108,-2910.387909,1838.139732,14015.815456
1193.509411,-3063.566220,1838.139732,12560.621502
1193.509713,-995.659021,4595.349330,11335.195014
1193.510021,2374.263820,4135.814397,10109.768526
1193.510321,3752.868619,1225.426488,7429.148083
1193.510621,1072.248177,306.356622,9573.644437
1193.510921,-1455.193954,-2374.263820,10186.357681
1193.511221,-2067.907198,-3293.333686,6663.256528
1193.511520,-2757.209598,-2986.977064,9803.411904
1193.511820,-3063.566220,-4901.705952,11105.427547
1193.512120,-4748.527641,-5973.954129,10109.768526
1193.512403,-3829.457775,-3140.155375,13862.637145
1193.512706,-2221.085509,-4365.581863,12560.621502
1193.513009,459.534933,-2527.442131,9726.822748
1193.513312,5208.062574,-229.767466,9343.876971
1193.513615,6280.310751,-76.589155,6816.434839
1193.513918,5208.062574,-1761.550576,6816.434839
1193.514220,1225.426488,-2221.085509,10109.768526
1193.514523,-536.124088,-3599.690308,10033.179370
1193.514805,-2450.852976,-2221.085509,9037.520349
1193.515107,-3829.457775,-2067.907198,10799.070925
1193.515409,-4442.171019,-2221.085509,11182.016703
1193.515711,-7122.791461,-3140.155375,14551.939545
1193.516013,-6356.899906,-3293.333686,17002.792521
1193.516315,919.069866,306.356622,12177.675724
1193.516616,6739.845684,3063.566220,8960.931193
1193.516918,10262.946837,4288.992708,8960.931193
1193.517208,10569.303459,2757.209598,7735.504705
1193.517505,10569.303459,5437.830040,5667.597507
1193.517802,3599.690308,-842.480710,10109.768526
1193.518098,-4825.116796,-4518.760174,11182.016703
1193.518395,-6816.434839,-1302.015643,12484.032346
1193.518692,-10186.357681,-995.659021,13173.334746
1193.518988,-9573.644437,-76.589155,12407.443191
1193.519285,-8731.163727,3063.566220,14398.761234
1193.519622,-2374.263820,4748.527641,14168.993767
1193.519916,2297.674665,6510.078217,9573.644437
1193.520211,5820.775818,5591.008351,8731.163727
1193.520506,10262.946837,1225.426488,6893.023995
1193.520800,8195.039638,-3293.333686,4825.116796
1193.521095,3599.690308,-4825.116796,9573.644437
1193.521389,-3063.566220,-9726.822748,10262.946837
1193.521684,-8424.807105,-8577.985416,9420.466126
1193.521991,-6969.613150,-5820.775818,12713.799813
1193.522290,-7122.791461,-2986.977064,11564.962480
1193.522590,-6050.543284,-76.589155,11335.195014
1193.522890,-4825.116796,1531.783110,13786.047990
1193.523189,-0.000000,3063.566220,12254.264880
1193.523489,6280.310751,4978.295107,7888.683016
1193.523789,8654.574571,2144.496354,8195.039638
1193.524088,8348.217949,-2527.442131,7735.504705
1193.524385,7582.326394,-4059.225241,7812.093861
1193.524684,3599.690308,-5208.062574,9956.590215
1193.524984,-842.480710,-6586.667373,9114.109504
1193.525283,-4748.527641,-5820.775818,10645.892614
1193.525583,-5591.008351,-2374.263820,13020.156435
1193.525882,-4595.349330,-1914.728887,11182.016703
1193.526182,-5437.830040,1531.783110,13862.637145
1193.526482,-2221.085509,2757.209598,14934.885322
1193.526809,1991.318043,3829.457775,10339.535992
1193.527108,7888.683016,7122.791461,9267.287815
1193.527407,8960.931193,4595.349330,9114.109504
1193.527705,7735.504705,612.713244,6433.489062
1193.528004,2144.496354,-229.767466,9803.411904
1193.528303,-3369.922842,-4671.938485,10109.768526
1193.528602,-6969.613150,-4671.938485,8348.217949
1193.528901,-10492.714303,-2221.085509,12101.086569
1193.529212,-10492.714303,-2833.798753,12177.675724
1193.529510,-10339.535992,-1455.193954,13709.458834
1193.529807,-6356.899906,2297.674665,15241.241944
1193.530105,-1455.193954,1531.783110,13096.745590
1193.530402,3599.690308,3676.279464,10109.768526
1193.530700,8960.931193,4978.295107,8884.342038
1193.530997,11488.373325,3676.279464,6816.434839
1193.531295,8960.931193,459.534933,6356.899906
1193.531604,4671.938485,-1455.193954,9573.644437
1193.531900,-1455.193954,-5208.062574,9114.109504
1193.532196,-5131.473418,-2833.798753,8960.931193
1193.532492,-8731.163727,-4059.225241,12713.799813
1193.532788,-6969.613150,-3446.511997,11947.908258
1193.533084,-4825.116796,-76.589155,12407.443191
1193.533380,-3829.457775,306.356622,14475.350389
1193.533676,765.891555,-76.589155,12943.567279
1193.533983,4671.938485,3216.744531,11641.551636
1193.534282,10569.303459,2910.387909,8654.574571
1193.534581,11794.729947,-382.945777,5820.775818
1193.534880,8654.574571,-995.659021,7199.380617
1193.535179,3752.868619,-4059.225241,8501.396260
1193.535478,-2604.031287,-6893.023995,8271.628794
1193.535777,-9190.698660,-3906.046930,11028.838392
1193.536075,-11258.605858,-4901.705952,13020.156435
1193.536392,-11947.908258,-4518.760174,12407.443191
1193.536694,-9037.520349,1378.604799,16083.722655
1193.536995,-3063.566220,2604.031287,14245.582923
1193.537297,4059.225241,4442.171019,9497.055282
1193.537599,8807.752882,6816.434839,9267.287815
1193.537901,12637.210657,1838.139732,6127.132440
1193.538202,8348.217949,-2680.620442,5820.775818
1193.538504,1991.318043,-5820.775818,9880.001059
1193.538819,-1608.372265,-9497.055282,9956.590215
1193.539115,-5897.364973,-6893.023995,9267.287815
1193.539411,-8577.985416,-3906.046930,11718.140791
1193.539707,-8731.163727,-3752.868619,11564.962480
1193.540003,-9190.698660,-229.767466,13249.923901
1193.540300,-7352.558928,1072.248177,15853.955188
1193.540596,-3369.922842,1531.783110,14628.528700
1193.540892,3140.155375,6050.543284,10875.660081
1193.541180,11182.016703,7735.504705,7812.093861
1193.541480,13403.102212,3676.279464,6816.434839
1193.541780,12637.210657,1991.318043,6127.132440
1193.542080,8654.574571,-0.000000,8271.628794
1193.542380,3140.155375,-4059.225241,8424.807105
1193.542680,-4748.527641,-3752.868619,9114.109504
1193.542980,-10339.535992,-5667.597507,12713.799813
1193.543280,-14092.404612,-5667.597507,14934.885322
1193.543579,-12866.978124,-2067.907198,17002.792521
1193.543879,-6356.899906,1838.139732,14781.707011
1193.544178,1225.426488,4748.527641,10339.535992
1193.544477,6893.023995,10569.303459,11641.551636
1193.544777,13403.102212,7888.683016,8501.396260
1193.545076,17232.559987,6050.543284,2527.442131
1193.545375,12943.567279,3676.279464,3982.636086
1193.545674,1991.318043,-4825.116796,9267.287815
1193.545981,-8271.628794,-9497.055282,9420.466126
1193.546284,-12713.799813,-7812.093861,12101.086569
1193.546586,-16007.133499,-10186.357681,13862.637145
1193.546889,-18075.040698,-9343.876971,14015.815456
1193.547192,-11718.140791,-3446.511997,16773.025054
1193.547494,-3369.922842,-382.945777,13862.637145
1193.547797,5667.597507,4825.116796,9956.590215
1193.548099,12790.388968,5131.473418,9420.466126
1193.548420,16926.203365,3523.101153,6510.078217
1193.548717,15471.009411,306.356622,4288.992708
1193.549014,10416.125148,-2374.263820,7658.915550
1193.549311,919.069866,-6739.845684,8501.396260
1193.549608,-6356.899906,-6127.132440,9267.287815
1193.549905,-13632.869679,-5820.775818,14322.172078
1193.550202,-15547.598566,-6280.310751,13403.102212
1193.550499,-15394.420255,-2527.442131,15011.474478
1193.550817,-10339.535992,153.178311,16313.490121
1193.551111,-0.000000,2757.209598,12790.388968
1193.551405,10416.125148,6663.256528,9880.001059
1193.551698,18917.521408,6969.613150,7582.326394
1193.551992,23512.870738,2910.387909,4288.992708
1193.552285,21138.606918,2297.674665,3829.457775
1193.552579,9803.411904,-3140.155375,7199.380617
1193.552873,-3369.922842,-6893.023995,9267.287815
1193.553190,-13020.156435,-5361.240885,11028.838392
1193.553488,-18994.110564,-4365.581863,13020.156435
1193.553787,-22517.211717,-4059.225241,14475.350389
1193.554086,-21368.374384,1531.783110,18228.219009
1193.554384,-11411.784169,4978.295107,14781.707011
1193.554683,-2221.085509,6510.078217,12101.086569
1193.554981,8501.396260,9650.233593,9497.055282
1193.555280,17998.451542,5744.186662,6280.310751
1193.555580,20525.893674,3063.566220,3829.457775
1193.555877,15317.831100,-1914.728887,6969.613150
1193.556174,6586.667373,-9037.520349,8807.752882
1193.556472,1991.318043,-7658.915550,6969.613150
1193.556769,-4595.349330,-6127.132440,10262.946837
1193.557067,-10339.535992,-7352.558928,11335.195014
1193.557364,-15547.598566,-5054.884263,13249.923901
1193.557662,-13786.047990,-2527.442131,17079.381676
1193.557969,-10799.070925,-536.124088,18151.629853
1193.558270,-1914.728887,3676.279464,14015.815456
1193.558572,8348.217949,9573.644437,9880.001059
1193.558874,13556.280523,6816.434839,6510.078217
1193.559176,14398.761234,5897.364973,5361.240885
1193.559477,10416.125148,1225.426488,8195.039638
1193.559779,7122.791461,-3140.155375,6663.256528
1193.560081,-229.767466,-5973.954129,8654.574571
1193.560361,-6663.256528,-8424.807105,13862.637145
1193.560666,-10799.070925,-9343.876971,12560.621502
1193.560971,-13632.869679,-6586.667373,13862.637145
1193.561276,-9343.876971,-2067.907198,15394.420255
1193.561581,-6356.899906,-2067.907198,12866.978124
1193.561887,-842.480710,2910.387909,12713.799813
1193.562192,7582.326394,6510.078217,10109.768526
1193.562497,16773.025054,5897.364973,2833.798753
1193.562770,15471.009411,4288.992708,4748.527641
1193.563072,8960.931193,-689.302399,8348.217949
1193.563375,4059.225241,-1455.193954,6280.310751
1193.563677,-3982.636086,-76.589155,9037.520349
1193.563980,-9190.698660,-4518.760174,9573.644437
1193.564282,-16849.614210,-8271.628794,12101.086569
1193.564585,-17768.684076,-5667.597507,17462.327454
1193.564887,-12407.443191,-4365.581863,15624.187722
1193.565159,-4595.349330,-2527.442131,11488.373325
1193.565460,4671.938485,612.713244,12101.086569
1193.565761,9803.411904,306.356622,10109.768526
1193.566062,12790.388968,2297.674665,7735.504705
1193.566363,12330.854035,2757.209598,7352.558928
1193.566664,7888.683016,1072.248177,5361.240885
1193.566965,153.178311,-76.589155,8348.217949
1193.567266,-4595.349330,612.713244,10875.660081
1193.567566,-4595.349330,919.069866,10416.125148
1193.567865,-7352.558928,-229.767466,12407.443191
1193.568164,-9880.001059,-2833.798753,16390.079277
1193.568463,-8731.163727,-2374.263820,16236.900966
1193.568763,-1302.015643,1991.318043,13096.745590
1193.569062,3752.868619,1991.318043,11258.605858
1193.569361,11028.838392,-76.589155,7735.504705
1193.569660,14015.815456,2604.031287,6663.256528
1193.569974,11871.319102,306.356622,7352.558928
1193.570273,7888.683016,-1302.015643,6280.310751
1193.570571,1378.604799,919.069866,9114.109504
1193.570870,-6356.899906,-1761.550576,10033.179370
1193.571169,-14475.350389,-3752.868619,11028.838392
1193.571467,-19989.769585,-1608.372265,15930.544344
1193.571766,-17002.792521,-1148.837332,15317.831100
1193.572065,-10492.714303,-229.767466,12790.388968
1193.572372,-536.124088,2910.387909,11947.908258
1193.572669,7735.504705,2144.496354,9420.466126
1193.572966,10722.481770,919.069866,6969.613150
1193.573263,11182.016703,459.534933,6356.899906
1193.573561,9420.466126,-5361.240885,6586.667373
1193.573858,3906.046930,-6739.845684,6816.434839
1193.574155,-995.659021,-6127.132440,10033.179370
1193.574452,-4135.814397,-7046.202306,9803.411904
1193.574782,-6663.256528,-5514.419196,11028.838392
1193.575078,-6510.078217,-3906.046930,14858.296167
1193.575375,-7658.915550,-2374.263820,15394.420255
1193.575671,-4135.814397,1838.139732,11182.016703
1193.575967,-2067.907198,6050.543284,12866.978124
1193.576264,4671.938485,3216.744531,9803.411904
1193.576560,8960.931193,5897.364973,8501.396260
1193.576856,11871.319102,4135.814397,8041.861327
1193.577151,10569.303459,765.891555,5437.830040
1193.577452,5820.775818,-229.767466,8501.396260
1193.577753,1072.248177,-2527.442131,9573.644437
1193.578054,-5744.186662,-7965.272172,11105.427547
1193.578355,-12407.443191,-6280.310751,14245.582923
1193.578656,-12713.799813,-5361.240885,14628.528700
1193.578956,-8884.342038,-4059.225241,11794.729947
1193.579257,-3676.279464,765.891555,12560.621502
1193.579569,2144.496354,1838.139732,11488.373325
1193.579866,6893.023995,2450.852976,7965.272172
1193.580164,8041.861327,4978.295107,7812.093861
1193.580461,8348.217949,3063.566220,7812.093861
1193.580759,4059.225241,2297.674665,6280.310751
1193.581056,765.891555,3216.744531,8501.396260
1193.581354,-4288.992708,-842.480710,9573.644437
1193.581651,-7122.791461,-4518.760174,9956.590215
1193.581960,-10033.179370,-3293.333686,14322.172078
1193.582259,-8424.807105,-5667.597507,14015.815456
1193.582557,-5131.473418,-5361.240885,12101.086569
1193.582856,-536.124088,-2221.085509,12407.443191
1193.583154,6280.310751,-1148.837332,9573.644437
1193.583453,8348.217949,612.713244,8654.574571
1193.583751,8348.217949,3063.566220,9573.644437
1193.584050,7735.504705,2450.852976,7582.326394
1193.584357,4059.225241,3063.566220,6893.023995
1193.584657,153.178311,3216.744531,10492.714303
1193.584956,-2910.387909,-382.945777,10262.946837
1193.585256,-7199.380617,765.891555,12790.388968
1193.585556,-7658.915550,-382.945777,15317.831100
1193.585855,-6203.721595,-995.659021,14475.350389
1193.586155,-3369.922842,-0.000000,13173.334746
1193.586455,1378.604799,306.356622,11335.195014
1193.586751,6739.845684,-1455.193954,9114.109504
1193.587054,7735.504705,-689.302399,8501.396260
1193.587357,9497.055282,-2067.907198,8501.396260
1193.587660,5973.954129,-2986.977064,7429.148083
1193.587963,2986.977064,-229.767466,9037.520349
1193.588266,-995.659021,-1914.728887,9573.644437
1193.588568,-5744.186662,-2221.085509,10186.357681
1193.588871,-8884.342038,-229.767466,12866.978124
1193.589166,-10492.714303,-1455.193954,13862.637145
1193.589463,-9037.520349,-3293.333686,12407.443191
1193.589760,-3523.101153,-842.480710,11794.729947
1193.590057,459.534933,-1761.550576,11028.838392
1193.590353,4901.705952,-2680.620442,6816.434839
1193.590650,8348.217949,-0.000000,7735.504705
1193.590947,8960.931193,-1302.015643,7965.272172
1193.591244,5208.062574,-3140.155375,6969.613150
1193.591556,-2450.852976,-5820.775818,12560.621502
1193.591855,-2910.387909,-5514.419196,11258.605858
1193.592155,-4595.349330,-4518.760174,8960.931193
1193.592455,-6050.543284,-1302.015643,14168.993767
1193.592755,-6510.078217,-3752.868619,12713.799813
1193.593055,-3063.566220,1531.783110,11794.729947
1193.593355,1072.248177,3523.101153,12790.388968
1193.593655,3752.868619,612.713244,10416.125148
1193.593955,5361.240885,1072.248177,9190.698660
1193.594254,7275.969772,3982.636086,9803.411904
1193.594553,7046.202306,2757.209598,7275.969772
1193.594852,6127.132440,4595.349330,7812.093861
1193.595152,2986.977064,3216.744531,10952.249236
1193.595451,-536.124088,1072.248177,11641.551636
1193.595750,-3982.636086,1684.961421,13709.458834
1193.596050,-4595.349330,1991.318043,12484.032346
1193.596362,-5897.364973,-76.589155,10262.946837
1193.596663,-6203.721595,-995.659021,12407.443191
1193.596963,-6510.078217,-3446.511997,13709.458834
1193.597264,-1302.015643,-3140.155375,9114.109504
1193.597565,3599.690308,919.069866,9420.466126
1193.597866,5667.597507,-536.124088,9037.520349
1193.598166,7046.202306,765.891555,6969.613150
1193.598467,4901.705952,4288.992708,8884.342038
1193.598783,3140.155375,1531.783110,8960.931193
1193.599077,-995.659021,-1148.837332,9650.233593
1193.599371,-6050.543284,-1455.193954,12713.799813
1193.599664,-7122.791461,-5054.884263,12943.567279
1193.599958,-7122.791461,-5973.954129,12407.443191
1193.600252,-2757.209598,-5054.884263,12407.443191
1193.600545,1684.961421,-5208.062574,9880.001059
1193.600839,2986.977064,-2833.798753,8654.574571
1193.601158,3906.046930,-995.659021,9650.233593
1193.601456,3293.333686,-2221.085509,8807.752882
1193.601754,2833.798753,919.069866,8271.628794
1193.602052,1531.783110,612.713244,10722.481770
1193.602351,1072.248177,-1455.193954,10416.125148
1193.602649,-842.480710,612.713244,11182.016703
1193.602947,306.356622,765.891555,12101.086569
1193.603245,1684.961421,-229.767466,11258.605858
1193.603558,-4748.527641,-4059.225241,14015.815456
1193.603857,-5284.651729,-6433.489062,14934.885322
1193.604155,-2067.907198,-5514.419196,10109.768526
1193.604454,2144.496354,-842.480710,7735.504705
1193.604752,4901.705952,-995.659021,8195.039638
1193.605051,3293.333686,306.356622,6203.721595
1193.605349,2144.496354,5591.008351,9650.233593
1193.605648,612.713244,-0.000000,11641.551636
1193.605947,-2604.031287,-1148.837332,10416.125148
1193.606247,-3216.744531,153.178311,12254.264880
1193.606547,-3369.922842,-382.945777,12407.443191
1193.606847,-1761.550576,-4059.225241,10109.768526
1193.607147,919.069866,-995.659021,11028.838392
1193.607447,3752.868619,-2680.620442,10186.357681
1193.607747,459.534933,-2986.977064,10262.946837
1193.608047,1838.139732,-689.302399,9803.411904
1193.608354,4212.403552,1378.604799,6127.132440
1193.608651,-382.945777,612.713244,7888.683016
1193.608948,-3369.922842,459.534933,12713.799813
1193.609245,-3063.566220,-76.589155,12713.799813
1193.609542,-1608.372265,3676.279464,11182.016703
1193.609839,-76.589155,4288.992708,13096.745590
1193.610135,-382.945777,1378.604799,12330.854035
1193.610432,1072.248177,2910.387909,10109.768526
1193.610746,2527.442131,1378.604799,11028.838392
1193.611047,2374.263820,-2067.907198,9956.590215
1193.611347,306.356622,-995.659021,9497.055282
1193.611647,765.891555,-2833.798753,9803.411904
1193.611948,-995.659021,-4212.403552,9420.466126
1193.612248,-842.480710,-1761.550576,10109.768526
1193.612548,-2221.085509,-2527.442131,12254.264880
1193.612849,-1761.550576,-2680.620442,12560.621502
1193.613150,459.534933,3369.922842,12101.086569
1193.613450,3140.155375,4825.116796,10722.481770
1193.613749,2833.798753,4135.814397,8501.396260
1193.614048,2680.620442,2297.674665,10262.946837
1193.614347,-1608.372265,-4212.403552,12713.799813
1193.614647,-995.659021,-6433.489062,9956.590215
1193.614946,-229.767466,-3752.868619,9114.109504
1193.615245,-995.659021,-5820.775818,8960.931193
1193.615563,-2221.085509,-5514.419196,8731.163727
1193.615860,-3063.566220,-1608.372265,10186.357681
1193.616157,-3523.101153,-2221.085509,11794.729947
1193.616454,-3369.922842,-2986.977064,10262.946837
1193.616752,-1761.550576,2450.852976,11718.140791
1193.617049,1991.318043,-995.659021,11641.551636
1193.617346,765.891555,-2221.085509,10492.714303
1193.617644,1072.248177,-3293.333686,12713.799813
1193.617943,3599.690308,-3599.690308,10262.946837
1193.618241,3293.333686,-995.659021,7735.504705
1193.618538,1072.248177,459.534933,8807.752882
1193.618836,-2067.907198,153.178311,8577.985416
1193.619133,-2450.852976,2910.387909,7812.093861
1193.619430,-4288.992708,2450.852976,11718.140791
1193.619728,-5591.008351,-2067.907198,12637.210657
1193.620025,-4135.814397,459.534933,13632.869679
1193.620356,-229.767466,2604.031287,12101.086569
1193.620652,5054.884263,1531.783110,9114.109504
1193.620949,6280.310751,-382.945777,10339.535992
1193.621246,6739.845684,-1455.193954,11947.908258
1193.621543,7582.326394,-2374.263820,7735.504705
1193.621840,5973.954129,459.534933,7275.969772
1193.622137,1991.318043,-536.124088,8118.450483
1193.622434,-3829.457775,-2986.977064,9037.520349
1193.622742,-6663.256528,1378.604799,10262.946837
1193.623042,-6969.613150,612.713244,10569.303459
1193.623342,-9037.520349,-689.302399,12407.443191
1193.623642,-8118.450483,1838.139732,14781.707011
1193.623941,-3829.457775,2297.674665,12943.567279
1193.624241,2986.977064,1225.426488,10262.946837
1193.624541,5208.062574,306.356622,11182.016703
1193.624841,8501.396260,-2221.085509,8807.752882
1193.625124,7888.683016,-2680.620442,6816.434839
1193.625427,5820.775818,-2986.977064,7812.093861
1193.625730,919.069866,-6586.667373,8807.752882
1193.626033,-4825.116796,-5973.954129,9420.466126
1193.626336,-10186.357681,-4518.760174,12713.799813
1193.626639,-11947.908258,-3906.046930,13249.923901
1193.626941,-10645.892614,-229.767466,15088.063633
1193.627244,-6356.899906,2144.496354,14781.707011
1193.627526,153.178311,2910.387909,12330.854035
1193.627828,6739.845684,4978.295107,10262.946837
1193.628130,12484.032346,3982.636086,8884.342038
1193.628432,14398.761234,459.534933,7429.148083
1193.628734,10262.946837,-1302.015643,7658.915550
1193.629036,6893.023995,-4518.760174,7122.791461
1193.629338,1072.248177,-5361.240885,6816.434839
1193.629640,-6050.543284,-6739.845684,9420.466126
1193.629930,-15088.063633,-11564.962480,14322.172078
1193.630229,-16466.668432,-9497.055282,15930.544344
1193.630528,-12713.799813,-1761.550576,13556.280523
1193.630827,-3829.457775,3523.101153,11028.838392
1193.631126,2986.977064,5897.364973,10416.125148
1193.631425,5973.954129,8501.396260,11028.838392
1193.631725,11871.319102,7735.504705,8501.396260
1193.632024,11335.195014,3369.922842,6280.310751
1193.632333,8348.217949,-842.480710,6816.434839
1193.632631,2986.977064,-5667.597507,7888.683016
1193.632930,-2757.209598,-6280.310751,7888.683016
1193.633228,-6050.543284,-6433.489062,9803.411904
1193.633527,-9726.822748,-6280.310751,13096.745590
1193.633825,-10033.179370,-2986.977064,14475.350389
1193.634124,-7965.272172,1838.139732,14934.885322
1193.634422,-4135.814397,4442.171019,14475.350389
1193.634729,1225.426488,6663.256528,11947.908258
1193.635029,7429.148083,8348.217949,9803.411904
1193.635329,10109.768526,4825.116796,8348.217949
1193.635629,8654.574571,2604.031287,8731.163727
1193.635928,6586.667373,-229.767466,9420.466126
1193.636228,3906.046930,-2374.263820,7275.969772
1193.636528,-382.945777,-3293.333686,7888.683016
1193.636828,-8118.450483,-5514.419196,12254.264880
1193.637124,-12560.621502,-5361.240885,14092.404612
1193.637425,-13479.691368,-2067.907198,14628.528700
1193.637725,-9037.520349,-1455.193954,13249.923901
1193.638025,-2450.852976,-0.000000,12254.264880
1193.638326,2833.798753,765.891555,11335.195014
1193.638626,9956.590215,459.534933,9650.233593
1193.638926,16619.846743,-382.945777,6510.078217
1193.639227,16926.203365,-536.124088,6127.132440
1193.639521,12943.567279,-3752.868619,4825.116796
1193.639822,3140.155375,-5054.884263,5514.419196
1193.640122,-6050.543284,-4901.705952,9114.109504
1193.640422,-13173.334746,-8424.807105,10875.660081
1193.640722,-17615.505765,-8118.450483,13939.226301
1193.641022,-19683.412963,-5820.775818,18075.040698
1193.641322,-13479.691368,-3906.046930,15088.063633
1193.641622,-2374.263820,1684.961421,11794.729947
1193.641910,7429.148083,4978.295107,10645.892614
1193.642211,10875.660081,1378.604799,9956.590215
1193.642512,12177.675724,3676.279464,8195.039638
1193.642813,14015.815456,3829.457775,5897.364973
1193.643114,9650.233593,-1302.015643,5667.597507
1193.643415,2144.496354,-2067.907198,7429.148083
1193.643715,-4442.171019,-995.659021,10645.892614
1193.644016,-8424.807105,-1455.193954,11488.373325
1193.644325,-13479.691368,-2067.907198,15241.241944
1193.644625,-13326.513057,-1148.837332,16926.203365
1193.644924,-9497.055282,1072.248177,13862.637145
1193.645223,-2450.852976,4825.116796,12790.388968
1193.645523,4212.403552,4748.527641,11411.784169
1193.645822,11488.373325,3829.457775,8195.039638
1193.646122,13403.102212,3676.279464,8041.861327
1193.646421,13556.280523,919.069866,5054.884263
1193.646728,9420.466126,-1302.015643,5973.954129
1193.647026,1838.139732,-1761.550576,8654.574571
1193.647325,-6050.543284,-4518.760174,9803.411904
1193.647623,-14781.707011,-6586.667373,13479.691368
1193.647921,-16160.311810,-4059.225241,15930.544344
1193.648219,-12560.621502,-2680.620442,15624.187722
1193.648517,-4825.116796,1225.426488,11335.195014
1193.648815,1378.604799,3829.457775,11947.908258
1193.649131,8654.574571,3369.922842,8807.752882
1193.649430,13709.458834,3216.744531,7505.737239
1193.649728,14398.761234,1531.783110,6586.667373
1193.650027,11335.195014,-2833.798753,5361.240885
1193.650325,3293.333686,-4212.403552,7275.969772
1193.650624,-2221.085509,-3446.511997,8731.163727
1193.650922,-7965.272172,-6586.667373,10875.660081
1193.651220,-14781.707011,-4365.581863,14245.582923
1193.651535,-18228.219009,-2221.085509,18075.040698
1193.651834,-11718.140791,-382.945777,15164.652789
1193.652132,-4748.527641,4748.527641,13249.923901
1193.652431,1684.961421,4288.992708,12560.621502
1193.652730,9803.411904,1378.604799,8041.861327
1193.653028,13403.102212,2144.496354,9420.466126
1193.653327,17538.916609,306.356622,5514.419196
1193.653626,12024.497413,-2986.977064,3676.279464
1193.653914,4748.527641,-1455.193954,7275.969772
1193.654213,-3523.101153,-6127.132440,8501.396260
1193.654512,-14628.528700,-10952.249236,12484.032346
1193.654811,-20142.947896,-8577.985416,17155.970832
1193.655110,-15700.776877,-5820.775818,16236.900966
1193.655410,-7352.558928,-1302.015643,12101.086569
1193.655709,2374.263820,1531.783110,11641.551636
1193.656008,11335.195014,4825.116796,9573.644437
1193.656307,17692.094920,6356.899906,7275.969772
1193.656607,18304.808164,5591.008351,5973.954129
1193.656906,12484.032346,-382.945777,5820.775818
1193.657205,3599.690308,-2527.442131,8195.039638
1193.657504,-3063.566220,-3752.868619,8271.628794
1193.657804,-10645.892614,-9037.520349,10186.357681
1193.658103,-16160.311810,-8731.163727,14628.528700
1193.658402,-18075.040698,-5820.775818,17615.505765
1193.658674,-13786.047990,-1302.015643,16083.722655
1193.658978,-3063.566220,6203.721595,14168.993767
1193.659283,5054.884263,11028.838392,11182.016703
1193.659587,13249.923901,12560.621502,6510.078217
1193.659891,11641.551636,11028.838392,8041.861327
1193.660196,10109.768526,5897.364973,7658.915550
1193.660500,7582.326394,1531.783110,7275.969772
1193.660804,2680.620442,1225.426488,8960.931193
1193.661108,-1608.372265,-4059.225241,9114.109504
1193.661408,-7505.737239,-6433.489062,11718.140791
1193.661708,-9497.055282,-4365.581863,14322.172078
1193.662008,-10033.179370,-5208.062574,13249.923901
1193.662309,-10339.535992,-5514.419196,13786.047990
1193.662609,-4135.814397,-382.945777,13326.513057
1193.662909,2144.496354,1072.248177,10033.179370
1193.663210,7429.148083,1072.248177,8884.342038
1193.663528,10416.125148,1378.604799,8654.574571
1193.663827,11335.195014,-382.945777,7735.504705
1193.664125,9956.590215,-382.945777,6280.310751
1193.664423,5208.062574,-1455.193954,6280.310751
1193.664721,-1914.728887,-4365.581863,8807.752882
1193.665019,-7505.737239,-6893.023995,11641.551636
1193.665318,-14781.707011,-8271.628794,15011.474478
1193.665616,-13479.691368,-7812.093861,14475.350389
1193.665929,-8271.628794,-3140.155375,12943.567279
1193.666225,-1761.550576,-229.767466,11794.729947
1193.666521,4671.938485,-229.767466,10569.303459
1193.666817,9803.411904,1991.318043,9956.590215
1193.667113,11641.551636,3523.101153,7429.148083
1193.667409,12177.675724,2297.674665,4825.116796
1193.667705,6893.023995,3216.744531,8577.985416
1193.668001,459.534933,1684.961421,9114.109504
1193.668301,-4442.171019,-382.945777,8654.574571
1193.668601,-9573.644437,1684.961421,12407.443191
1193.668902,-14475.350389,-0.000000,15853.955188
1193.669203,-14628.528700,-1148.837332,15853.955188
1193.669504,-7965.272172,2757.209598,14551.939545
1193.669804,-382.945777,3063.566220,12407.443191
1193.670105,6280.310751,2450.852976,9343.876971
1193.670406,8501.396260,3063.566220,9420.466126
1193.670747,10722.481770,2604.031287,7812.093861
1193.671042,8960.931193,-0.000000,6969.613150
1193.671337,4671.938485,-1608.372265,8195.039638
1193.671633,-1148.837332,-3446.511997,8041.861327
1193.671928,-4748.527641,-4518.760174,9726.822748
1193.672224,-8118.450483,-3906.046930,11947.908258
1193.672519,-9190.698660,-5820.775818,12407.443191
1193.672814,-6356.899906,-4365.581863,13096.745590
1193.673094,-1608.372265,-842.480710,13709.458834
1193.673393,4212.403552,-1302.015643,10262.946837
1193.673692,8960.931193,1378.604799,9497.055282
1193.673991,9803.411904,3063.566220,8424.807105
1193.674290,8501.396260,-382.945777,6356.899906
1193.674589,3752.868619,-1455.193954,8041.861327
1193.674888,-689.302399,-2067.907198,8654.574571
1193.675187,-6663.256528,-4518.760174,10875.660081
1193.675503,-10339.535992,-3752.868619,11794.729947
1193.675802,-13632.869679,-3752.868619,15088.063633
1193.676100,-9726.822748,-2986.977064,14245.582923
1193.676399,-4825.116796,1838.139732,12560.621502
1193.676697,2680.620442,4748.527641,11794.729947
1193.676996,7888.683016,4978.295107,9420.466126
1193.677294,10569.303459,5131.473418,8807.752882
1193.677592,11641.551636,4825.116796,8807.752882
1193.677910,6280.310751,-1148.837332,6663.256528
1193.678207,919.069866,-536.124088,8884.342038
1193.678505,-3063.566220,-2833.798753,8960.931193
1193.678803,-8731.163727,-6433.489062,10722.481770
1193.679101,-10799.070925,-5667.597507,13862.637145
1193.679398,-10186.357681,-6127.132440,12943.567279
1193.679696,-5131.473418,-6280.310751,12407.443191
1193.679994,306.356622,-1148.837332,12101.086569
1193.680294,4365.581863,-536.124088,11182.016703
1193.680594,8348.217949,2450.852976,8501.396260
1193.680894,9650.233593,5284.651729,8654.574571
1193.681194,7122.791461,2450.852976,7352.558928
1193.681494,3752.868619,765.891555,7122.791461
1193.681794,-536.124088,-1302.015643,9573.644437
1193.682094,-3982.636086,-5973.954129,9956.590215
1193.682394,-5744.186662,-7046.202306,12254.264880
1193.682724,-9190.698660,-7199.380617,14322.172078
1193.683020,-6356.899906,-4901.705952,13556.280523
1193.683315,-4825.116796,-1761.550576,12637.210657
1193.683611,-1302.015643,1378.604799,12024.497413
1193.683907,2297.674665,4288.992708,9880.001059
1193.684202,5820.775818,6203.721595,9114.109504
1193.684498,9267.287815,8041.861327,7429.148083
1193.684793,9267.287815,5591.008351,7275.969772
1193.685100,4365.581863,4135.814397,8884.342038
1193.685398,-76.589155,2297.674665,10799.070925
1193.685695,-3829.457775,306.356622,11105.427547
1193.685992,-7505.737239,-229.767466,11258.605858
1193.686289,-10186.357681,-3293.333686,13479.691368
1193.686586,-10339.535992,-4901.705952,13249.923901
1193.686884,-6663.256528,-3752.868619,12866.978124
1193.687181,-995.659021,-3446.511997,12484.032346
1193.687510,5054.884263,-3752.868619,10109.768526
1193.687807,8501.396260,-1302.015643,7582.326394
1193.688103,9267.287815,-229.767466,6586.667373
1193.688399,5973.954129,153.178311,6510.078217
1193.688696,3599.690308,-536.124088,6816.434839
1193.688992,-3523.101153,-2527.442131,11182.016703
1193.689288,-4748.527641,-5820.775818,9420.466126
1193.689585,-7658.915550,-5820.775818,12943.567279
1193.689880,-5897.364973,-8118.450483,14781.707011
1193.690181,-1302.015643,-5820.775818,11641.551636
1193.690481,2833.798753,-1148.837332,10492.714303
1193.690782,7429.148083,-689.302399,9114.109504
1193.691083,5514.419196,-1148.837332,11028.838392
1193.691384,6127.132440,1225.426488,9497.055282
1193.691685,5820.775818,1991.318043,7122.791461
1193.691986,1378.604799,1838.139732,7199.380617
1193.692274,-2910.387909,1531.783110,10875.660081
1193.692574,-7122.791461,153.178311,12254.264880
1193.692874,-6356.899906,3369.922842,12713.799813
1193.693174,-12407.443191,459.534933,16236.900966
1193.693474,-11105.427547,-229.767466,14475.350389
1193.693774,-3982.636086,4288.992708,12407.443191
1193.694074,2297.674665,7275.969772,10492.714303
1193.694375,8501.396260,3369.922842,7735.504705
1193.694688,8348.217949,3982.636086,9420.466126
1193.694986,9803.411904,3369.922842,7582.326394
1193.695284,6739.845684,-1761.550576,7275.969772
1193.695582,765.891555,-4518.760174,11028.838392
1193.695880,-4135.814397,-6127.132440,9650.233593
1193.696178,-4288.992708,-5054.884263,9956.590215
1193.696475,-5437.830040,-2527.442131,11182.016703
1193.696773,-4978.295107,-3140.155375,12407.443191
1193.697080,-3063.566220,-3293.333686,13249.923901
1193.697380,-76.589155,765.891555,11105.427547
1193.697680,5820.775818,1684.961421,9956.590215
1193.697979,4901.705952,1072.248177,9956.590215
1193.698279,3599.690308,-76.589155,9267.287815
1193.698579,5361.240885,-689.302399,8501.396260
1193.698878,1991.318043,-2527.442131,8807.752882
1193.699178,-3523.101153,-5514.419196,9650.233593
1193.699475,-6356.899906,-6433.489062,11182.016703
1193.699777,-8731.163727,-5208.062574,13020.156435
1193.700080,-7965.272172,-5208.062574,15471.009411
1193.700383,-6969.613150,-4671.938485,14092.404612
1193.700686,1991.318043,3063.566220,11028.838392
1193.700989,5667.597507,4825.116796,9343.876971
1193.701292,9420.466126,3829.457775,9114.109504
1193.701595,10416.125148,3216.744531,8807.752882
1193.701890,11488.373325,3523.101153,7122.791461
1193.702190,6280.310751,-689.302399,7658.915550
1193.702490,1531.783110,-689.302399,7582.326394
1193.702790,-1608.372265,153.178311,8960.931193
1193.703090,-9343.876971,-4901.705952,11641.551636
1193.703390,-12407.443191,-4365.581863,15853.955188
1193.703690,-12713.799813,-3446.511997,14551.939545
1193.703991,-8118.450483,-4365.581863,12713.799813
1193.704279,-2757.209598,-2527.442131,12254.264880
1193.704580,1838.139732,-382.945777,12101.086569
1193.704880,6586.667373,-76.589155,9650.233593
1193.705181,10722.481770,2297.674665,6969.613150
1193.705482,7429.148083,612.713244,8501.396260
1193.705783,4059.225241,-229.767466,6663.256528
1193.706084,-1302.015643,-229.767466,7812.093861
1193.706384,-4825.116796,-1148.837332,9650.233593
1193.706672,-5284.651729,-4212.403552,10875.660081
1193.706971,-5897.364973,-3446.511997,14322.172078
1193.707270,-4595.349330,-2527.442131,13709.458834
1193.707569,153.178311,-842.480710,13326.513057
1193.707868,4059.225241,1838.139732,13709.458834
1193.708167,8501.396260,2450.852976,9803.411904
1193.708465,12330.854035,3829.457775,6969.613150
1193.708764,8041.861327,3063.566220,8807.752882
1193.709071,3446.511997,-382.945777,9267.287815
1193.709374,-842.480710,-76.589155,9037.520349
1193.709676,-6969.613150,1684.961421,10722.481770
1193.709978,-8884.342038,765.891555,11641.551636
1193.710280,-12713.799813,1378.604799,12177.675724
1193.710583,-13479.691368,1991.318043,14781.707011
1193.710885,-8577.985416,1072.248177,13326.513057
1193.711187,-2757.209598,919.069866,13862.637145
1193.711503,5208.062574,1531.783110,11641.551636
1193.711797,14551.939545,-0.000000,5667.597507
1193.712091,16390.079277,153.178311,5667.597507
1193.712384,12484.032346,-3293.333686,7275.969772
1193.712678,7429.148083,-6586.667373,6280.310751
1193.712972,306.356622,-4059.225241,6969.613150
1193.713266,-5131.473418,-4825.116796,8271.628794
1193.713559,-11947.908258,-7965.272172,11335.195014
1193.713878,-17309.149143,-7812.093861,14628.528700
1193.714176,-13786.047990,-6586.667373,16849.614210
1193.714474,-7965.272172,-3906.046930,14015.815456
1193.714773,-0.000000,2604.031287,12943.567279
1193.715071,6586.667373,2910.387909,9573.644437
1193.715369,11641.551636,4442.171019,9420.466126
1193.715667,12943.567279,5744.186662,7888.683016
1193.715965,12024.497413,4748.527641,5361.240885
1193.716279,7046.202306,1684.961421,4825.116796
1193.716577,153.178311,-2067.907198,9497.055282
1193.716874,-6356.899906,-6280.310751,13403.102212
1193.717172,-8577.985416,-6739.845684,13786.047990
1193.717470,-9573.644437,-2527.442131,14628.528700
1193.717768,-9343.876971,-2374.263820,14015.815456
1193.718066,-4978.295107,1378.604799,14168.993767
1193.718364,-1455.193954,4825.116796,14551.939545
1193.718664,8501.396260,8041.861327,9573.644437
1193.718965,12484.032346,8041.861327,6510.078217
1193.719265,13709.458834,8501.396260,6586.667373
1193.719566,10722.481770,5131.473418,5437.830040
1193.719867,3293.333686,3523.101153,7199.380617
1193.720168,-2450.852976,-1302.015643,9650.233593
1193.720468,-13173.334746,-5973.954129,10339.535992
1193.720769,-16466.668432,-6280.310751,12790.388968
1193.721076,-17462.327454,-5667.597507,15241.241944
1193.721373,-14322.172078,-7812.093861,17309.149143
1193.721670,-6969.613150,-4365.581863,14398.761234
1193.721967,4748.527641,306.356622,10569.303459
1193.722264,14168.993767,2604.031287,6356.899906
1193.722561,17385.738298,2297.674665,5361.240885
1193.722858,14245.582923,612.713244,6280.310751
1193.723155,10262.946837,-1761.550576,5054.884263
1193.723469,2374.263820,-1761.550576,7582.326394
1193.723772,-4978.295107,-5361.240885,9803.411904
1193.724076,-12713.799813,-7199.380617,11947.908258
1193.724379,-16849.614210,-4518.760174,16619.846743
1193.724683,-14781.707011,-3599.690308,16849.614210
1193.724987,-8118.450483,-76.589155,14934.885322
1193.725290,612.713244,4595.349330,12177.675724
1193.725594,9650.233593,5131.473418,10799.070925
1193.725913,18151.629853,4825.116796,7122.791461
1193.726206,22287.444250,5591.008351,5361.240885
1193.726500,17692.094920,-1148.837332,5667.597507
1193.726793,7735.504705,-3446.511997,5744.186662
1193.727087,-842.480710,-2986.977064,8654.574571
1193.727381,-13326.513057,-8118.450483,11105.427547
1193.727674,-21598.141851,-9037.520349,14628.528700
1193.727968,-25504.188781,-4901.705952,18151.629853
1193.728285,-20296.126207,-2680.620442,15853.955188
1193.728584,-7122.791461,1531.783110,13556.280523
1193.728882,2680.620442,6663.256528,11947.908258
1193.729181,16083.722655,7429.148083,8195.039638
1193.729479,23742.638205,8348.217949,3829.457775
1193.729778,23512.870738,6203.721595,3982.636086
1193.730077,12024.497413,-2374.263820,6663.256528
1193.730375,-1302.015643,-4518.760174,9190.698660
1193.730652,-8731.163727,-5667.597507,10569.303459
1193.730952,-12101.086569,-6586.667373,9956.590215
1193.731252,-19836.591274,-8884.342038,14168.993767
1193.731552,-19989.769585,-6127.132440,18075.040698
1193.731852,-11105.427547,-1148.837332,15624.187722
1193.732152,-1455.193954,4825.116796,13096.745590
1193.732452,7429.148083,6816.434839,11641.551636
1193.732752,12943.567279,9956.590215,9114.109504
1193.733082,18764.343097,10262.946837,5897.364973
1193.733379,17079.381676,5591.008351,5514.419196
1193.733676,10569.303459,919.069866,5514.419196
1193.733973,4671.938485,306.356622,7812.093861
1193.734270,-2374.263820,-6280.310751,9956.590215
1193.734567,-8424.807105,-9726.822748,11488.373325
1193.734864,-15241.241944,-8118.450483,16236.900966
1193.735161,-14628.528700,-8271.628794,15547.598566
1193.735469,-11564.962480,-4365.581863,13249.923901
1193.735769,-6203.721595,-842.480710,13556.280523
1193.736068,2297.674665,1531.783110,12024.497413
1193.736368,9956.590215,3676.279464,8654.574571
1193.736668,15930.544344,5591.008351,5591.008351
1193.736968,16236.900966,765.891555,4748.527641
1193.737268,9267.287815,-229.767466,5973.954129
1193.737568,3752.868619,-1302.015643,7582.326394
1193.737851,-4442.171019,-4059.225241,9420.466126
1193.738156,-15088.063633,-8118.450483,10799.070925
1193.738460,-21215.196073,-7812.093861,16390.079277
1193.738765,-17615.505765,-7965.272172,16696.435899
1193.739070,-9343.876971,-5208.062574,14781.707011
1193.739374,306.356622,-995.659021,13556.280523
1193.739679,10416.125148,3676.279464,9803.411904
1193.739984,14551.939545,5284.651729,8041.861327
1193.740301,17998.451542,6816.434839,7505.737239
1193.740596,11182.016703,3369.922842,6510.078217
1193.740890,5820.775818,3676.279464,6127.132440
1193.741185,-1608.372265,-382.945777,8501.396260
1193.741479,-8118.450483,-4825.116796,10109.768526
1193.741774,-12407.443191,-5667.597507,14322.172078
1193.742068,-15547.598566,-4671.938485,16083.722655
1193.742362,-10799.070925,-4365.581863,13403.102212
1193.742662,-2757.209598,459.534933,13403.102212
1193.742961,3752.868619,1225.426488,13939.226301
1193.743261,10875.660081,3829.457775,9573.644437
1193.743560,17232.559987,7735.504705,5284.651729
1193.743859,17538.916609,6510.078217,5054.884263
1193.744158,11488.373325,1838.139732,5437.830040
1193.744458,2527.442131,1378.604799,8501.396260
1193.744757,-7658.915550,-3752.868619,10952.249236
1193.745043,-14092.404612,-6433.489062,11794.729947
1193.745345,-18840.932253,-6127.132440,15164.652789
1193.745648,-18687.753942,-5820.775818,15930.544344
1193.745951,-11871.319102,-2221.085509,14168.993767
1193.746253,-3982.636086,3216.744531,15241.241944
1193.746556,9114.109504,5744.186662,9956.590215
1193.746859,16083.722655,8960.931193,6280.310751
1193.747161,17538.916609,8960.931193,6050.543284
1193.747469,16083.722655,3676.279464,5973.954129
1193.747766,7888.683016,1378.604799,7735.504705
1193.748063,-1148.837332,-2067.907198,9956.590215
1193.748360,-6203.721595,-6280.310751,9803.411904
1193.748657,-11947.908258,-9190.698660,13709.458834
1193.748955,-17462.327454,-11258.605858,15700.776877
1193.749252,-17615.505765,-10339.535992,15317.831100
1193.749549,-10339.535992,-4059.225241,13556.280523
1193.749846,-2221.085509,-1761.550576,11794.729947
1193.750147,7122.791461,765.891555,9880.001059
1193.750448,15164.652789,6816.434839,5437.830040
1193.750749,18457.986475,4748.527641,6280.310751
1193.751050,14398.761234,-382.945777,5437.830040
1193.751351,8654.574571,-2986.977064,7429.148083
1193.751652,2680.620442,-3446.511997,9803.411904
1193.751953,-3369.922842,-7965.272172,8271.628794
1193.752281,-13786.047990,-8884.342038,13249.923901
1193.752577,-16849.614210,-10339.535992,13862.637145
1193.752873,-17462.327454,-7199.380617,13862.637145
1193.753169,-10799.070925,-4212.403552,15777.366033
1193.753465,-1455.193954,153.178311,13249.923901
1193.753762,9803.411904,4288.992708,9650.233593
1193.754058,18457.986475,12254.264880,6510.078217
1193.754354,20985.428607,10875.660081,5361.240885
1193.754666,10569.303459,6816.434839,6969.613150
1193.754963,2986.977064,5284.651729,10109.768526
1193.755261,-5591.008351,1225.426488,10416.125148
1193.755558,-12101.086569,-1302.015643,11641.551636
1193.755855,-14781.707011,-5208.062574,13556.280523
1193.756153,-15547.598566,-6433.489062,15241.241944
1193.756450,-8424.807105,-3752.868619,13249.923901
1193.756748,153.178311,-382.945777,13403.102212
1193.757034,5208.062574,459.534933,11411.784169
1193.757336,10722.481770,5437.830040,8195.039638
1193.757639,10722.481770,4442.171019,7275.969772
1193.757942,8195.039638,306.356622,6893.023995
1193.758245,4365.581863,765.891555,8348.217949
1193.758547,-1455.193954,-1148.837332,9497.055282
1193.758850,-2757.209598,-3140.155375,9037.520349
1193.759153,-6969.613150,-4212.403552,11488.373325
1193.759460,-8577.985416,-5667.597507,13249.923901
1193.759760,-9573.644437,-7046.202306,10875.660081
1193.760059,-5744.186662,-5054.884263,13020.156435
1193.760359,-1148.837332,-5208.062574,13479.691368
1193.760659,5514.419196,-4825.116796,9956.590215
1193.760958,12330.854035,306.356622,8041.861327
1193.761258,14551.939545,612.713244,6510.078217
1193.761557,11028.838392,-229.767466,6816.434839
1193.761854,4212.403552,1225.426488,9803.411904
1193.762152,-1302.015643,765.891555,9803.411904
1193.762450,-4825.116796,-689.302399,9573.644437
1193.762748,-10492.714303,-689.302399,11028.838392
1193.763046,-13173.334746,-3446.511997,12866.978124
1193.763344,-13939.226301,-5054.884263,14322.172078
1193.763643,-6510.078217,-1455.193954,12943.567279
1193.763941,765.891555,-1148.837332,11947.908258
1193.764255,5208.062574,1072.248177,9956.590215
1193.764554,6893.023995,1378.604799,9573.644437
1193.764852,7046.202306,1378.604799,9956.590215
1193.765151,7046.202306,2297.674665,7429.148083
1193.765450,1991.318043,1531.783110,8348.217949
1193.765749,-1608.372265,-0.000000,9956.590215
1193.766047,-3676.279464,-1455.193954,9573.644437
1193.766346,-4825.116796,-4059.225241,11718.140791
1193.766634,-6510.078217,-7658.915550,12407.443191
1193.766934,-7658.915550,-8424.807105,12943.567279
1193.767234,-3523.101153,-4901.705952,13403.102212
1193.767534,4748.527641,-2374.263820,8884.342038
1193.767834,6893.023995,153.178311,8960.931193
1193.768134,10416.125148,4442.171019,10109.768526
1193.768434,10262.946837,5284.651729,5667.597507
1193.768734,10109.768526,7888.683016,6969.613150
1193.769034,4518.760174,4288.992708,11564.962480
1193.769334,-1302.015643,1072.248177,12254.264880
1193.769634,-2604.031287,3369.922842,10262.946837
1193.769934,-6356.899906,-536.124088,10416.125148
1193.770234,-12101.086569,-4901.705952,13403.102212
1193.770534,-13632.869679,-5054.884263,15547.598566
1193.770834,-10645.892614,-2374.263820,15241.241944
1193.771134,-2757.209598,-1761.550576,9956.590215
1193.771441,2833.798753,2757.209598,9650.233593
1193.771740,7735.504705,4135.814397,7812.093861
1193.772039,9267.287815,5437.830040,4595.349330
1193.772339,5208.062574,3676.279464,9803.411904
1193.772638,2680.620442,-76.589155,10875.660081
1193.772937,612.713244,-1914.728887,9573.644437
1193.773237,-1608.372265,-3752.868619,10109.768526
1193.773536,-4978.295107,-7965.272172,11028.838392
1193.773856,-7199.380617,-10033.179370,12790.388968
1193.774153,-4595.349330,-8731.163727,12713.799813
1193.774450,-76.589155,-7658.915550,9803.411904
1193.774747,2297.674665,-2680.620442,9267.287815
1193.775044,3906.046930,-229.767466,9267.287815
1193.775341,5208.062574,153.178311,9114.109504
1193.775638,3752.868619,2757.209598,7888.683016
1193.775935,1991.318043,1684.961421,9956.590215
1193.776254,-995.659021,612.713244,9956.590215
1193.776552,-3216.744531,-1302.015643,11794.729947
1193.776850,-5897.364973,-2986.977064,14168.993767
1193.777149,-6203.721595,-6127.132440,12637.210657
1193.777447,-2374.263820,-3140.155375,12560.621502
1193.777745,-229.767466,-2527.442131,12407.443191
1193.778043,2986.977064,-536.124088,10109.768526
1193.778341,3599.690308,4135.814397,9114.109504
1193.778654,4748.527641,4288.992708,7582.326394
1193.778950,1991.318043,3523.101153,7812.093861
1193.779246,-2757.209598,3523.101153,12024.497413
1193.779543,-536.124088,1991.318043,12024.497413
1193.779839,1378.604799,3676.279464,8041.861327
1193.780135,-536.124088,3063.566220,11718.140791
1193.780431,-1761.550576,2144.496354,12024.497413
1193.780727,-2221.085509,1991.318043,11182.016703
1193.781026,-1608.372265,3676.279464,11641.551636
1193.781327,-1455.193954,-995.659021,10109.768526
1193.781628,-4135.814397,-2986.977064,11258.605858
1193.781929,2144.496354,-1148.837332,8041.861327
1193.782229,3906.046930,-2221.085509,6816.434839
1193.782530,1378.604799,-3599.690308,11182.016703
1193.782831,1531.783110,-842.480710,10492.714303
1193.783132,3140.155375,2757.209598,8118.450483
1193.783439,-1302.015643,3063.566220,9114.109504
1193.783736,-7199.380617,-995.659021,14015.815456
1193.784032,-7199.380617,-689.302399,13249.923901
1193.784329,-5284.651729,-76.589155,11028.838392
1193.784626,-382.945777,-2986.977064,11488.373325
1193.784923,1684.961421,-3906.046930,10722.481770
1193.785220,4365.581863,-0.000000,10645.892614
1193.785517,7429.148083,-76.589155,7888.683016
1193.785831,2833.798753,-1914.728887,7888.683016
1193.786133,-689.302399,-1302.015643,10109.768526
1193.786436,-2910.387909,-1455.193954,10722.481770
1193.786739,-1608.372265,-3140.155375,9956.590215
1193.787042,-1455.193954,-2374.263820,11718.140791
1193.787344,919.069866,-4212.403552,11182.016703
1193.787647,2680.620442,-3752.868619,10416.125148
1193.787950,1225.426488,-2374.263820,10569.303459
1193.788223,2986.977064,-4059.225241,11488.373325
1193.788525,-1148.837332,-3752.868619,10492.714303
1193.788828,459.534933,-76.589155,8960.931193
1193.789131,-689.302399,-0.000000,8654.574571
1193.789433,-2910.387909,-995.659021,6586.667373
1193.789736,-2067.907198,153.178311,10262.946837
1193.790038,-4825.116796,-1914.728887,12101.086569
1193.790341,-5744.186662,-689.302399,13479.691368
1193.790606,-4748.527641,765.891555,12713.799813
1193.790909,-1761.550576,1378.604799,10799.070925
1193.791212,459.534933,612.713244,12101.086569
1193.791514,1072.248177,153.178311,12177.675724
1193.791817,5054.884263,-76.589155,10109.768526
1193.792119,7122.791461,2757.209598,8195.039638
1193.792422,4671.938485,-689.302399,8041.861327
1193.792725,-0.000000,-2067.907198,9803.411904
1193.793024,-229.767466,1531.783110,8731.163727
1193.793325,-2374.263820,1991.318043,9650.233593
1193.793625,-5591.008351,-1148.837332,11564.962480
1193.793925,-4978.295107,3216.744531,11794.729947
1193.794225,-229.767466,2450.852976,12177.675724
1193.794525,919.069866,306.356622,12024.497413
1193.794825,3599.690308,-2067.907198,13096.745590
1193.795125,6739.845684,-1148.837332,11028.838392
1193.795415,10262.946837,-2986.977064,7735.504705
1193.795719,5208.062574,-4671.938485,9573.644437
1193.796022,-0.000000,-5973.954129,9956.590215
1193.796325,-536.124088,-1455.193954,7582.326394
1193.796629,-2604.031287,-995.659021,6739.845684
1193.796932,-7122.791461,-1608.372265,10722.481770
1193.797235,-11258.605858,-1608.372265,13173.334746
1193.797539,-10952.249236,1072.248177,15011.474478
1193.797778,-6816.434839,-0.000000,13403.102212
1193.798088,-4978.295107,-0.000000,12713.799813
1193.798397,2527.442131,1684.961421,11411.784169
1193.798707,10416.125148,1991.318043,8501.396260
1193.799017,13096.745590,1531.783110,6433.489062
1193.799326,11335.195014,459.534933,7505.737239
1193.799636,5973.954129,-3293.333686,7275.969772
1193.799946,306.356622,-4059.225241,6663.256528
1193.800229,-5437.830040,-4825.116796,11335.195014
1193.800532,-11871.319102,-8424.807105,13096.745590
1193.800835,-12254.264880,-4901.705952,12713.799813
1193.801138,-8424.807105,-1455.193954,11794.729947
1193.801440,-4595.349330,-2986.977064,11182.016703
1193.801743,-2221.085509,-1302.015643,13096.745590
1193.802046,3906.046930,-1148.837332,10799.070925
1193.802349,6586.667373,-2680.620442,10569.303459
1193.802663,10109.768526,-229.767466,8424.807105
1193.802961,12790.388968,1378.604799,5897.364973
1193.803258,10109.768526,-536.124088,3523.101153
1193.803555,2297.674665,-1455.193954,7505.737239
1193.803852,-6203.721595,-5054.884263,12943.567279
1193.804150,-6816.434839,-3752.868619,10722.481770
1193.804447,-11105.427547,-2986.977064,13862.637145
1193.804744,-13020.156435,-5361.240885,16236.900966
1193.805034,-8731.163727,-689.302399,14934.885322
1193.805330,1225.426488,6203.721595,11641.551636
1193.805626,7735.504705,6510.078217,10492.714303
1193.805921,9267.287815,6203.721595,9650.233593
1193.806217,11871.319102,9420.466126,8041.861327
1193.806513,12943.567279,7275.969772,3523.101153
1193.806809,3446.511997,1225.426488,6816.434839
1193.807105,-4595.349330,-1148.837332,11105.427547
1193.807419,-8884.342038,-3752.868619,11335.195014
1193.807716,-12407.443191,-3599.690308,12790.388968
1193.808014,-13939.226301,-4518.760174,14781.707011
1193.808312,-12407.443191,-4518.760174,15241.241944
1193.808610,-2910.387909,-536.124088,10875.660081
1193.808908,5667.597507,2757.209598,11182.016703
1193.809206,10569.303459,-76.589155,10033.179370
1193.809503,11182.016703,459.534933,8807.752882
1193.809810,12637.210657,153.178311,6356.899906
1193.810110,8654.574571,-4365.581863,5054.884263
1193.810410,1531.783110,-6127.132440,8195.039638
1193.810709,-3982.636086,-5054.884263,8960.931193
1193.811009,-8118.450483,-4212.403552,10033.179370
1193.811309,-11871.319102,-3599.690308,13709.458834
1193.811608,-13479.691368,-3752.868619,16390.079277
1193.811908,-10645.892614,-2067.907198,15853.955188
1193.812204,-229.767466,3829.457775,11794.729947
1193.812504,5054.884263,1531.783110,12177.675724
1193.812804,11028.838392,459.534933,9267.287815
1193.813103,16083.722655,2297.674665,7122.791461
1193.813403,17232.559987,1225.426488,5361.240885
1193.813702,9267.287815,-3293.333686,5667.597507
1193.814002,-2757.209598,-5667.597507,11028.838392
1193.814302,-8118.450483,-6127.132440,11641.551636
1193.814596,-11871.319102,-4059.225241,9803.411904
1193.814896,-15700.776877,-1302.015643,12943.567279
1193.815197,-12101.086569,-689.302399,14705.117856
1193.815497,-7122.791461,2450.852976,12943.567279
1193.815797,2986.977064,5131.473418,12560.621502
1193.816097,8807.752882,1991.318043,11028.838392
1193.816397,12637.210657,2757.209598,7888.683016
1193.816697,15164.652789,1531.783110,5820.775818
1193.817066,10262.946837,-1302.015643,5744.186662
1193.817358,1225.426488,-2833.798753,8041.861327
1193.817650,-8424.807105,-5820.775818,9956.590215
1193.817942,-12713.799813,-6893.023995,11411.784169
1193.818234,-15853.955188,-5514.419196,14015.815456
1193.818526,-16160.311810,-2680.620442,15853.955188
1193.818819,-10492.714303,-1302.015643,14628.528700
1193.819111,1684.961421,6356.899906,11258.605858
1193.819410,10109.768526,6510.078217,10492.714303
1193.819710,15624.187722,5744.186662,7582.326394
1193.820010,15164.652789,5591.008351,9114.109504
1193.820310,13249.923901,4135.814397,8271.628794
1193.820610,8960.931193,-0.000000,4901.705952
1193.820910,-842.480710,-2067.907198,9114.109504
1193.821210,-7965.272172,-7046.202306,10416.125148
1193.821511,-12407.443191,-8577.985416,12330.854035
1193.821818,-16313.490121,-5361.240885,15700.776877
1193.822116,-10186.357681,-5054.884263,14781.707011
1193.822414,-5437.830040,-2221.085509,12790.388968
1193.822712,4518.760174,2297.674665,10492.714303
1193.823010,7582.326394,3676.279464,11182.016703
1193.823308,9650.233593,1991.318043,8731.163727
1193.823606,12790.388968,2757.209598,8195.039638
1193.823905,11182.016703,-0.000000,5973.954129
1193.824221,5208.062574,-2986.977064,5208.062574
1193.824519,-1608.372265,-5054.884263,7275.969772
1193.824818,-7352.558928,-7046.202306,11335.195014
1193.825116,-11718.140791,-6433.489062,12254.264880
1193.825414,-14475.350389,-4212.403552,14475.350389
1193.825713,-13939.226301,-3599.690308,15624.187722
1193.826011,-8884.342038,-842.480710,14092.404612
1193.826310,-3369.922842,459.534933,13403.102212
1193.826624,5973.954129,2450.852976,8577.985416
1193.826923,12177.675724,4748.527641,7812.093861
1193.827221,16773.025054,3829.457775,8195.039638
1193.827520,12943.567279,765.891555,6816.434839
1193.827819,8041.861327,612.713244,6969.613150
1193.828118,-689.302399,-2221.085509,9114.109504
1193.828416,-9573.644437,-7199.380617,11488.373325
1193.828715,-12713.799813,-4825.116796,12943.567279
1193.829003,-12713.799813,-4825.116796,12637.210657
1193.829303,-9726.822748,-4059.225241,13403.102212
1193.829603,-2450.852976,-1761.550576,14168.993767
1193.829903,4901.705952,1531.783110,13249.923901
1193.830203,11794.729947,3063.566220,9190.698660
1193.830503,14015.815456,4595.349330,7582.326394
1193.830803,11335.195014,765.891555,6969.613150
1193.831103,7735.504705,1225.426488,7199.380617
1193.831367,2144.496354,-0.000000,6893.023995
1193.831672,-4978.295107,-5208.062574,9114.109504
1193.831976,-10799.070925,-5820.775818,12024.497413
1193.832280,-15700.776877,-6127.132440,16083.722655
1193.832584,-11564.962480,-2833.798753,14628.528700
1193.832888,-7199.380617,1378.604799,13249.923901
1193.833193,-1302.015643,7888.683016,13173.334746
1193.833497,4901.705952,7122.791461,9420.466126
1193.833804,8501.396260,10109.768526,9267.287815
1193.834103,11488.373325,7275.969772,8960.931193
1193.834402,8195.039638,765.891555,9420.466126
1193.834702,7888.683016,-842.480710,7352.558928
1193.835001,4212.403552,-4059.225241,6586.667373
1193.835300,-3829.457775,-10645.892614,9420.466126
1193.835599,-12560.621502,-10339.535992,13173.334746
1193.835899,-16007.133499,-8271.628794,14168.993767
1193.836219,-10339.535992,-6739.845684,11871.319102
1193.836519,-6969.613150,-0.000000,12101.086569
1193.836820,1991.318043,765.891555,10109.768526
1193.837120,6127.132440,-0.000000,10339.535992
1193.837421,11794.729947,1684.961421,9114.109504
1193.837721,15317.831100,-229.767466,7429.148083
1193.838021,11871.319102,-1455.193954,6356.899906
1193.838322,7122.791461,-3599.690308,8654.574571
1193.838595,-842.480710,-5361.240885,8501.396260
1193.838895,-8884.342038,-7658.915550,9420.466126
1193.839195,-12254.264880,-4212.403552,13403.102212
1193.839495,-11718.140791,-4365.581863,12484.032346
1193.839795,-11258.605858,-2833.798753,14168.993767
1193.840095,-3063.566220,1225.426488,12790.388968
1193.840395,2374.263820,2910.387909,11411.784169
1193.840695,8348.217949,3829.457775,11335.195014
1193.841012,14705.117856,5591.008351,8195.039638
1193.841308,13249.923901,4825.116796,6969.613150
1193.841604,9497.055282,5897.364973,7352.558928
1193.841900,2833.798753,1838.139732,8807.752882
1193.842196,-8118.450483,-2680.620442,10645.892614
1193.842492,-12713.799813,-3446.511997,10952.249236
1193.842788,-17615.505765,-5820.775818,13403.102212
1193.843084,-14628.528700,-7352.558928,14934.885322
1193.843384,-8118.450483,-5054.884263,12560.621502
1193.843685,-3216.744531,-1302.015643,12560.621502
1193.843986,6893.023995,919.069866,8501.396260
1193.844286,13096.745590,4135.814397,8348.217949
1193.844587,15164.652789,3676.279464,7582.326394
1193.844888,10569.303459,2604.031287,8654.574571
1193.845189,5820.775818,3063.566220,8041.861327
1193.845489,612.713244,-995.659021,8807.752882
1193.845797,-5284.651729,-4518.760174,10569.303459
1193.846093,-12101.086569,-5667.597507,12560.621502
1193.846390,-12101.086569,-3446.511997,13249.923901
1193.846687,-7352.558928,-4212.403552,11641.551636
1193.846984,-4135.814397,-0.000000,13326.513057
1193.847281,919.069866,919.069866,12713.799813
1193.847578,5208.062574,1991.318043,10722.481770
1193.847875,9420.466126,3216.744531,8501.396260
1193.848183,12330.854035,4288.992708,7735.504705
1193.848482,6893.023995,4595.349330,8195.039638
1193.848781,4059.225241,4135.814397,8348.217949
1193.849080,459.534933,-1608.372265,8041.861327
1193.849379,-4825.116796,-5208.062574,10109.768526
1193.849678,-10645.892614,-7658.915550,13096.745590
1193.849977,-10492.714303,-8118.450483,13556.280523
1193.850276,-4595.349330,-3906.046930,10645.892614
1193.850592,-229.767466,-1761.550576,11335.195014
1193.850891,-1148.837332,-2221.085509,11488.373325
1193.851191,2144.496354,1378.604799,11028.838392
1193.851490,8348.217949,4748.527641,8041.861327
1193.851789,7046.202306,1991.318043,6280.310751
1193.852088,1838.139732,459.534933,9497.055282
1193.852387,-76.589155,-842.480710,10109.768526
1193.852687,-3982.636086,-4901.705952,10186.357681
1193.853004,-8884.342038,-5208.062574,12407.443191
1193.853302,-9726.822748,-5054.884263,14168.993767
1193.853599,-7352.558928,-2527.442131,11718.140791
1193.853897,-842.480710,2910.387909,11028.838392
1193.854195,3446.511997,1072.248177,11182.016703
1193.854493,3293.333686,-229.767466,11182.016703
1193.854791,7429.148083,3216.744531,9956.590215
1193.855088,10569.303459,4288.992708,7735.504705
1193.855388,7046.202306,2757.209598,7812.093861
1193.855687,4212.403552,1531.783110,9803.411904
1193.855987,919.069866,-842.480710,9803.411904
1193.856286,-0.000000,-2527.442131,9420.466126
1193.856585,-4288.992708,-4365.581863,11258.605858
1193.856884,-7505.737239,-7352.558928,13709.458834
1193.857183,-7658.915550,-4518.760174,13096.745590
1193.857482,-3369.922842,-0.000000,11641.551636
1193.857768,-842.480710,-689.302399,10569.303459
1193.858071,1072.248177,306.356622,9956.590215
1193.858374,2144.496354,1991.318043,11028.838392
1193.858676,7122.791461,3829.457775,7505.737239
1193.858979,5208.062574,3063.566220,8960.931193
1193.859282,4518.760174,2144.496354,10109.768526
1193.859584,-1148.837332,-689.302399,9573.644437
1193.859887,-6969.613150,-1914.728887,11794.729947
1193.860194,-10033.179370,-4212.403552,11947.908258
1193.860491,-11105.427547,-4212.403552,13862.637145
1193.860789,-7199.380617,-3752.868619,13249.923901
1193.861086,-76.589155,-76.589155,11641.551636
1193.861383,6739.845684,-842.480710,9267.287815
1193.861680,8807.752882,1684.961421,8577.985416
1193.861978,5514.419196,306.356622,11641.551636
1193.862275,6280.310751,765.891555,8348.217949
1193.862571,6739.845684,1684.961421,5667.597507
1193.862872,2986.977064,-995.659021,8041.861327
1193.863173,-3369.922842,-6739.845684,12024.497413
1193.863474,-6203.721595,-6586.667373,13326.513057
1193.863775,-2757.209598,-4671.938485,10339.535992
1193.864077,-1455.193954,-5208.062574,9650.233593
1193.864378,-4595.349330,-4901.705952,13403.102212
1193.864679,-995.659021,-2680.620442,11794.729947
1193.864973,3446.511997,2450.852976,9573.644437
1193.865274,6739.845684,2604.031287,8807.752882
1193.865575,7122.791461,1531.783110,8348.217949
1193.865876,6739.845684,2450.852976,8654.574571
1193.866177,5667.597507,2604.031287,6969.613150
1193.866478,-842.480710,-1914.728887,10492.714303
1193.866779,-8424.807105,-3752.868619,13939.226301
1193.867080,-10645.892614,-3140.155375,14551.939545
1193.867368,-8731.163727,-0.000000,11564.962480
1193.867668,-5744.186662,3369.922842,11028.838392
1193.867969,-3523.101153,4595.349330,12254.264880
1193.868270,-229.767466,3369.922842,12254.264880
1193.868571,4059.225241,6816.434839,10875.660081
1193.868872,4059.225241,3523.101153,8271.628794
1193.869173,1072.248177,-995.659021,9573.644437
1193.869473,-1914.728887,-3446.511997,10262.946837
1193.869782,-842.480710,-2374.263820,8884.342038
1193.870082,-689.302399,-3446.511997,9803.411904
1193.870381,-3523.101153,-2527.442131,11182.016703
1193.870681,-1302.015643,-2680.620442,11028.838392
1193.870980,1225.426488,-1608.372265,11947.908258
1193.871279,4365.581863,-229.767466,11105.427547
1193.871579,5667.597507,-842.480710,8577.985416
1193.871878,3293.333686,-2833.798753,8960.931193
1193.872185,1072.248177,-2374.263820,11028.838392
1193.872485,1378.604799,-1608.372265,10262.946837
1193.872784,-0.000000,-689.302399,8654.574571
1193.873084,2527.442131,2757.209598,8271.628794
1193.873384,1531.783110,919.069866,9114.109504
1193.873683,-2604.031287,-0.000000,10416.125148
1193.873983,-6969.613150,-1148.837332,13556.280523
1193.874283,-9726.822748,-2374.263820,14092.404612
1193.874579,-7658.915550,-1302.015643,12713.799813
1193.874877,-3369.922842,153.178311,10799.070925
1193.875174,153.178311,-842.480710,11258.605858
1193.875471,2527.442131,-382.945777,10416.125148
1193.875769,5973.954129,459.534933,8884.342038
1193.876066,9267.287815,306.356622,7429.148083
1193.876364,6893.023995,-76.589155,6127.132440
1193.876661,5361.240885,-536.124088,8654.574571
1193.876975,-2374.263820,-2374.263820,9803.411904
1193.877274,-4978.295107,-3446.511997,10569.303459
1193.877573,-9880.001059,-4671.938485,13862.637145
1193.877871,-9573.644437,-4825.116796,12943.567279
1193.878170,-2757.209598,-1761.550576,11794.729947
1193.878469,-1608.372265,-1608.372265,11488.373325
1193.878767,1225.426488,-3140.155375,12637.210657
1193.879066,2833.798753,-229.767466,11028.838392
1193.879354,5820.775818,2604.031287,8348.217949
1193.879654,5667.597507,3216.744531,7275.969772
1193.879954,1072.248177,3369.922842,9114.109504
1193.880254,-2221.085509,1684.961421,10262.946837
1193.880554,-3829.457775,2297.674665,10416.125148
1193.880854,-6510.078217,1838.139732,12943.567279
1193.881154,-8271.628794,-536.124088,14015.815456
1193.881454,-6203.721595,-842.480710,14015.815456
1193.881777,-2374.263820,3982.636086,12943.567279
1193.882074,4671.938485,1225.426488,9803.411904
1193.882370,7275.969772,-842.480710,9956.590215
1193.882667,12330.854035,-76.589155,8884.342038
1193.882964,14245.582923,1225.426488,5591.008351
1193.883261,11028.838392,153.178311,5667.597507
1193.883557,5054.884263,-536.124088,8348.217949
1193.883854,306.356622,-0.000000,9114.109504
1193.884195,-4978.295107,-1148.837332,9114.109504
1193.884492,-15088.063633,-5514.419196,13249.923901
1193.884788,-17921.862387,-7812.093861,17309.149143
1193.885085,-11718.140791,-3446.511997,14398.761234
1193.885382,-4135.814397,-76.589155,11794.729947
1193.885678,153.178311,612.713244,12713.799813
1193.885975,5667.597507,3523.101153,9956.590215
1193.886272,12484.032346,7429.148083,6280.310751
1193.886588,13862.637145,7735.504705,2757.209598
1193.886886,6280.310751,1378.604799,6356.899906
1193.887185,-3063.566220,-4518.760174,11335.195014
1193.887483,-4978.295107,-5208.062574,11028.838392
1193.887782,-11258.605858,-9190.698660,13096.745590
1193.888080,-13020.156435,-10339.535992,15700.776877
1193.888379,-9726.822748,-8884.342038,15853.955188
1193.888677,-3063.566220,-2067.907198,10799.070925
1193.888991,4671.938485,2297.674665,9880.001059
1193.889286,6433.489062,2297.674665,10569.303459
1193.889581,8960.931193,3369.922842,9650.233593
1193.889876,13096.745590,4442.171019,6280.310751
1193.890171,10109.768526,2604.031287,4135.814397
1193.890466,3752.868619,-1302.015643,7275.969772
1193.890761,-6663.256528,-7965.272172,12254.264880
1193.891056,-11105.427547,-10186.357681,14628.528700
1193.891369,-10339.535992,-7352.558928,13403.102212
1193.891667,-9726.822748,-4901.705952,14781.707011
1193.891966,-7199.380617,-4365.581863,13939.226301
1193.892264,306.356622,765.891555,12713.799813
1193.892563,8807.752882,5131.473418,10569.303459
1193.892861,13709.458834,7122.791461,6280.310751
1193.893160,12637.210657,6510.078217,8960.931193
1193.893458,11871.319102,3982.636086,6356.899906
1193.893781,8654.574571,5284.651729,5591.008351
1193.894078,-1302.015643,1225.426488,8501.396260
1193.894376,-10799.070925,-3599.690308,10569.303459
1193.894673,-19070.699719,-6280.310751,15930.544344
1193.894971,-17768.684076,-4059.225241,14475.350389
1193.895268,-13173.334746,-2527.442131,14168.993767
1193.895565,-7352.558928,-76.589155,15930.544344
1193.895863,4518.760174,4135.814397,10416.125148
1193.896170,14551.939545,4825.116796,7122.791461
1193.896467,17538.916609,6203.721595,5054.884263
1193.896764,12024.497413,-536.124088,8654.574571
1193.897060,5667.597507,-3599.690308,9343.876971
1193.897357,3140.155375,-2680.620442,5973.954129
1193.897654,-3216.744531,-4518.760174,9267.287815
1193.897951,-13479.691368,-8424.807105,13249.923901
1193.898248,-16696.435899,-5820.775818,14781.707011
1193.898562,-12407.443191,-2067.907198,13096.745590
1193.898865,-9190.698660,-995.659021,13020.156435
1193.899168,-2604.031287,1378.604799,15164.652789
1193.899470,5514.419196,3063.566220,12637.210657
1193.899773,15624.187722,5131.473418,8118.450483
1193.900076,18457.986475,5131.473418,5667.597507
1193.900379,16083.722655,2450.852976,6433.489062
1193.900681,11641.551636,1225.426488,6816.434839
1193.901000,4748.527641,-995.659021,6280.310751
1193.901296,-5437.830040,-5667.597507,9650.233593
1193.901592,-17002.792521,-10492.714303,12943.567279
1193.901888,-21062.017762,-9497.055282,16236.900966
1193.902184,-14092.404612,-6893.023995,13709.458834
1193.902480,-7658.915550,-1914.728887,10722.481770
1193.902776,-2374.263820,-689.302399,14322.172078
1193.903072,1991.318043,-1302.015643,14015.815456
1193.903344,12024.497413,4825.116796,8884.342038
1193.903646,19760.002119,9573.644437,3599.690308
1193.903948,14015.815456,3829.457775,3829.457775
1193.904250,4901.705952,-536.124088,8654.574571
1193.904551,612.713244,-1761.550576,9343.876971
1193.904853,-2757.209598,-2527.442131,9114.109504
1193.905155,-9037.520349,-4059.225241,10186.357681
1193.905457,-16696.435899,-9037.520349,15011.474478
1193.905780,-16007.133499,-8271.628794,17692.094920
1193.906074,-8731.163727,-382.945777,14781.707011
1193.906368,-3216.744531,3063.566220,12790.388968
1193.906662,2374.263820,4288.992708,12790.388968
1193.906956,11028.838392,8501.396260,9267.287815
1193.907250,18151.629853,11488.373325,4901.705952
1193.907544,14398.761234,7429.148083,4288.992708
1193.907838,5973.954129,1072.248177,9420.466126
1193.908169,-229.767466,-3446.511997,10416.125148
1193.908466,-1302.015643,-6127.132440,7658.915550
1193.908763,-10339.535992,-7658.915550,12101.086569
1193.909059,-14475.350389,-10492.714303,15088.063633
1193.909356,-11947.908258,-8118.450483,15241.241944
1193.909653,-1302.015643,-1914.728887,11488.373325
1193.909950,4901.705952,3369.922842,10492.714303
1193.910247,5361.240885,3369.922842,10875.660081
1193.910555,9497.055282,5437.830040,8195.039638
1193.910855,12177.675724,6663.256528,6816.434839
1193.911155,9420.466126,4595.349330,4901.705952
1193.911454,3140.155375,2297.674665,9037.520349
1193.911754,-4595.349330,-1302.015643,10722.481770
1193.912054,-10186.357681,-2221.085509,10569.303459
1193.912354,-16466.668432,-5208.062574,13862.637145
1193.912654,-17155.970832,-5054.884263,15547.598566
1193.912937,-11871.319102,-5208.062574,13862.637145
1193.913240,-1148.837332,-1914.728887,12407.443191
1193.913543,6893.023995,459.534933,9880.001059
1193.913846,11641.551636,919.069866,7429.148083
1193.914149,15471.009411,612.713244,7505.737239
1193.914451,14245.582923,-536.124088,6356.899906
1193.914754,9420.466126,306.356622,6510.078217
1193.915057,-1455.193954,-3599.690308,9267.287815
1193.915372,-10339.535992,-7658.915550,11258.605858
1193.915672,-15853.955188,-8424.807105,13096.745590
1193.915971,-13939.226301,-5514.419196,12943.567279
1193.916271,-14245.582923,-6586.667373,13709.458834
1193.916571,-5131.473418,-4212.403552,14628.528700
1193.916871,5820.775818,153.178311,12790.388968
1193.917171,16773.025054,4595.349330,8654.574571
1193.917471,21138.606918,10722.481770,5131.473418
1193.917794,16543.257588,8501.396260,7122.791461
1193.918085,8195.039638,5131.473418,7505.737239
1193.918377,153.178311,4442.171019,9573.644437
1193.918668,-8271.628794,-76.589155,11258.605858
1193.918960,-13786.047990,-5973.954129,10109.768526
1193.919251,-18228.219009,-9190.698660,15547.598566
1193.919542,-13326.513057,-8731.163727,13479.691368
1193.919834,-6203.721595,-5054.884263,12713.799813
1193.920143,153.178311,-689.302399,14705.117856
1193.920441,8654.574571,3829.457775,9650.233593
1193.920740,12484.032346,8348.217949,6203.721595
1193.921038,13862.637145,8807.752882,6280.310751
1193.921337,8501.396260,3676.279464,7965.272172
1193.921636,4212.403552,1378.604799,8654.574571
1193.921934,612.713244,-995.659021,9190.698660
1193.922233,-3829.457775,-4901.705952,10262.946837
1193.922573,-12713.799813,-9190.698660,12560.621502
1193.922868,-16696.435899,-10033.179370,14322.172078
1193.923163,-14781.707011,-7812.093861,13632.869679
1193.923458,-9573.644437,-1761.550576,12790.388968
1193.923753,-536.124088,153.178311,12484.032346
1193.924048,6127.132440,2910.387909,10722.481770
1193.924343,13709.458834,7429.148083,7199.380617
1193.924638,15011.474478,5284.651729,6969.613150
1193.924900,9803.411904,3523.101153,7658.915550
1193.925204,6127.132440,1378.604799,9650.233593
1193.925509,1225.426488,-1761.550576,10262.946837
1193.925813,-4135.814397,-4671.938485,9803.411904
1193.926118,-9190.698660,-6127.132440,10722.481770
1193.926422,-8424.807105,-8731.163727,11718.140791
1193.926727,-9343.876971,-7352.558928,12407.443191
1193.927031,-4978.295107,-5820.775818,11641.551636
1193.927326,-2221.085509,-3752.868619,13326.513057
1193.927626,2374.263820,-1455.193954,12254.264880
1193.927926,9956.590215,4825.116796,9650.233593
1193.928227,11488.373325,6663.256528,6356.899906
1193.928527,9650.233593,8807.752882,5591.008351
1193.928827,3293.333686,5591.008351,10416.125148
1193.929127,-995.659021,1531.783110,11028.838392
1193.929427,-4288.992708,-229.767466,10033.179370
1193.929727,-9190.698660,-2067.907198,10645.892614
1193.930026,-12254.264880,-6127.132440,13249.923901
1193.930325,-11947.908258,-5973.954129,14628.528700
1193.930624,-5744.186662,-1455.193954,13020.156435
1193.930923,2374.263820,-76.589155,11488.373325
1193.931222,5820.775818,1684.961421,9803.411904
1193.931521,9420.466126,2604.031287,8884.342038
1193.931820,10875.660081,2910.387909,6663.256528
1193.932119,7582.326394,4135.814397,8424.807105
1193.932419,4059.225241,612.713244,9037.520349
1193.932719,-1608.372265,-3446.511997,8501.396260
1193.933019,-9343.876971,-5054.884263,12790.388968
1193.933319,-11718.140791,-7199.380617,12866.978124
1193.933619,-14475.350389,-8731.163727,14168.993767
1193.933919,-6816.434839,-5514.419196,13096.745590
1193.934219,4212.403552,-76.589155,10722.481770
1193.934527,13249.923901,2450.852976,9114.109504
1193.934826,16773.025054,6203.721595,6280.310751
1193.935124,14705.117856,6050.543284,7275.969772
1193.935423,7046.202306,3523.101153,8731.163727
1193.935722,-689.302399,612.713244,10109.768526
1193.936021,-6050.543284,-1608.372265,12407.443191
1193.936320,-13020.156435,-3293.333686,10569.303459
1193.936619,-15241.241944,-3446.511997,12866.978124
1193.936935,-13479.691368,-6433.489062,13556.280523
1193.937233,-8271.628794,-4518.760174,11564.962480
1193.937531,-0.000000,-2986.977064,11947.908258
1193.937829,6586.667373,-1608.372265,9880.001059
1193.938126,9956.590215,-76.589155,9573.644437
1193.938424,14858.296167,2910.387909,6280.310751
1193.938722,12637.210657,2910.387909,6356.899906
1193.939019,7122.791461,2450.852976,7965.272172
1193.939334,2833.798753,1072.248177,8501.396260
1193.939632,-6203.721595,-995.659021,12637.210657
1193.939931,-9497.055282,-4212.403552,12330.854035
1193.940230,-13020.156435,-5973.954129,13173.334746
1193.940528,-13479.691368,-7352.558928,13862.637145
1193.940827,-9190.698660,-5514.419196,12790.388968
1193.941126,-4442.171019,-3446.511997,13403.102212
1193.941424,5208.062574,1684.961421,9956.590215
1193.941713,10416.125148,6203.721595,8577.985416
1193.942015,11488.373325,9114.109504,8501.396260
1193.942318,9114.109504,6663.256528,8118.450483
1193.942620,2680.620442,6203.721595,9803.411904
1193.942922,1378.604799,4595.349330,10569.303459
1193.943225,-3676.279464,-2374.263820,9803.411904
1193.943527,-6663.256528,-4212.403552,12560.621502
1193.943830,-7122.791461,-8577.985416,12560.621502
1193.944129,-5591.008351,-8271.628794,11182.016703
1193.944429,-1148.837332,-5820.775818,11947.908258
1193.944728,612.713244,-4671.938485,12484.032346
1193.945027,5514.419196,306.356622,7735.504705
1193.945326,7429.148083,6663.256528,7888.683016
1193.945626,6280.310751,6969.613150,8348.217949
1193.945925,3140.155375,6356.899906,9267.287815
1193.946224,1225.426488,5131.473418,10339.535992
1193.946531,-1455.193954,1838.139732,9726.822748
1193.946831,-4288.992708,-1148.837332,11488.373325
1193.947130,-8271.628794,-4365.581863,13556.280523
1193.947429,-8577.985416,-5667.597507,12407.443191
1193.947728,-7505.737239,-5667.597507,11718.140791
1193.948027,-4748.527641,-4671.938485,12484.032346
1193.948327,1072.248177,-3446.511997,11028.838392
1193.948626,5514.419196,-76.589155,9114.109504
1193.948976,8195.039638,1378.604799,8195.039638
1193.949269,7582.326394,-689.302399,6280.310751
1193.949563,6127.132440,-1608.372265,8424.807105
1193.949857,-382.945777,-3599.690308,10416.125148
1193.950150,-2067.907198,-4671.938485,9880.001059
1193.950444,-8271.628794,-5973.954129,12101.086569
1193.950738,-6969.613150,-5514.419196,13403.102212
1193.951031,-4748.527641,-5973.954129,12560.621502
1193.951350,-995.659021,-1914.728887,11182.016703
1193.951644,6739.845684,2757.209598,9267.287815
1193.951937,6893.023995,-1148.837332,7888.683016
1193.952231,6893.023995,1225.426488,10262.946837
1193.952524,7888.683016,2604.031287,9267.287815
1193.952818,4671.938485,3829.457775,5897.364973
1193.953112,-0.000000,2144.496354,9573.644437
1193.953405,-7658.915550,-1455.193954,14168.993767
1193.953722,-7505.737239,-1302.015643,12866.978124
1193.954021,-7122.791461,1531.783110,12177.675724
1193.954320,-6969.613150,306.356622,11794.729947
1193.954618,-9190.698660,-4825.116796,12637.210657
1193.954917,-3982.636086,-1302.015643,14322.172078
1193.955215,4671.938485,1378.604799,8654.574571
1193.955514,7582.326394,2450.852976,8424.807105
1193.955812,6586.667373,1072.248177,9803.411904
1193.956112,7122.791461,1684.961421,8807.752882
1193.956413,6433.489062,3216.744531,8884.342038
1193.956714,4212.403552,3369.922842,8501.396260
1193.957015,-0.000000,-536.124088,10722.481770
1193.957315,-6050.543284,-2527.442131,12101.086569
1193.957616,-4595.349330,-2986.977064,12866.978124
1193.957917,-8424.807105,-4518.760174,13096.745590
1193.958218,-7352.558928,-3599.690308,13556.280523
1193.958525,-3523.101153,-2833.798753,12254.264880
1193.958822,1991.318043,765.891555,9956.590215
1193.959119,5973.954129,4748.527641,7582.326394
1193.959416,4901.705952,4442.171019,8577.985416
1193.959713,-0.000000,-0.000000,8654.574571
1193.960010,2144.496354,765.891555,9190.698660
1193.960307,1684.961421,-1608.372265,9650.233593
1193.960603,-1608.372265,-6433.489062,9573.644437
1193.960911,-2374.263820,-5208.062574,11794.729947
1193.961210,-2067.907198,-5973.954129,12330.854035
1193.961509,-536.124088,-3906.046930,10339.535992
1193.961808,1684.961421,-3446.511997,10339.535992
1193.962107,1684.961421,-2986.977064,11258.605858
1193.962406,2527.442131,-2680.620442,9497.055282
1193.962705,4518.760174,459.534933,7582.326394
1193.963004,3599.690308,1225.426488,9267.287815
1193.963320,2527.442131,-536.124088,8577.985416
1193.963619,1225.426488,1072.248177,9726.822748
1193.963917,-842.480710,1531.783110,10569.303459
1193.964216,-4595.349330,919.069866,12330.854035
1193.964514,-10033.179370,-536.124088,13709.458834
1193.964812,-8884.342038,1531.783110,13326.513057
1193.965111,-6050.543284,-536.124088,11641.551636
1193.965409,-3369.922842,-76.589155,13249.923901
1193.965726,612.713244,-1608.372265,11028.838392
1193.966024,4518.760174,-1148.837332,8501.396260
1193.966322,9420.466126,1072.248177,6280.310751
1193.966620,5514.419196,-1455.193954,7352.558928
1193.966918,459.534933,-1302.015643,10186.357681
1193.967215,-3676.279464,-1914.728887,10109.768526
1193.967513,-5284.651729,-842.480710,11028.838392
1193.967811,-4595.349330,612.713244,12484.032346
1193.968111,-5131.473418,-76.589155,12330.854035
1193.968411,459.534933,-689.302399,11105.427547
1193.968711,4671.938485,2297.674665,11641.551636
1193.969011,8348.217949,1225.426488,12407.443191
1193.969311,8348.217949,-689.302399,9726.822748
1193.969611,7735.504705,3216.744531,7965.272172
1193.969911,6739.845684,2604.031287,6586.667373
1193.970211,-1455.193954,1225.426488,8807.752882
1193.970502,-7965.272172,612.713244,10722.481770
1193.970800,-8884.342038,-1302.015643,10569.303459
1193.971099,-7505.737239,-689.302399,10262.946837
1193.971398,-7658.915550,-4059.225241,13403.102212
1193.971696,-4748.527641,-4901.705952,12790.388968
1193.971995,-2067.907198,-4059.225241,11641.551636
1193.972294,4212.403552,-3599.690308,11411.784169
1193.972593,8348.217949,-2986.977064,9650.233593
1193.972900,7046.202306,-2374.263820,9956.590215
1193.973204,7888.683016,-536.124088,7275.969772
1193.973509,5514.419196,765.891555,6127.132440
1193.973813,3599.690308,1072.248177,7505.737239
1193.974118,-2221.085509,-1148.837332,9190.698660
1193.974423,-9343.876971,-2986.977064,11411.784169
1193.974727,-11411.784169,-2986.977064,14628.528700
1193.975032,-11564.962480,-3446.511997,13096.745590
1193.975320,-6356.899906,-3446.511997,14322.172078
1193.975618,-1608.372265,-1914.728887,12407.443191
1193.975915,5667.597507,153.178311,9956.590215
1193.976213,6893.023995,-0.000000,10569.303459
1193.976510,7275.969772,-0.000000,9420.466126
1193.976808,8195.039638,2144.496354,8807.752882
1193.977105,7582.326394,459.534933,5208.062574
1193.977402,1991.318043,-1455.193954,7582.326394
1193.977697,-5284.651729,-3752.868619,12101.086569
1193.977998,-7658.915550,-4518.760174,11028.838392
1193.978299,-8424.807105,-2527.442131,12790.388968
1193.978600,-8884.342038,-4059.225241,13173.334746
1193.978901,-6050.543284,-1914.728887,14705.117856
1193.979202,306.356622,3063.566220,13249.923901
1193.979502,10262.946837,8041.861327,8577.985416
1193.979803,13249.923901,7122.791461,8348.217949
1193.980091,13249.923901,8348.217949,8577.985416
1193.980391,10722.481770,5744.186662,6356.899906
1193.980692,4671.938485,4978.295107,5820.775818
1193.980992,-1148.837332,919.069866,8195.039638
1193.981292,-12407.443191,-5514.419196,13403.102212
1193.981592,-15700.776877,-6893.023995,14781.707011
1193.981892,-16619.846743,-5514.419196,13249.923901
1193.982192,-13020.156435,-4671.938485,13403.102212
1193.982501,-9573.644437,-3293.333686,16236.900966
1193.982800,-0.000000,-536.124088,13862.637145
1193.983100,13096.745590,4288.992708,7965.272172
1193.983399,19147.288875,5897.364973,4442.171019
1193.983699,16926.203365,2910.387909,6280.310751
1193.983998,12177.675724,-536.124088,6280.310751
1193.984297,3752.868619,-382.945777,7122.791461
1193.984597,-6510.078217,-5667.597507,10875.660081
1193.984904,-14322.172078,-10645.892614,13096.745590
1193.985204,-18994.110564,-10186.357681,17002.792521
1193.985503,-13939.226301,-4671.938485,13556.280523
1193.985803,-7352.558928,-2067.907198,11411.784169
1193.986102,-1608.372265,459.534933,14705.117856
1193.986402,8807.752882,2297.674665,11794.729947
1193.986702,16083.722655,4748.527641,6586.667373
1193.987001,20066.358741,6356.899906,4135.814397
1193.987298,15011.474478,1225.426488,5591.008351
1193.987598,6893.023995,-2986.977064,7735.504705
1193.987897,919.069866,-3140.155375,9114.109504
1193.988197,-7199.380617,-4212.403552,9114.109504
1193.988496,-16619.846743,-9037.520349,12254.264880
1193.988796,-21598.141851,-9190.698660,17155.970832
1193.989095,-17002.792521,-5514.419196,15853.955188
1193.989395,-7965.272172,612.713244,12713.799813
1193.989722,2297.674665,3676.279464,11335.195014
1193.990017,8654.574571,2450.852976,11488.373325
1193.990312,18917.521408,6203.721595,8348.217949
1193.990606,21368.374384,9420.466126,5054.884263
1193.990901,15624.187722,4825.116796,3523.101153
1193.991196,3906.046930,1072.248177,8807.752882
1193.991490,-7122.791461,-2221.085509,11641.551636
1193.991785,-11411.784169,-3140.155375,10416.125148
1193.992096,-18687.753942,-4365.581863,13403.102212
1193.992396,-21368.374384,-7812.093861,16390.079277
1193.992696,-15853.955188,-5973.954129,15930.544344
1193.992996,-4442.171019,-76.589155,12943.567279
1193.993296,6893.023995,2604.031287,11335.195014
1193.993596,11641.551636,2297.674665,10262.946837
1193.993896,16236.900966,4288.992708,7122.791461
1193.994196,17232.559987,3063.566220,5667.597507
1193.994496,11028.838392,-229.767466,5361.240885
1193.994796,4748.527641,-1608.372265,8654.574571
1193.995096,-2604.031287,-5208.062574,9803.411904
1193.995396,-8118.450483,-6280.310751,10799.070925
1193.995696,-11718.140791,-4825.116796,13709.458834
1193.995996,-13632.869679,-4671.938485,13173.334746
1193.996296,-11871.319102,-3140.155375,13709.458834
1193.996596,-7812.093861,-382.945777,14628.528700
1193.996903,1531.783110,2297.674665,12024.497413
1193.997199,9497.055282,4288.992708,7965.272172
1193.997495,14245.582923,5131.473418,7199.380617
1193.997791,17232.559987,4135.814397,4059.225241
1193.998087,11488.373325,1378.604799,4748.527641
1193.998383,5667.597507,-2221.085509,8195.039638
1193.998679,-4978.295107,-6280.310751,10722.481770
1193.998974,-12407.443191,-7505.737239,12560.621502
1193.999295,-18534.575631,-9190.698660,13556.280523
1193.999592,-18534.575631,-9497.055282,15088.063633
1193.999889,-10492.714303,-5820.775818,15547.598566
1194.000186,-689.302399,919.069866,11718.140791
1194.000483,10569.303459,3523.101153,7888.683016
1194.000780,12943.567279,4135.814397,9880.001059
1194.001077,17079.381676,6816.434839,8654.574571
1194.001374,14858.296167,7429.148083,5208.062574
1194.001693,7582.326394,5591.008351,6280.310751
1194.001991,-3982.636086,-842.480710,10722.481770
1194.002289,-14245.582923,-5054.884263,14168.993767
1194.002587,-14628.528700,-2833.798753,12713.799813
1194.002886,-15241.241944,-4059.225241,12177.675724
1194.003184,-14628.528700,-8118.450483,15317.831100
1194.003482,-7352.558928,-4671.938485,16390.079277
1194.003780,7429.148083,1684.961421,11794.729947
1194.004093,15777.366033,4595.349330,5667.597507
1194.004392,18994.110564,5131.473418,6739.845684
1194.004690,15011.474478,1684.961421,8960.931193
1194.004989,10569.303459,2297.674665,5591.008351
1194.005287,6127.132440,3063.566220,7429.148083
1194.005586,-3982.636086,-3140.155375,8731.163727
1194.005884,-14322.172078,-8884.342038,13326.513057
1194.006183,-17921.862387,-7812.093861,16160.311810
1194.006482,-12713.799813,-5820.775818,12713.799813
1194.006782,-9343.876971,-1302.015643,12790.388968
1194.007082,-3216.744531,1531.783110,12943.567279
1194.007382,3140.155375,3216.744531,10875.660081
1194.007682,10722.481770,8041.861327,9573.644437
1194.007982,13862.637145,7888.683016,6127.132440
1194.008282,10569.303459,4288.992708,6739.845684
1194.008582,6280.310751,919.069866,8960.931193
1194.008890,1072.248177,-3599.690308,8960.931193
1194.009186,-4595.349330,-7658.915550,9573.644437
1194.009483,-9573.644437,-8271.628794,11641.551636
1194.009780,-14322.172078,-11258.605858,14475.350389
1194.010077,-14322.172078,-10799.070925,13556.280523
1194.010374,-6969.613150,-4212.403552,12407.443191
1194.010671,-842.480710,459.534933,12560.621502
1194.010967,7429.148083,2604.031287,9343.876971
1194.011282,10722.481770,5744.186662,9497.055282
1194.011582,13403.102212,6510.078217,6586.667373
1194.011882,12330.854035,3829.457775,6433.489062
1194.012183,5361.240885,919.069866,9573.644437
1194.012483,-1608.372265,-3140.155375,11028.838392
1194.012783,-6356.899906,-4901.705952,11258.605858
1194.013084,-9880.001059,-3752.868619,12484.032346
1194.013384,-7812.093861,-3906.046930,11411.784169
1194.013731,-6510.078217,-3293.333686,10416.125148
1194.014024,-2604.031287,919.069866,10875.660081
1194.014317,-995.659021,-689.302399,12713.799813
1194.014610,3446.511997,2144.496354,11641.551636
1194.014902,8348.217949,4442.171019,9267.287815
1194.015195,11641.551636,6050.543284,4595.349330
1194.015488,7582.326394,2757.209598,7812.093861
1194.015781,-842.480710,-229.767466,12101.086569
1194.016046,-3829.457775,-1914.728887,10416.125148
1194.016361,-7658.915550,-2680.620442,11182.016703
1194.016676,-11258.605858,-4518.760174,12790.388968
1194.016991,-13020.156435,-7199.380617,13403.102212
1194.017306,-7352.558928,-842.480710,13096.745590
1194.017621,2374.263820,4442.171019,10033.179370
1194.017935,6433.489062,4288.992708,8807.752882
1194.018250,7735.504705,4978.295107,10492.714303
1194.018488,9114.109504,7429.148083,9956.590215
1194.018784,10416.125148,3829.457775,7275.969772
1194.019081,5208.062574,2450.852976,8807.752882
1194.019377,-2374.263820,-4901.705952,9803.411904
1194.019673,-8731.163727,-9880.001059,12790.388968
1194.019969,-10952.249236,-9343.876971,12943.567279
1194.020265,-8731.163727,-7199.380617,12330.854035
1194.020561,-6663.256528,-6739.845684,10569.303459
1194.020892,-2067.907198,-4365.581863,12943.567279
1194.021189,3752.868619,-1455.193954,12101.086569
1194.021486,8807.752882,1531.783110,8195.039638
1194.021783,9956.590215,6510.078217,8960.931193
1194.022080,9114.109504,5437.830040,8501.396260
1194.022377,6127.132440,4288.992708,7888.683016
1194.022674,2144.496354,3982.636086,9497.055282
1194.022971,-4288.992708,-2986.977064,11028.838392
1194.023279,-11411.784169,-6739.845684,12790.388968
1194.023578,-10645.892614,-2986.977064,14015.815456
1194.023878,-6816.434839,-3906.046930,9573.644437
1194.024178,-3829.457775,-3752.868619,10875.660081
1194.024478,-536.124088,-3140.155375,13403.102212
1194.024777,4748.527641,-1761.550576,9803.411904
1194.025077,8807.752882,2297.674665,9267.287815
1194.025377,9420.466126,4288.992708,6893.023995
1194.025661,7046.202306,2144.496354,7429.148083
1194.025964,4365.581863,2757.209598,9573.644437
1194.026266,919.069866,2604.031287,9573.644437
1194.026569,-7122.791461,-3140.155375,11641.551636
1194.026872,-10952.249236,-3752.868619,12866.978124
1194.027175,-10186.357681,-2680.620442,13096.745590
1194.027478,-8118.450483,-1761.550576,10262.946837
1194.027781,-5591.008351,153.178311,13249.923901
1194.028095,-2910.387909,1531.783110,11871.319102
1194.028393,2833.798753,4595.349330,9803.411904
1194.028691,5514.419196,4825.116796,10109.768526
1194.028988,6893.023995,3216.744531,8348.217949
1194.029286,5054.884263,612.713244,9343.876971
1194.029584,4518.760174,1225.426488,9573.644437
1194.029881,3446.511997,-3140.155375,9420.466126
1194.030179,-995.659021,-7046.202306,9573.644437
1194.030455,-5131.473418,-8731.163727,12177.675724
1194.030758,-6050.543284,-9037.520349,12330.854035
1194.031060,-1761.550576,-3293.333686,11028.838392
1194.031363,-1608.372265,306.356622,10492.714303
1194.031665,-995.659021,153.178311,10569.303459
1194.031968,1378.604799,1838.139732,12790.388968
1194.032270,8960.931193,8501.396260,8501.396260
1194.032573,10875.660081,9267.287815,6663.256528
1194.032859,3599.690308,5897.364973,7735.504705
1194.033160,-1608.372265,459.534933,9956.590215
1194.033462,-7199.380617,-5054.884263,12790.388968
1194.033764,-10492.714303,-6127.132440,13403.102212
1194.034066,-10033.179370,-6127.132440,13556.280523
1194.034368,-8884.342038,-7199.380617,12101.086569
1194.034669,-2450.852976,-4059.225241,10875.660081
1194.034971,2297.674665,-1608.372265,10416.125148
1194.035278,3293.333686,-689.302399,10416.125148
1194.035575,6893.023995,1531.783110,8807.752882
1194.035871,7429.148083,3676.279464,7888.683016
1194.036168,4748.527641,2910.387909,8271.628794
1194.036464,612.713244,1378.604799,10109.768526
1194.036761,-2604.031287,765.891555,10875.660081
1194.037057,-1455.193954,-2067.907198,9803.411904
1194.037354,-6969.613150,-4212.403552,13249.923901
1194.037650,-6816.434839,-3906.046930,12943.567279
1194.037950,-3523.101153,-1914.728887,11411.784169
1194.038249,-229.767466,1991.318043,10033.179370
1194.038549,1531.783110,1072.248177,10109.768526
1194.038848,2297.674665,2604.031287,12407.443191
1194.039148,9114.109504,6816.434839,8960.931193
1194.039448,12790.388968,7429.148083,6127.132440
1194.039747,9650.233593,4288.992708,4671.938485
1194.040075,2680.620442,-2221.085509,10875.660081
1194.040374,-5744.186662,-6739.845684,12560.621502
1194.040674,-9343.876971,-8731.163727,12407.443191
1194.040973,-11105.427547,-7505.737239,13862.637145
1194.041273,-10339.535992,-6127.132440,12254.264880
1194.041572,-6510.078217,-2374.263820,13326.513057
1194.041872,612.713244,2450.852976,11258.605858
1194.042171,7582.326394,6203.721595,8195.039638
1194.042459,7429.148083,7429.148083,9267.287815
1194.042760,5361.240885,5897.364973,9420.466126
1194.043061,4671.938485,2604.031287,9037.520349
1194.043362,1531.783110,1072.248177,9267.287815
1194.043663,-3369.922842,-1761.550576,10262.946837
1194.043963,-7122.791461,-7658.915550,10875.660081
1194.044264,-8884.342038,-7965.272172,12407.443191
1194.044565,-6816.434839,-8271.628794,13556.280523
1194.044874,-4135.814397,-6586.667373,11488.373325
1194.045169,306.356622,-3140.155375,11488.373325
1194.045465,4212.403552,-995.659021,8884.342038
1194.045760,6893.023995,-0.000000,8960.931193
1194.046056,3599.690308,459.534933,10645.892614
1194.046351,4059.225241,1225.426488,8654.574571
1194.046646,2374.263820,1684.961421,8041.861327
1194.046942,1531.783110,1991.318043,8577.985416
1194.047249,-689.302399,-3140.155375,9650.233593
1194.047548,-3829.457775,-2680.620442,12560.621502
1194.047847,-3063.566220,-689.302399,11335.195014
1194.048145,-4135.814397,-842.480710,11488.373325
1194.048444,-3063.566220,-995.659021,10952.249236
1194.048743,-2374.263820,153.178311,12943.567279
1194.049042,2297.674665,1684.961421,10799.070925
1194.049341,4365.581863,2144.496354,7888.683016
1194.049657,4212.403552,306.356622,9497.055282
1194.049955,6586.667373,306.356622,7888.683016
1194.050253,4365.581863,459.534933,8807.752882
1194.050550,2680.620442,153.178311,8654.574571
1194.050848,-4748.527641,-4671.938485,12101.086569
1194.051146,-8577.985416,-1608.372265,12407.443191
1194.051444,-8424.807105,-842.480710,12024.497413
1194.051741,-7122.791461,-1761.550576,10875.660081
1194.052056,-4442.171019,-76.589155,12713.799813
1194.052354,-1608.372265,-0.000000,14781.707011
1194.052653,2986.977064,1072.248177,10645.892614
1194.052952,6739.845684,4825.116796,9803.411904
1194.053251,7888.683016,4825.116796,8424.807105
1194.053549,4518.760174,1072.248177,6969.613150
1194.053848,306.356622,1225.426488,10109.768526
1194.054147,-3369.922842,-1914.728887,9573.644437
1194.054482,-5437.830040,-4671.938485,9650.233593
1194.054777,-10339.535992,-7352.558928,13709.458834
1194.055073,-8884.342038,-8118.450483,14092.404612
1194.055369,-3829.457775,-6280.310751,12101.086569
1194.055665,2297.674665,-1302.015643,11028.838392
1194.055960,7888.683016,612.713244,10569.303459
1194.056256,9650.233593,1531.783110,9420.466126
1194.056552,12790.388968,8195.039638,6969.613150
1194.056852,11335.195014,7122.791461,7429.148083
1194.057151,6433.489062,4978.295107,7275.969772
1194.057450,2527.442131,3523.101153,5667.597507
1194.057749,-6510.078217,-1608.372265,9803.411904
1194.058049,-13173.334746,-6893.023995,12943.567279
1194.058348,-18075.040698,-9880.001059,16236.900966
1194.058647,-10799.070925,-5514.419196,12943.567279
1194.058946,-3676.279464,-2527.442131,11028.838392
1194.059253,1378.604799,-229.767466,12101.086569
1194.059552,6739.845684,1072.248177,10109.768526
1194.059852,10262.946837,4288.992708,10109.768526
1194.060151,13403.102212,5284.651729,5514.419196
1194.060450,10262.946837,3676.279464,5208.062574
1194.060750,2527.442131,-995.659021,9650.233593
1194.061049,-4595.349330,-3752.868619,10875.660081
1194.061348,-7352.558928,-5667.597507,11641.551636
1194.061652,-10799.070925,-6127.132440,11947.908258
1194.061952,-14475.350389,-7812.093861,15394.420255
1194.062252,-12101.086569,-5667.597507,15241.241944
1194.062553,-2910.387909,306.356622,12637.210657
1194.062853,4901.705952,3216.744531,10109.768526
1194.063153,8501.396260,4288.992708,8424.807105
1194.063454,12330.854035,7429.148083,8960.931193
1194.063754,11794.729947,6663.256528,6280.310751
1194.064073,7888.683016,3676.279464,6280.310751
1194.064371,-1302.015643,-1761.550576,10109.768526
1194.064669,-4978.295107,-5514.419196,11028.838392
1194.064967,-9880.001059,-9726.822748,13403.102212
1194.065265,-8118.450483,-4901.705952,10952.249236
1194.065564,-4978.295107,-6433.489062,12101.086569
1194.065862,-5744.186662,-6127.132440,13403.102212
1194.066160,612.713244,-382.945777,12943.567279
1194.066473,5514.419196,2450.852976,11028.838392
1194.066769,11335.195014,7735.504705,6969.613150
1194.067065,12177.675724,8041.861327,6969.613150
1194.067361,8807.752882,5437.830040,8577.985416
1194.067657,4518.760174,4748.527641,8041.861327
1194.067953,-1455.193954,1838.139732,10109.768526
1194.068249,-7199.380617,-3752.868619,10416.125148
1194.068545,-15700.776877,-7199.380617,13862.637145
1194.068845,-15394.420255,-8118.450483,13862.637145
1194.069142,-12407.443191,-8731.163727,14628.528700
1194.069440,-3829.457775,-4671.938485,13709.458834
1194.069737,3752.868619,-0.000000,9573.644437
1194.070034,9114.109504,-995.659021,9956.590215
1194.070332,11488.373325,1838.139732,9573.644437
1194.070629,14705.117856,4748.527641,7429.148083
1194.070927,11641.551636,3523.101153,5208.062574
1194.071234,3599.690308,1838.139732,7505.737239
1194.071535,-5284.651729,-3293.333686,11718.140791
1194.071837,-13020.156435,-5667.597507,12407.443191
1194.072139,-17155.970832,-4901.705952,14705.117856
1194.072440,-16466.668432,-4365.581863,13403.102212
1194.072742,-10645.892614,-2833.798753,12943.567279
1194.073044,-3369.922842,-76.589155,12943.567279
1194.073345,6893.023995,3676.279464,10722.481770
1194.073626,14398.761234,4288.992708,8118.450483
1194.073931,19913.180430,7122.791461,6127.132440
1194.074236,18304.808164,4288.992708,6050.543284
1194.074541,11182.016703,1378.604799,7275.969772
1194.074846,2374.263820,-229.767466,8807.752882
1194.075152,-5591.008351,-4518.760174,9573.644437
1194.075457,-14934.885322,-6739.845684,11105.427547
1194.075762,-18381.397320,-7965.272172,15088.063633
1194.076035,-14092.404612,-7352.558928,13403.102212
1194.076334,-6816.434839,-1914.728887,12407.443191
1194.076633,2527.442131,1378.604799,11028.838392
1194.076933,5514.419196,1531.783110,11641.551636
1194.077232,10109.768526,4825.116796,11641.551636
1194.077531,14168.993767,9956.590215,6739.845684
1194.077830,12790.388968,7122.791461,5361.240885
1194.078129,2986.977064,2144.496354,8654.574571
1194.078447,-4978.295107,-1455.193954,11947.908258
1194.078745,-9497.055282,-4671.938485,10952.249236
1194.079042,-13173.334746,-8118.450483,11794.729947
1194.079340,-15853.955188,-11411.784169,14705.117856
1194.079638,-14092.404612,-12177.675724,14781.707011
1194.079936,-4978.295107,-6433.489062,13709.458834
1194.080233,2527.442131,459.534933,11641.551636
1194.080531,9267.287815,1684.961421,9343.876971
1194.080831,13709.458834,6510.078217,8195.039638
1194.081131,17232.559987,9650.233593,7275.969772
1194.081431,13249.923901,8960.931193,6203.721595
1194.081731,5973.954129,6663.256528,7429.148083
1194.082031,-3369.922842,1378.604799,9343.876971
1194.082331,-8731.163727,-4059.225241,13173.334746
1194.082631,-14245.582923,-6433.489062,14322.172078
1194.082931,-12254.264880,-6280.310751,12637.210657
1194.083261,-8424.807105,-4671.938485,11947.908258
1194.083558,-5744.186662,-3140.155375,12943.567279
1194.083855,2986.977064,-842.480710,11488.373325
1194.084152,7735.504705,2144.496354,9267.287815
1194.084449,13862.637145,4978.295107,6969.613150
1194.084746,14705.117856,2910.387909,5667.597507
1194.085043,11335.195014,3676.279464,7888.683016
1194.085340,4518.760174,2144.496354,8195.039638
1194.085648,153.178311,-1914.728887,7888.683016
1194.085948,-7658.915550,-3599.690308,12254.264880
1194.086248,-13632.869679,-6739.845684,12943.567279
1194.086547,-14475.350389,-6739.845684,14551.939545
1194.086847,-12866.978124,-3446.511997,13786.047990
1194.087147,-7122.791461,-1455.193954,12943.567279
1194.087447,-842.480710,-1455.193954,12790.388968
1194.087747,4671.938485,3216.744531,10722.481770
1194.088030,13096.745590,5131.473418,7505.737239
1194.088333,11028.838392,1225.426488,6663.256528
1194.088636,7275.969772,1225.426488,8501.396260
1194.088939,2986.977064,-1608.372265,9267.287815
1194.089242,-3523.101153,-6433.489062,9956.590215
1194.089544,-10033.179370,-9037.520349,12560.621502
1194.089847,-9190.698660,-7812.093861,12560.621502
1194.090150,-10492.714303,-6433.489062,12637.210657
1194.090465,-4288.992708,-1914.728887,12713.799813
1194.090759,-76.589155,1072.248177,11794.729947
1194.091053,5667.597507,4748.527641,11028.838392
1194.091347,11794.729947,7275.969772,8118.450483
1194.091641,12024.497413,10109.768526,7888.683016
1194.091935,12177.675724,9267.287815,6510.078217
1194.092230,6433.489062,6356.899906,7429.148083
1194.092524,153.178311,-229.767466,9880.001059
1194.092777,-8577.985416,-6280.310751,12254.264880
1194.093082,-13939.226301,-8424.807105,13249.923901
1194.093387,-11564.962480,-9343.876971,12254.264880
1194.093692,-10033.179370,-10339.535992,12713.799813
1194.093997,-3523.101153,-4671.938485,13632.869679
1194.094302,4212.403552,306.356622,11028.838392
1194.094607,11335.195014,6203.721595,8807.752882
1194.094912,13096.745590,7582.326394,7735.504705
1194.095245,12330.854035,6663.256528,8501.396260
1194.095543,7429.148083,5437.830040,7888.683016
1194.095840,919.069866,3063.566220,9267.287815
1194.096138,-8271.628794,-4212.403552,11488.373325
1194.096436,-15547.598566,-9037.520349,13709.458834
1194.096734,-15241.241944,-9650.233593,14628.528700
1194.097031,-12407.443191,-9497.055282,12101.086569
1194.097329,-6203.721595,-7046.202306,12407.443191
1194.097636,-229.767466,-2833.798753,11488.373325
1194.097933,6739.845684,-2374.263820,9803.411904
1194.098229,9803.411904,2450.852976,10109.768526
1194.098525,10875.660081,4595.349330,8041.861327
1194.098822,10569.303459,3523.101153,7429.148083
1194.099118,5361.240885,3676.279464,7888.683016
1194.099414,1378.604799,1225.426488,9956.590215
1194.099711,-5897.364973,-3446.511997,11641.551636
1194.100007,-7199.380617,-3599.690308,10569.303459
1194.100310,-6816.434839,-3140.155375,12024.497413
1194.100613,-4442.171019,-2680.620442,10722.481770
1194.100916,-5437.830040,-1761.550576,11794.729947
1194.101219,612.713244,-689.302399,12254.264880
1194.101522,5973.954129,2910.387909,8577.985416
1194.101825,6739.845684,3982.636086,9114.109504
1194.102127,11641.551636,4135.814397,7275.969772
1194.102422,6893.023995,153.178311,9037.520349
1194.102722,6127.132440,1378.604799,8884.342038
1194.103023,-2221.085509,-3752.868619,9573.644437
1194.103323,-9190.698660,-4365.581863,13709.458834
1194.103623,-9497.055282,-2680.620442,10569.303459
1194.103923,-9190.698660,-2986.977064,10875.660081
1194.104223,-7658.915550,-4518.760174,11258.605858
1194.104523,-5897.364973,-2374.263820,14475.350389
1194.104835,1838.139732,153.178311,12330.854035
1194.105132,7275.969772,4595.349330,8807.752882
1194.105430,8807.752882,4595.349330,8807.752882
1194.105727,7122.791461,306.356622,9267.287815
1194.106025,765.891555,459.534933,12560.621502
1194.106322,919.069866,919.069866,10339.535992
1194.106620,-3216.744531,-1302.015643,9267.287815
1194.106917,-6663.256528,-4825.116796,11258.605858
1194.107217,-9190.698660,-6586.667373,13632.869679
1194.107517,-8577.985416,-7812.093861,13096.745590
1194.107817,1072.248177,-2374.263820,10645.892614
1194.108117,5514.419196,1072.248177,7658.915550
1194.108417,7275.969772,306.356622,9420.466126
1194.108717,4748.527641,2910.387909,11641.551636
1194.109017,9650.233593,6050.543284,8884.342038
1194.109317,9114.109504,8807.752882,6816.434839
1194.109624,3599.690308,4978.295107,7888.683016
1194.109922,-2604.031287,612.713244,10875.660081
1194.110219,-8118.450483,-2374.263820,10952.249236
1194.110516,-9190.698660,-4825.116796,12101.086569
1194.110814,-8577.985416,-7658.915550,10569.303459
1194.111111,-7122.791461,-9190.698660,11794.729947
1194.111408,-76.589155,-6586.667373,10722.481770
1194.111706,3293.333686,-3446.511997,10186.357681
1194.112022,7275.969772,-1455.193954,10569.303459
1194.112319,9956.590215,3523.101153,8195.039638
1194.112616,9956.590215,6356.899906,7275.969772
1194.112913,5667.597507,6050.543284,8501.396260
1194.113210,-4748.527641,2144.496354,10645.892614
1194.113507,-10033.179370,-1455.193954,12560.621502
1194.113804,-12407.443191,-4365.581863,12484.032346
1194.114101,-10033.179370,-5514.419196,12713.799813
1194.114420,-5591.008351,-7812.093861,12177.675724
1194.114718,-2067.907198,-7812.093861,12101.086569
1194.115016,5514.419196,-4059.225241,10033.179370
1194.115315,4748.527641,-4518.760174,10722.481770
1194.115613,4671.938485,-1608.372265,11258.605858
1194.115911,7275.969772,4288.992708,8195.039638
1194.116209,4518.760174,6050.543284,8118.450483
1194.116507,1225.426488,3982.636086,10186.357681
1194.116857,-2067.907198,3982.636086,11182.016703
1194.117152,-1761.550576,2910.387909,11335.195014
1194.117446,-3063.566220,1072.248177,10416.125148
1194.117741,-4825.116796,-1455.193954,10875.660081
1194.118036,-6510.078217,-4518.760174,12637.210657
1194.118331,-4825.116796,-2221.085509,11641.551636
1194.118625,1838.139732,1531.783110,10109.768526
1194.118920,2527.442131,1531.783110,8501.396260
1194.119274,5054.884263,2297.674665,8807.752882
1194.119564,8041.861327,3523.101153,9114.109504
1194.119853,9650.233593,4748.527641,7888.683016
1194.120143,9267.287815,3369.922842,8041.861327
1194.120432,3293.333686,-1608.372265,8654.574571
1194.120721,-5744.186662,-5208.062574,12560.621502
1194.121011,-11258.605858,-8271.628794,15011.474478
1194.121300,-12407.443191,-8118.450483,14475.350389
1194.121607,-9497.055282,-4059.225241,12254.264880
1194.121910,-4595.349330,-689.302399,9880.001059
1194.122213,1072.248177,-536.124088,9803.411904
1194.122515,3293.333686,3063.566220,10875.660081
1194.122818,7582.326394,4135.814397,8884.342038
1194.123120,6739.845684,1531.783110,8501.396260
1194.123423,2833.798753,-689.302399,9267.287815
1194.123725,-382.945777,-4901.705952,10416.125148
1194.124046,-5591.008351,-7352.558928,13249.923901
1194.124343,-6356.899906,-9037.520349,12943.567279
1194.124640,-2221.085509,-5820.775818,10569.303459
1194.124937,-1761.550576,-5054.884263,10109.768526
1194.125234,-1455.193954,-3293.333686,11794.729947
1194.125531,-536.124088,-229.767466,12330.854035
1194.125828,2986.977064,1531.783110,9650.233593
1194.126125,9114.109504,6510.078217,6050.543284
1194.126398,6127.132440,4978.295107,6663.256528
1194.126697,3140.155375,2910.387909,9190.698660
1194.126996,2297.674665,2757.209598,9650.233593
1194.127296,2144.496354,1838.139732,10109.768526
1194.127595,-4442.171019,-1302.015643,11794.729947
1194.127894,-10339.535992,-5208.062574,14705.117856
1194.128194,-6050.543284,-2067.907198,11794.729947
1194.128493,-2757.209598,306.356622,10109.768526
1194.128839,-76.589155,2297.674665,10109.768526
1194.129134,306.356622,612.713244,11182.016703
1194.129429,3906.046930,2757.209598,10569.303459
1194.129724,6127.132440,4748.527641,8195.039638
1194.130020,3906.046930,3063.566220,8731.163727
1194.130315,-1761.550576,612.713244,9880.001059
1194.130610,-2221.085509,459.534933,11182.016703
1194.130906,-3063.566220,-1608.372265,11335.195014
1194.131206,-6203.721595,-2833.798753,13249.923901
1194.131503,-4825.116796,-5054.884263,12330.854035
1194.131800,-2757.209598,-6433.489062,11718.140791
1194.132098,1072.248177,-4212.403552,11488.373325
1194.132395,5054.884263,-3752.868619,9190.698660
1194.132693,3446.511997,-4212.403552,9343.876971
1194.132990,2297.674665,-3752.868619,10569.303459
1194.133287,459.534933,-2374.263820,11182.016703
1194.133595,-2757.209598,-1302.015643,9956.590215
1194.133896,-1914.728887,1838.139732,8118.450483
1194.134197,-536.124088,919.069866,9267.287815
1194.134498,-3369.922842,-1608.372265,11947.908258
1194.134799,-689.302399,459.534933,10339.535992
1194.135100,459.534933,-995.659021,10262.946837
1194.135401,919.069866,-3140.155375,10645.892614
1194.135702,1531.783110,-2986.977064,11411.784169
1194.136010,153.178311,-3906.046930,9803.411904
1194.136306,2144.496354,-2833.798753,9420.466126
1194.136603,3140.155375,612.713244,9573.644437
1194.136899,3752.868619,1838.139732,7658.915550
1194.137196,4748.527641,6356.899906,7046.202306
1194.137492,1378.604799,7429.148083,8501.396260
1194.137789,-1302.015643,4135.814397,8960.931193
1194.138085,-7965.272172,306.356622,12560.621502
1194.138402,-6356.899906,-0.000000,12637.210657
1194.138703,-4288.992708,-4671.938485,11488.373325
1194.139003,-2757.209598,-5820.775818,12790.388968
1194.139304,919.069866,-5054.884263,12254.264880
1194.139605,3599.690308,-5514.419196,10645.892614
1194.139905,2527.442131,-2833.798753,11871.319102
1194.140206,2374.263820,2450.852976,10569.303459
1194.140506,2833.798753,6356.899906,7275.969772
1194.140786,-536.124088,6356.899906,8960.931193
1194.141089,-5284.651729,4595.349330,10799.070925
1194.141391,-7199.380617,306.356622,12101.086569
1194.141694,-6203.721595,-382.945777,12560.621502
1194.141997,-2910.387909,-4901.705952,11871.319102
1194.142299,-1302.015643,-7965.272172,12713.799813
1194.142602,3599.690308,-5820.775818,11028.838392
1194.142904,8807.752882,-2374.263820,10109.768526
1194.143204,7582.326394,-3293.333686,9956.590215
1194.143500,6433.489062,1531.783110,9650.233593
1194.143796,6280.310751,6050.543284,6280.310751
1194.144092,765.891555,6050.543284,8348.217949
1194.144388,-3369.922842,4288.992708,10416.125148
1194.144683,-6816.434839,3216.744531,9573.644437
1194.144979,-9573.644437,1225.426488,10109.768526
1194.145275,-9880.001059,-2221.085509,11947.908258
1194.145584,-8884.342038,-5514.419196,13403.102212
1194.145883,-689.302399,-3446.511997,12254.264880
1194.146181,5208.062574,-536.124088,10875.660081
1194.146480,11182.016703,1684.961421,9267.287815
1194.146778,12024.497413,4442.171019,7735.504705
1194.147077,10416.125148,5131.473418,6356.899906
1194.147375,4365.581863,612.713244,6816.434839
1194.147674,-1761.550576,-229.767466,8041.861327
1194.148015,-9343.876971,-3906.046930,10799.070925
1194.148310,-18075.040698,-6586.667373,12560.621502
1194.148606,-23283.103272,-9037.520349,15011.474478
1194.148902,-26346.669492,-7965.272172,15853.955188
1194.149197,-27265.739358,-7965.272172,16007.133499
1194.149493,-24585.118915,-3752.868619,15547.598566
1194.149789,-20296.126207,919.069866,11182.016703
1194.150084,-20296.126207,306.356622,13020.156435
1194.150381,-22517.211717,-76.589155,14322.172078
1194.150681,-18075.040698,1838.139732,11411.784169
1194.150982,-11411.784169,2604.031287,9573.644437
1194.151282,-7122.791461,1072.248177,8118.450483
1194.151582,-4442.171019,765.891555,6816.434839
1194.151883,6127.132440,-382.945777,4901.705952
1194.152183,8041.861327,-1761.550576,4135.814397
1194.152483,-995.659021,-7505.737239,6510.078217
1194.152776,-17002.792521,-12790.388968,11488.373325
1194.153077,-31095.197133,-11258.605858,15394.420255
1194.153378,-33469.460953,-3446.511997,11718.140791
1194.153679,-35460.778996,-229.767466,10875.660081
1194.153980,-33775.817575,4595.349330,10799.070925
