#time,accel_x,accel_y,accel_z
1181.472659,-76.589155,-536.124088,10569.303459
1181.472957,-76.589155,-382.945777,10569.303459
1181.473255,-76.589155,-382.945777,10569.303459
1181.473553,153.178311,-382.945777,10416.125148
1181.473841,612.713244,-382.945777,10722.481770
1181.474143,4671.938485,-229.767466,9956.590215
1181.474444,6893.023995,-229.767466,9880.001059
1181.474746,11794.729947,-0.000000,9573.644437
1181.475048,15317.831100,-76.589155,9497.055282
1181.475349,19147.288875,-0.000000,9267.287815
1181.475651,22287.444250,306.356622,9037.520349
1181.475953,22134.265939,1225.426488,9573.644437
1181.476243,23206.514116,1991.318043,8195.039638
1181.476545,19913.180430,1684.961421,9114.109504
1181.476846,16926.203365,1072.248177,9803.411904
1181.477147,14168.993767,765.891555,10186.357681
1181.477449,13403.102212,612.713244,11182.016703
1181.477750,17232.559987,153.178311,10722.481770
1181.478051,23359.692427,1531.783110,9880.001059
1181.478353,27648.685135,459.534933,8807.752882
1181.478660,24508.529760,-2067.907198,9037.520349
1181.478960,18764.343097,-5208.062574,13632.869679
1181.479261,11871.319102,-6280.310751,16466.668432
1181.479562,9497.055282,-2833.798753,14168.993767
1181.479862,8195.039638,-0.000000,13403.102212
1181.480163,4365.581863,306.356622,13556.280523
1181.480463,3752.868619,1072.248177,15547.598566
1181.480764,6433.489062,2297.674665,15241.241944
1181.481047,12637.210657,5284.651729,11641.551636
1181.481347,18917.521408,6356.899906,9573.644437
1181.481646,23666.049049,5744.186662,8195.039638
1181.481946,27648.685135,1838.139732,7505.737239
1181.482246,29410.235712,-2986.977064,6510.078217
1181.482546,32090.856154,-6586.667373,6510.078217
1181.482845,32244.034465,-10033.179370,6510.078217
1181.483145,30865.429666,-10339.535992,8041.861327
1181.483440,26882.793580,-8731.163727,9650.233593
1181.483741,20985.428607,-3446.511997,11794.729947
1181.484042,16543.257588,1378.604799,12254.264880
1181.484342,10875.660081,3523.101153,13403.102212
1181.484643,1838.139732,4825.116796,12943.567279
1181.484944,-4288.992708,3829.457775,12560.621502
1181.485245,-7122.791461,-689.302399,11488.373325
1181.485546,-8731.163727,-5667.597507,13709.458834
1181.485846,-7352.558928,-8424.807105,13709.458834
1181.486144,-1914.728887,-4212.403552,11182.016703
1181.486443,6127.132440,153.178311,7582.326394
1181.486741,14398.761234,4825.116796,5514.419196
1181.487040,14705.117856,6969.613150,7582.326394
1181.487338,16236.900966,7275.969772,11182.016703
1181.487636,20066.358741,3523.101153,6893.023995
1181.487935,21368.374384,-382.945777,7658.915550
1181.488244,18917.521408,-8577.985416,9956.590215
1181.488542,8501.396260,-15624.187722,11182.016703
1181.488841,-1455.193954,-14551.939545,12637.210657
1181.489139,-7965.272172,-11871.319102,12101.086569
1181.489438,-14934.885322,-7199.380617,11641.551636
1181.489736,-23436.281583,-842.480710,14628.528700
1181.490035,-22670.390028,4442.171019,14628.528700
1181.490333,-19683.412963,9650.233593,15394.420255
1181.490640,-14092.404612,14475.350389,15471.009411
1181.490940,1684.961421,14475.350389,11794.729947
1181.491240,20832.250296,14781.707011,6280.310751
1181.491539,35231.011530,11028.838392,2986.977064
1181.491839,35537.368152,612.713244,3676.279464
1181.492139,29869.770645,-7965.272172,6816.434839
1181.492438,21291.785229,-12637.210657,5361.240885
1181.492738,8654.574571,-18381.397320,7735.504705
1181.493073,-10645.892614,-20908.839451,12790.388968
1181.493369,-24738.297226,-19300.467186,14398.761234
1181.493665,-35996.903085,-13096.745590,19683.412963
1181.493961,-32014.266999,-3599.690308,16696.435899
1181.494256,-23436.281583,8348.217949,10722.481770
1181.494552,-14781.707011,11794.729947,9956.590215
1181.494848,-1608.372265,13479.691368,10109.768526
1181.495144,12943.567279,15241.241944,6816.434839
1181.495439,23512.870738,15394.420255,3293.333686
1181.495739,26576.436958,8654.574571,3140.155375
1181.496039,18994.110564,2604.031287,6816.434839
1181.496339,10416.125148,-3293.333686,9803.411904
1181.496640,1531.783110,-10799.070925,10645.892614
1181.496940,-5437.830040,-12943.567279,11794.729947
1181.497240,-14322.172078,-15930.544344,14168.993767
1181.497540,-16619.846743,-17462.327454,15930.544344
1181.497828,-11105.427547,-11105.427547,13862.637145
1181.498128,-2910.387909,-2221.085509,9956.590215
1181.498428,4212.403552,1378.604799,9114.109504
1181.498728,10262.946837,7429.148083,8195.039638
1181.499028,15777.366033,13326.513057,7429.148083
1181.499328,16773.025054,14934.885322,7735.504705
1181.499628,11335.195014,14475.350389,9037.520349
1181.499928,3752.868619,13020.156435,11794.729947
1181.500228,-3676.279464,7735.504705,13862.637145
1181.500528,-8424.807105,2757.209598,14705.117856
1181.500828,-12101.086569,-382.945777,12943.567279
1181.501128,-18228.219009,-7965.272172,15088.063633
1181.501428,-19683.412963,-15164.652789,18228.219009
1181.501728,-13632.869679,-14015.815456,15547.598566
1181.502028,-1148.837332,-10952.249236,9726.822748
1181.502328,10262.946837,-6586.667373,5973.954129
1181.502635,17232.559987,-2221.085509,4442.171019
1181.502937,19147.288875,1991.318043,4748.527641
1181.503238,15471.009411,6356.899906,6663.256528
1181.503539,9956.590215,10569.303459,6663.256528
1181.503841,-1914.728887,8654.574571,10186.357681
1181.504142,-9880.001059,5131.473418,13249.923901
1181.504444,-12866.978124,4442.171019,12713.799813
1181.504745,-14322.172078,3063.566220,12790.388968
1181.505062,-12101.086569,-4825.116796,13096.745590
1181.505355,-6510.078217,-6893.023995,13249.923901
1181.505649,1991.318043,-6280.310751,9420.466126
1181.505943,7275.969772,-9726.822748,7275.969772
1181.506236,11335.195014,-12484.032346,6510.078217
1181.506530,10109.768526,-10339.535992,6510.078217
1181.506824,9956.590215,-8884.342038,8424.807105
1181.507117,4518.760174,-2680.620442,9650.233593
1181.507436,-3369.922842,2604.031287,10109.768526
1181.507734,-9343.876971,4825.116796,12254.264880
1181.508033,-12101.086569,9573.644437,14628.528700
1181.508331,-10186.357681,13173.334746,12790.388968
1181.508629,-6816.434839,11182.016703,12254.264880
1181.508927,-4442.171019,5897.364973,13556.280523
1181.509226,1378.604799,3063.566220,12407.443191
1181.509524,7735.504705,-1761.550576,8577.985416
1181.509837,12943.567279,-8118.450483,6356.899906
1181.510135,13096.745590,-13556.280523,7275.969772
1181.510434,8195.039638,-15624.187722,9420.466126
1181.510732,3293.333686,-12024.497413,10262.946837
1181.511031,-995.659021,-3752.868619,9420.466126
1181.511329,-7505.737239,1225.426488,9573.644437
1181.511628,-13020.156435,4978.295107,13173.334746
1181.511926,-14628.528700,10875.660081,13403.102212
1181.512226,-12866.978124,13173.334746,12943.567279
1181.512526,-8577.985416,10109.768526,12713.799813
1181.512826,-2450.852976,5897.364973,11641.551636
1181.513126,6586.667373,3369.922842,10033.179370
1181.513426,12024.497413,-3140.155375,7429.148083
1181.513726,15777.366033,-8424.807105,5973.954129
1181.514026,11871.319102,-12943.567279,6433.489062
1181.514326,5361.240885,-14858.296167,7658.915550
1181.514633,-1914.728887,-13249.923901,9803.411904
1181.514930,-13479.691368,-11871.319102,12560.621502
1181.515227,-17002.792521,-9726.822748,14781.707011
1181.515523,-14628.528700,-2374.263820,14858.296167
1181.515820,-8118.450483,7275.969772,12254.264880
1181.516117,-2221.085509,11488.373325,11718.140791
1181.516414,4671.938485,13326.513057,11488.373325
1181.516711,11641.551636,12866.978124,10416.125148
1181.517025,16083.722655,7275.969772,7046.202306
1181.517329,15317.831100,-1761.550576,7275.969772
1181.517632,10569.303459,-8577.985416,7888.683016
1181.517936,6739.845684,-12637.210657,7582.326394
1181.518239,-76.589155,-12177.675724,9114.109504
1181.518543,-5284.651729,-10492.714303,10262.946837
1181.518847,-11258.605858,-6280.310751,12713.799813
1181.519150,-13326.513057,-229.767466,14934.885322
1181.519469,-11258.605858,8501.396260,12713.799813
1181.519762,-9880.001059,11335.195014,12407.443191
1181.520056,-3829.457775,11182.016703,13249.923901
1181.520350,1225.426488,9956.590215,11564.962480
1181.520643,8960.931193,6969.613150,9497.055282
1181.520937,12330.854035,3216.744531,7888.683016
1181.521230,12024.497413,-2680.620442,6969.613150
1181.521524,10416.125148,-6586.667373,6816.434839
1181.521841,5054.884263,-7965.272172,7735.504705
1181.522139,-1148.837332,-7658.915550,8195.039638
1181.522437,-9190.698660,-6739.845684,10722.481770
1181.522735,-13632.869679,-4059.225241,13326.513057
1181.523032,-14781.707011,-1608.372265,12943.567279
1181.523330,-14628.528700,-382.945777,14781.707011
1181.523628,-11564.962480,306.356622,15700.776877
1181.523926,306.356622,3216.744531,12024.497413
1181.524225,10416.125148,5591.008351,8348.217949
1181.524523,15777.366033,3216.744531,7735.504705
1181.524820,17385.738298,612.713244,6280.310751
1181.525118,13096.745590,-2221.085509,7658.915550
1181.525415,7429.148083,-5514.419196,8348.217949
1181.525713,-1148.837332,-7046.202306,9114.109504
1181.526010,-9880.001059,-6586.667373,11028.838392
1181.526308,-13326.513057,-6280.310751,13020.156435
1181.526638,-14092.404612,-3599.690308,13786.047990
1181.526935,-9343.876971,459.534933,13632.869679
1181.527232,-6816.434839,1225.426488,14322.172078
1181.527529,765.891555,3982.636086,11488.373325
1181.527826,8960.931193,5897.364973,9267.287815
1181.528123,12484.032346,4135.814397,6816.434839
1181.528420,12330.854035,-2527.442131,8577.985416
1181.528717,9956.590215,-5054.884263,9573.644437
1181.529024,6739.845684,-4825.116796,7429.148083
1181.529324,3140.155375,-4212.403552,9343.876971
1181.529624,-2604.031287,-842.480710,8195.039638
1181.529924,-8884.342038,-689.302399,10952.249236
1181.530224,-11564.962480,1378.604799,13249.923901
1181.530523,-11871.319102,3676.279464,11947.908258
1181.530823,-12866.978124,1378.604799,14322.172078
1181.531123,-9573.644437,-1608.372265,14168.993767
1181.531405,153.178311,459.534933,11335.195014
1181.531709,10569.303459,3063.566220,6816.434839
1181.532013,12943.567279,-995.659021,6816.434839
1181.532317,12484.032346,-3599.690308,8195.039638
1181.532621,9267.287815,-2221.085509,8731.163727
1181.532925,4059.225241,-2221.085509,9726.822748
1181.533229,-3982.636086,-2374.263820,10569.303459
1181.533533,-9190.698660,459.534933,11335.195014
1181.533805,-9190.698660,153.178311,10416.125148
1181.534107,-10952.249236,-0.000000,13173.334746
1181.534410,-13326.513057,-0.000000,15547.598566
1181.534713,-8731.163727,-229.767466,14781.707011
1181.535015,612.713244,3829.457775,13249.923901
1181.535318,8348.217949,4135.814397,9114.109504
1181.535621,14245.582923,3216.744531,8271.628794
1181.535923,15471.009411,1531.783110,7735.504705
1181.536213,15164.652789,306.356622,6510.078217
1181.536512,9420.466126,-4059.225241,8501.396260
1181.536811,-0.000000,-4901.705952,10875.660081
1181.537111,-7122.791461,-3906.046930,10645.892614
1181.537410,-13479.691368,-3140.155375,12330.854035
1181.537709,-14092.404612,-2527.442131,14168.993767
1181.538008,-12866.978124,612.713244,13403.102212
1181.538307,-8577.985416,765.891555,12560.621502
1181.538621,-229.767466,1991.318043,12101.086569
1181.538920,8041.861327,4288.992708,7888.683016
1181.539218,14245.582923,3369.922842,5667.597507
1181.539517,15471.009411,153.178311,7582.326394
1181.539816,12637.210657,-2221.085509,7429.148083
1181.540115,5973.954129,-4901.705952,8195.039638
1181.540413,-842.480710,-6893.023995,10033.179370
1181.540712,-6816.434839,-4671.938485,9650.233593
1181.541019,-11871.319102,-4825.116796,10262.946837
1181.541319,-17462.327454,-6127.132440,13403.102212
1181.541619,-18228.219009,-5667.597507,16849.614210
1181.541918,-14245.582923,-1148.837332,14934.885322
1181.542218,-3063.566220,612.713244,11947.908258
1181.542518,7735.504705,2450.852976,9880.001059
1181.542817,14858.296167,4748.527641,7582.326394
1181.543117,21138.606918,3063.566220,6816.434839
1181.543414,23742.638205,2144.496354,4978.295107
1181.543713,15317.831100,-1761.550576,6816.434839
1181.544013,2144.496354,-7352.558928,11182.016703
1181.544313,-9573.644437,-6127.132440,12330.854035
1181.544612,-14934.885322,-3140.155375,11947.908258
1181.544912,-19836.591274,-4518.760174,14475.350389
1181.545211,-20602.482829,-1302.015643,17155.970832
1181.545511,-14322.172078,5131.473418,15164.652789
1181.545806,-4135.814397,8501.396260,12713.799813
1181.546107,7888.683016,9420.466126,10416.125148
1181.546408,16543.257588,10109.768526,8654.574571
1181.546708,23512.870738,7275.969772,3752.868619
1181.547009,21291.785229,153.178311,5820.775818
1181.547310,14858.296167,-4825.116796,8041.861327
1181.547611,6127.132440,-8271.628794,8501.396260
1181.547912,-3676.279464,-8577.985416,10492.714303
1181.548200,-9880.001059,-4825.116796,10416.125148
1181.548501,-19530.234652,-4825.116796,13096.745590
1181.548802,-20755.661140,-229.767466,15088.063633
1181.549103,-19223.878030,4748.527641,13403.102212
1181.549403,-13786.047990,5284.651729,12637.210657
1181.549704,-5284.651729,4748.527641,13096.745590
1181.550005,5667.597507,3523.101153,9650.233593
1181.550306,16773.025054,2604.031287,6816.434839
1181.550615,22746.979183,-1914.728887,5514.419196
1181.550911,20525.893674,-6127.132440,5591.008351
1181.551207,12637.210657,-9880.001059,6127.132440
1181.551503,2986.977064,-12637.210657,9650.233593
1181.551799,-8577.985416,-10645.892614,12560.621502
1181.552095,-15088.063633,-8424.807105,10569.303459
1181.552391,-17921.862387,-4901.705952,12790.388968
1181.552687,-16466.668432,-689.302399,16543.257588
1181.552994,-10799.070925,5131.473418,14168.993767
1181.553293,-3216.744531,7122.791461,13709.458834
1181.553592,5667.597507,10109.768526,10875.660081
1181.553891,11488.373325,7735.504705,9114.109504
1181.554190,14015.815456,3982.636086,7965.272172
1181.554489,14398.761234,-1455.193954,9114.109504
1181.554788,10875.660081,-4365.581863,9114.109504
1181.555087,7122.791461,-6127.132440,8195.039638
1181.555403,-536.124088,-6127.132440,9114.109504
1181.555701,-6050.543284,-4825.116796,11028.838392
1181.555998,-12866.978124,-4518.760174,12254.264880
1181.556296,-13786.047990,-995.659021,14322.172078
1181.556594,-14322.172078,5131.473418,14322.172078
1181.556892,-10799.070925,6203.721595,11258.605858
1181.557189,-4288.992708,7735.504705,13096.745590
1181.557487,3906.046930,8501.396260,9956.590215
1181.557844,12790.388968,5131.473418,6663.256528
1181.558136,14705.117856,1991.318043,8424.807105
1181.558429,15471.009411,612.713244,5437.830040
1181.558722,9956.590215,-2986.977064,6663.256528
1181.559014,612.713244,-8118.450483,8960.931193
1181.559307,-5437.830040,-7352.558928,10722.481770
1181.559600,-11718.140791,-8884.342038,10952.249236
1181.559892,-15241.241944,-5973.954129,12254.264880
1181.560204,-16007.133499,-4365.581863,15088.063633
1181.560503,-13326.513057,153.178311,13939.226301
1181.560802,-6356.899906,612.713244,13862.637145
1181.561101,4059.225241,4825.116796,12101.086569
1181.561400,10875.660081,4978.295107,9573.644437
1181.561700,17232.559987,2757.209598,6816.434839
1181.561999,18764.343097,1684.961421,5820.775818
1181.562298,12943.567279,-3599.690308,6816.434839
1181.562597,4671.938485,-9343.876971,10109.768526
1181.562897,-5131.473418,-8731.163727,12484.032346
1181.563196,-11871.319102,-6127.132440,11182.016703
1181.563495,-14781.707011,-4212.403552,13709.458834
1181.563794,-15241.241944,-2221.085509,15088.063633
1181.564093,-10339.535992,2910.387909,13249.923901
1181.564393,-5897.364973,3676.279464,13403.102212
1181.564692,612.713244,5131.473418,13249.923901
1181.564999,11028.838392,6663.256528,8884.342038
1181.565298,17692.094920,5744.186662,4901.705952
1181.565597,17079.381676,612.713244,7275.969772
1181.565897,13249.923901,-1302.015643,9267.287815
1181.566196,8195.039638,-3752.868619,8195.039638
1181.566495,1378.604799,-2374.263820,8807.752882
1181.566794,-6203.721595,-1608.372265,8807.752882
1181.567094,-13939.226301,-2221.085509,11335.195014
1181.567414,-17921.862387,-995.659021,14015.815456
1181.567711,-18994.110564,-229.767466,14858.296167
1181.568008,-16619.846743,1378.604799,15088.063633
1181.568305,-7352.558928,2450.852976,11564.962480
1181.568602,5973.954129,3676.279464,8348.217949
1181.568899,14015.815456,4288.992708,5820.775818
1181.569196,19147.288875,-689.302399,5054.884263
1181.569493,18611.164786,-3293.333686,6663.256528
1181.569795,10722.481770,-6433.489062,8654.574571
1181.570097,-689.302399,-10186.357681,10109.768526
1181.570398,-9880.001059,-9037.520349,13403.102212
1181.570699,-14934.885322,-5973.954129,11105.427547
1181.571001,-15700.776877,-5820.775818,12943.567279
1181.571302,-14475.350389,-1148.837332,15853.955188
1181.571603,-10186.357681,3829.457775,14015.815456
1181.571905,-842.480710,6816.434839,12407.443191
1181.572218,7888.683016,7735.504705,11105.427547
1181.572514,13862.637145,8195.039638,7735.504705
1181.572810,17845.273231,5744.186662,5667.597507
1181.573106,14015.815456,-229.767466,8195.039638
1181.573402,9420.466126,-4901.705952,9956.590215
1181.573698,765.891555,-8118.450483,11335.195014
1181.573994,-4595.349330,-6893.023995,11488.373325
1181.574290,-10339.535992,-4518.760174,11105.427547
1181.574590,-14781.707011,-3599.690308,13403.102212
1181.574887,-14934.885322,1531.783110,15547.598566
1181.575185,-10186.357681,6663.256528,12177.675724
1181.575482,-6203.721595,6510.078217,11182.016703
1181.575780,1072.248177,5591.008351,11335.195014
1181.576077,10875.660081,6203.721595,7352.558928
1181.576375,16619.846743,4748.527641,4365.581863
1181.576672,15777.366033,-536.124088,7199.380617
1181.576979,10722.481770,-4825.116796,7888.683016
1181.577281,3140.155375,-6127.132440,9037.520349
1181.577582,-3523.101153,-7965.272172,9573.644437
1181.577884,-12713.799813,-9190.698660,11028.838392
1181.578186,-17768.684076,-7658.915550,12407.443191
1181.578487,-17615.505765,-5054.884263,12330.854035
1181.578789,-13786.047990,-1148.837332,13862.637145
1181.579091,-7965.272172,2910.387909,12866.978124
1181.579371,612.713244,3216.744531,11794.729947
1181.579676,11794.729947,5744.186662,9956.590215
1181.579981,17998.451542,4442.171019,5744.186662
1181.580287,18764.343097,-0.000000,6356.899906
1181.580592,13249.923901,-3599.690308,9267.287815
1181.580897,8041.861327,-6433.489062,9803.411904
1181.581202,-0.000000,-5973.954129,10109.768526
1181.581507,-10645.892614,-5514.419196,11488.373325
1181.581826,-18381.397320,-5820.775818,13862.637145
1181.582122,-19836.591274,-3446.511997,15930.544344
1181.582418,-14092.404612,1378.604799,15547.598566
1181.582714,-7122.791461,7122.791461,13249.923901
1181.583010,-2604.031287,7275.969772,12943.567279
1181.583306,6586.667373,6203.721595,11641.551636
1181.583603,16926.203365,8501.396260,7429.148083
1181.583899,20066.358741,3829.457775,5820.775818
1181.584216,16773.025054,-2527.442131,7582.326394
1181.584510,12790.388968,-4901.705952,7735.504705
1181.584805,7122.791461,-3906.046930,6586.667373
1181.585099,-1455.193954,-4212.403552,8501.396260
1181.585394,-12254.264880,-3906.046930,9956.590215
1181.585688,-18687.753942,-3140.155375,12637.210657
1181.585983,-21444.963540,-0.000000,15700.776877
1181.586277,-20296.126207,1072.248177,15164.652789
1181.586577,-13326.513057,4978.295107,13632.869679
1181.586877,-995.659021,4135.814397,10262.946837
1181.587177,10262.946837,765.891555,8348.217949
1181.587477,16926.203365,459.534933,7888.683016
1181.587777,21674.731006,-4518.760174,4901.705952
1181.588077,21138.606918,-6280.310751,3906.046930
1181.588377,12177.675724,-8577.985416,5973.954129
1181.588677,-1761.550576,-10645.892614,10109.768526
1181.588968,-11258.605858,-7812.093861,11182.016703
1181.589270,-15547.598566,-1761.550576,10569.303459
1181.589573,-19377.056341,-1608.372265,14322.172078
1181.589875,-19377.056341,-536.124088,17768.684076
1181.590178,-14322.172078,4595.349330,17768.684076
1181.590480,-1914.728887,8195.039638,13403.102212
1181.590783,7582.326394,5744.186662,10569.303459
1181.591086,13862.637145,4595.349330,9573.644437
1181.591394,20679.071985,3523.101153,6356.899906
1181.591694,19606.823808,-995.659021,7122.791461
1181.591993,14551.939545,-3752.868619,8195.039638
1181.592293,6127.132440,-5514.419196,8960.931193
1181.592593,-2604.031287,-5973.954129,10875.660081
1181.592893,-7965.272172,-1302.015643,11182.016703
1181.593193,-16007.133499,-842.480710,12254.264880
1181.593492,-18687.753942,765.891555,14628.528700
1181.593776,-16849.614210,5897.364973,15241.241944
1181.594079,-11871.319102,4288.992708,15088.063633
1181.594382,-2450.852976,3063.566220,13556.280523
1181.594684,11182.016703,4442.171019,7122.791461
1181.594987,20066.358741,3369.922842,5208.062574
1181.595290,21291.785229,-2833.798753,5208.062574
1181.595593,17692.094920,-5054.884263,4595.349330
1181.595896,10109.768526,-4901.705952,6739.845684
1181.596211,-995.659021,-9190.698660,7582.326394
1181.596508,-11258.605858,-9343.876971,9573.644437
1181.596805,-19223.878030,-5820.775818,12024.497413
1181.597102,-23129.924961,-6739.845684,13403.102212
1181.597399,-19836.591274,-3599.690308,15700.776877
1181.597697,-14628.528700,765.891555,16083.722655
1181.597994,-2374.263820,2144.496354,13709.458834
1181.598291,11335.195014,5744.186662,9803.411904
1181.598581,19760.002119,5591.008351,5514.419196
1181.598878,25121.243004,2144.496354,5820.775818
1181.599174,21521.552695,-2067.907198,7275.969772
1181.599471,15011.474478,-2986.977064,7888.683016
1181.599768,3293.333686,-7352.558928,9956.590215
1181.600064,-9880.001059,-8271.628794,11947.908258
1181.600361,-18994.110564,-5514.419196,13709.458834
1181.600658,-24278.762293,-4518.760174,15547.598566
1181.600972,-21904.498473,-382.945777,17385.738298
1181.601269,-15088.063633,6816.434839,15547.598566
1181.601567,-5744.186662,8041.861327,14015.815456
1181.601865,6739.845684,8501.396260,12407.443191
1181.602163,20219.537052,11794.729947,7429.148083
1181.602461,27035.971891,6356.899906,4059.225241
1181.602759,23359.692427,-842.480710,6127.132440
1181.603057,18151.629853,-4365.581863,7582.326394
1181.603364,7735.504705,-6127.132440,8041.861327
1181.603663,-1455.193954,-7199.380617,6816.434839
1181.603963,-15241.241944,-5054.884263,11258.605858
1181.604263,-24125.583982,-4518.760174,13249.923901
1181.604562,-28184.809224,-3293.333686,14858.296167
1181.604862,-25044.653848,1378.604799,16083.722655
1181.605161,-16849.614210,4135.814397,14475.350389
1181.605461,-4288.992708,3982.636086,11947.908258
1181.605758,14398.761234,5744.186662,7275.969772
1181.606057,25580.777937,6050.543284,4212.403552
1181.606357,29257.057401,-2833.798753,3216.744531
1181.606656,24968.064693,-4518.760174,5208.062574
1181.606956,15317.831100,-6893.023995,5820.775818
1181.607255,2833.798753,-9497.055282,7735.504705
1181.607555,-13020.156435,-9650.233593,11028.838392
1181.607855,-20602.482829,-7046.202306,11564.962480
1181.608149,-26499.847803,-8271.628794,15471.009411
1181.608449,-26193.491181,-4212.403552,18381.397320
1181.608750,-16696.435899,2450.852976,16926.203365
1181.609050,-4288.992708,6969.613150,13709.458834
1181.609350,8501.396260,10262.946837,9880.001059
1181.609650,18151.629853,10722.481770,9267.287815
1181.609950,21827.909317,6816.434839,8195.039638
1181.610250,23206.514116,1531.783110,8041.861327
1181.610562,18764.343097,-536.124088,6280.310751
1181.610863,5973.954129,-5361.240885,9573.644437
1181.611164,-5284.651729,-7965.272172,9880.001059
1181.611464,-13326.513057,-4212.403552,11028.838392
1181.611765,-22057.676784,-6280.310751,14398.761234
1181.612066,-23129.924961,-3446.511997,16083.722655
1181.612367,-19989.769585,3829.457775,15700.776877
1181.612667,-9497.055282,8501.396260,12713.799813
1181.612976,4901.705952,9420.466126,11028.838392
1181.613272,15471.009411,8807.752882,8041.861327
1181.613567,22900.157494,6816.434839,6356.899906
1181.613862,24048.994827,-689.302399,5208.062574
1181.614158,19453.645497,-1608.372265,5437.830040
1181.614453,8654.574571,-5973.954129,6510.078217
1181.614748,-6356.899906,-12177.675724,8348.217949
1181.615044,-15700.776877,-10799.070925,11488.373325
1181.615351,-17768.684076,-7046.202306,9497.055282
1181.615653,-24431.940604,-7352.558928,12560.621502
1181.615955,-24738.297226,-2986.977064,17462.327454
1181.616258,-16466.668432,3369.922842,15317.831100
1181.616560,-3523.101153,6050.543284,12943.567279
1181.616862,11028.838392,8195.039638,9650.233593
1181.617164,17538.916609,5131.473418,8501.396260
1181.617467,24508.529760,3216.744531,7429.148083
1181.617783,25274.421315,-1148.837332,6280.310751
1181.618081,19147.288875,-4825.116796,6280.310751
1181.618380,5514.419196,-9650.233593,10109.768526
1181.618678,-7122.791461,-8884.342038,10799.070925
1181.618977,-14475.350389,-5514.419196,11182.016703
1181.619275,-22670.390028,-3752.868619,14092.404612
1181.619573,-23972.405671,-1455.193954,16773.025054
1181.619872,-17768.684076,4825.116796,16083.722655
1181.620186,-7122.791461,8807.752882,14092.404612
1181.620482,4212.403552,9956.590215,11641.551636
1181.620779,14705.117856,10569.303459,9420.466126
1181.621075,19760.002119,4825.116796,7965.272172
1181.621371,20372.715363,-2221.085509,8960.931193
1181.621668,16083.722655,-5054.884263,7965.272172
1181.621964,9497.055282,-7352.558928,6127.132440
1181.622260,-689.302399,-10186.357681,7735.504705
1181.622548,-10799.070925,-9650.233593,8424.807105
1181.622848,-17002.792521,-7505.737239,10569.303459
1181.623148,-21215.196073,-4212.403552,13249.923901
1181.623448,-19223.878030,-536.124088,13479.691368
1181.623748,-14475.350389,3982.636086,13556.280523
1181.624048,-5284.651729,4288.992708,12560.621502
1181.624348,8654.574571,6969.613150,9343.876971
1181.624648,16543.257588,6050.543284,6356.899906
1181.624947,23359.692427,765.891555,5897.364973
1181.625246,21368.374384,-1914.728887,5973.954129
1181.625546,14551.939545,-5514.419196,7658.915550
1181.625845,2680.620442,-9190.698660,9343.876971
1181.626144,-8271.628794,-8577.985416,11258.605858
1181.626443,-14781.707011,-6586.667373,12713.799813
1181.626742,-18840.932253,-2986.977064,12713.799813
1181.627042,-19530.234652,459.534933,13096.745590
1181.627349,-14934.885322,6203.721595,15088.063633
1181.627651,-10492.714303,8501.396260,14551.939545
1181.627954,1684.961421,9650.233593,12637.210657
1181.628257,11335.195014,12101.086569,11335.195014
1181.628559,19300.467186,7888.683016,8195.039638
1181.628862,20372.715363,3523.101153,9114.109504
1181.629165,18304.808164,153.178311,7582.326394
1181.629467,10875.660081,-5667.597507,8041.861327
1181.629741,-76.589155,-9343.876971,10262.946837
1181.630045,-9497.055282,-9650.233593,10722.481770
1181.630349,-16466.668432,-10186.357681,12254.264880
1181.630652,-18534.575631,-7812.093861,14168.993767
1181.630956,-16007.133499,-1302.015643,13249.923901
1181.631259,-10339.535992,3063.566220,12101.086569
1181.631563,-3063.566220,4748.527641,11488.373325
1181.631867,7046.202306,5744.186662,9650.233593
1181.632140,15930.544344,5897.364973,7429.148083
1181.632439,18764.343097,612.713244,6510.078217
1181.632738,17692.094920,-2680.620442,6510.078217
1181.633038,12790.388968,-4901.705952,7888.683016
1181.633337,3752.868619,-9497.055282,8271.628794
1181.633636,-5591.008351,-10492.714303,8577.985416
1181.633936,-12254.264880,-8118.450483,9803.411904
1181.634235,-17615.505765,-9190.698660,11411.784169
1181.634552,-20602.482829,-6280.310751,13862.637145
1181.634851,-19070.699719,-2986.977064,14475.350389
1181.635150,-11258.605858,-536.124088,13862.637145
1181.635449,153.178311,4748.527641,11794.729947
1181.635747,11871.319102,7582.326394,9420.466126
1181.636046,18917.521408,6356.899906,8041.861327
1181.636345,22134.265939,5897.364973,7352.558928
1181.636644,19606.823808,4135.814397,8348.217949
1181.636944,9497.055282,-2067.907198,8960.931193
1181.637244,-1148.837332,-4825.116796,11871.319102
1181.637545,-9037.520349,-2833.798753,10416.125148
1181.637846,-16007.133499,-3446.511997,12407.443191
1181.638147,-17002.792521,-3599.690308,14934.885322
1181.638447,-14628.528700,2144.496354,14322.172078
1181.638748,-9573.644437,3982.636086,13862.637145
1181.639049,-2374.263820,4288.992708,12713.799813
1181.639356,6739.845684,4978.295107,10416.125148
1181.639653,16773.025054,4978.295107,8807.752882
1181.639950,19300.467186,1684.961421,8041.861327
1181.640247,18764.343097,-1148.837332,8041.861327
1181.640544,14168.993767,-1914.728887,8884.342038
1181.640841,8041.861327,-4059.225241,5820.775818
1181.641138,-4595.349330,-4671.938485,7275.969772
1181.641434,-15547.598566,-6433.489062,12101.086569
1181.641742,-21751.320162,-6893.023995,14322.172078
1181.642042,-18840.932253,-2067.907198,13020.156435
1181.642342,-15088.063633,2144.496354,11258.605858
1181.642642,-8577.985416,-1148.837332,12024.497413
1181.642942,-689.302399,1072.248177,12790.388968
1181.643241,9956.590215,1991.318043,9573.644437
1181.643541,17385.738298,-842.480710,6969.613150
1181.643841,18457.986475,-3140.155375,7275.969772
1181.644158,15624.187722,-3752.868619,6356.899906
1181.644457,7122.791461,-5054.884263,8195.039638
1181.644756,-2604.031287,-4365.581863,11028.838392
1181.645055,-9343.876971,-3140.155375,11182.016703
1181.645354,-14092.404612,-1914.728887,12560.621502
1181.645653,-14628.528700,-0.000000,13709.458834
1181.645953,-12713.799813,3063.566220,14168.993767
1181.646252,-8884.342038,3369.922842,14781.707011
1181.646569,-842.480710,3216.744531,12407.443191
1181.646866,8501.396260,6510.078217,9650.233593
1181.647163,15164.652789,3063.566220,8884.342038
1181.647459,17998.451542,-0.000000,7275.969772
1181.647756,17385.738298,-0.000000,5973.954129
1181.648053,12177.675724,-2067.907198,6969.613150
1181.648349,-229.767466,-9726.822748,10875.660081
1181.648646,-9726.822748,-9190.698660,11794.729947
1181.648936,-15088.063633,-8271.628794,12560.621502
1181.649235,-15853.955188,-5514.419196,13096.745590
1181.649534,-12254.264880,-1148.837332,12101.086569
1181.649833,-10033.179370,2757.209598,11794.729947
1181.650133,-1914.728887,6050.543284,10033.179370
1181.650432,4748.527641,3982.636086,11028.838392
1181.650731,8501.396260,2604.031287,9114.109504
1181.651030,11488.373325,-1914.728887,8807.752882
1181.651344,13096.745590,-2221.085509,7582.326394
1181.651642,12790.388968,-1302.015643,5667.597507
1181.651941,7046.202306,-4825.116796,8118.450483
1181.652240,-2067.907198,-2833.798753,10799.070925
1181.652538,-8118.450483,-1148.837332,11105.427547
1181.652837,-11564.962480,-1761.550576,13096.745590
1181.653136,-13786.047990,1225.426488,14015.815456
1181.653435,-14245.582923,2910.387909,13709.458834
1181.653742,-8884.342038,4288.992708,13862.637145
1181.654038,-2757.209598,3676.279464,11641.551636
1181.654334,4059.225241,4825.116796,10722.481770
1181.654631,10875.660081,3523.101153,9880.001059
1181.654927,16543.257588,2450.852976,7582.326394
1181.655224,19760.002119,4135.814397,6586.667373
1181.655520,11488.373325,-842.480710,8424.807105
1181.655817,2144.496354,-3752.868619,9650.233593
1181.656146,-4748.527641,-689.302399,10645.892614
1181.656445,-13020.156435,-4059.225241,11794.729947
1181.656744,-18381.397320,-7658.915550,15394.420255
1181.657043,-18228.219009,-2986.977064,15547.598566
1181.657342,-11564.962480,-1148.837332,11564.962480
1181.657641,-3369.922842,-1608.372265,11182.016703
1181.657940,4059.225241,-2527.442131,10416.125148
1181.658239,12790.388968,-76.589155,8960.931193
1181.658533,17232.559987,-1914.728887,6816.434839
1181.658834,18611.164786,-382.945777,5208.062574
1181.659135,12790.388968,-4901.705952,7352.558928
1181.659436,5054.884263,-6739.845684,8195.039638
1181.659737,-1914.728887,-4212.403552,7965.272172
1181.660038,-9573.644437,-4059.225241,10875.660081
1181.660339,-14934.885322,-7658.915550,13403.102212
1181.660639,-16160.311810,-3293.333686,13249.923901
1181.660951,-14092.404612,2450.852976,12943.567279
1181.661249,-12101.086569,-76.589155,12177.675724
1181.661546,-6050.543284,-76.589155,13403.102212
1181.661844,2144.496354,2450.852976,10722.481770
1181.662141,14398.761234,2910.387909,7582.326394
1181.662438,17538.916609,2297.674665,6663.256528
1181.662736,16543.257588,2604.031287,6280.310751
1181.663033,10875.660081,765.891555,7965.272172
1181.663366,2680.620442,612.713244,9956.590215
1181.663661,-4442.171019,-1148.837332,12177.675724
1181.663956,-14092.404612,-2680.620442,14015.815456
1181.664252,-11718.140791,612.713244,12943.567279
1181.664547,-10186.357681,2757.209598,12177.675724
1181.664842,-7199.380617,2450.852976,11871.319102
1181.665138,-3982.636086,-76.589155,13096.745590
1181.665433,2986.977064,3369.922842,10569.303459
1181.665740,11335.195014,1838.139732,7888.683016
1181.666040,12637.210657,-0.000000,8807.752882
1181.666340,12790.388968,-229.767466,8041.861327
1181.666639,9497.055282,-2221.085509,6739.845684
1181.666939,4518.760174,-4901.705952,8501.396260
1181.667239,-3369.922842,-4059.225241,9880.001059
1181.667538,-8118.450483,-4671.938485,11105.427547
1181.667838,-11718.140791,-5054.884263,12407.443191
1181.668134,-10645.892614,-2833.798753,12407.443191
1181.668432,-10799.070925,-995.659021,12943.567279
1181.668729,-6816.434839,-1455.193954,13403.102212
1181.669026,-1302.015643,-0.000000,12101.086569
1181.669324,7046.202306,1684.961421,9267.287815
1181.669621,10416.125148,-995.659021,8960.931193
1181.669919,11335.195014,919.069866,8501.396260
1181.670216,10875.660081,612.713244,6969.613150
1181.670530,5208.062574,-1148.837332,8807.752882
1181.670829,-2221.085509,-76.589155,11718.140791
1181.671128,-8731.163727,2450.852976,11028.838392
1181.671426,-11564.962480,919.069866,12330.854035
1181.671725,-12101.086569,1838.139732,13326.513057
1181.672024,-10033.179370,1072.248177,12637.210657
1181.672323,-5897.364973,459.534933,12713.799813
1181.672621,612.713244,-1608.372265,10722.481770
1181.672956,6586.667373,-1761.550576,10339.535992
1181.673250,12484.032346,-2833.798753,9420.466126
1181.673543,13709.458834,-5054.884263,7812.093861
1181.673836,13709.458834,-4212.403552,6663.256528
1181.674130,6893.023995,-4212.403552,7658.915550
1181.674423,-1914.728887,-4825.116796,8960.931193
1181.674716,-6356.899906,-842.480710,9573.644437
1181.675009,-12101.086569,-1455.193954,9956.590215
1181.675309,-13326.513057,-1302.015643,12943.567279
1181.675608,-16007.133499,-2527.442131,14475.350389
1181.675907,-12101.086569,-1761.550576,15394.420255
1181.676207,-3676.279464,-2067.907198,13020.156435
1181.676506,7582.326394,-689.302399,8195.039638
1181.676805,14245.582923,-1302.015643,8195.039638
1181.677104,17079.381676,-2833.798753,6969.613150
1181.677403,17998.451542,-1914.728887,5973.954129
1181.677710,13096.745590,-3293.333686,6816.434839
1181.678010,2374.263820,-4825.116796,10416.125148
1181.678310,-6510.078217,-995.659021,11641.551636
1181.678610,-10799.070925,4442.171019,10569.303459
1181.678910,-14781.707011,3216.744531,12713.799813
1181.679211,-14322.172078,5744.186662,15777.366033
1181.679511,-12560.621502,7735.504705,15394.420255
1181.679811,-7122.791461,9420.466126,13249.923901
1181.680131,2986.977064,8195.039638,12713.799813
1181.680428,9497.055282,6816.434839,9114.109504
1181.680725,16926.203365,5437.830040,7735.504705
1181.681022,15777.366033,612.713244,6969.613150
1181.681319,10416.125148,-2527.442131,7275.969772
1181.681616,2374.263820,-6586.667373,9497.055282
1181.681913,-6510.078217,-8271.628794,9803.411904
1181.682211,-11871.319102,-5973.954129,11411.784169
1181.682529,-16849.614210,-5667.597507,13786.047990
1181.682827,-18228.219009,-2986.977064,13326.513057
1181.683125,-12101.086569,3216.744531,13403.102212
1181.683424,-5897.364973,2297.674665,12407.443191
1181.683722,919.069866,-536.124088,11794.729947
1181.684020,9267.287815,-76.589155,8884.342038
1181.684318,16926.203365,-1302.015643,6203.721595
1181.684616,20066.358741,-3906.046930,5591.008351
1181.684966,16773.025054,-6433.489062,6127.132440
1181.685256,9267.287815,-6739.845684,7275.969772
1181.685547,1072.248177,-7505.737239,8960.931193
1181.685838,-8884.342038,-6433.489062,10262.946837
1181.686129,-15241.241944,-5667.597507,12713.799813
1181.686420,-17615.505765,-4825.116796,13862.637145
1181.686710,-14245.582923,-842.480710,14705.117856
1181.687001,-11258.605858,4135.814397,14858.296167
1181.687301,-3982.636086,3676.279464,13326.513057
1181.687601,4671.938485,7582.326394,10875.660081
1181.687901,10569.303459,8041.861327,10262.946837
1181.688201,14168.993767,3829.457775,9267.287815
1181.688501,14398.761234,3676.279464,8041.861327
1181.688801,14168.993767,2604.031287,4135.814397
1181.689101,7735.504705,-76.589155,6356.899906
1181.689401,-4288.992708,-3293.333686,11182.016703
1181.689742,-14245.582923,-5973.954129,12024.497413
1181.690037,-19223.878030,-5973.954129,15394.420255
1181.690333,-18534.575631,-3599.690308,15777.366033
1181.690628,-13173.334746,-76.589155,12484.032346
1181.690924,-4825.116796,2450.852976,11105.427547
1181.691219,4901.705952,3523.101153,9956.590215
1181.691514,14245.582923,4825.116796,7429.148083
1181.691810,19300.467186,2297.674665,7888.683016
1181.692124,17998.451542,-2833.798753,7888.683016
1181.692423,13556.280523,-3446.511997,6663.256528
1181.692723,5820.775818,-5054.884263,6663.256528
1181.693022,-3523.101153,-7658.915550,8501.396260
1181.693321,-10645.892614,-6433.489062,10645.892614
1181.693621,-17002.792521,-6586.667373,12790.388968
1181.693920,-18840.932253,-5667.597507,14858.296167
1181.694220,-15088.063633,-842.480710,15241.241944
1181.694538,-9880.001059,1991.318043,14551.939545
1181.694834,-1761.550576,3829.457775,13939.226301
1181.695130,8654.574571,5131.473418,8731.163727
1181.695427,15624.187722,7122.791461,8654.574571
1181.695723,20219.537052,2297.674665,7582.326394
1181.696019,18304.808164,306.356622,7812.093861
1181.696315,14858.296167,1072.248177,6510.078217
1181.696611,8195.039638,-995.659021,6969.613150
1181.696957,-8271.628794,-2986.977064,12254.264880
1181.697248,-16849.614210,-1302.015643,13249.923901
1181.697539,-20908.839451,-1455.193954,14398.761234
1181.697830,-18228.219009,2604.031287,15394.420255
1181.698121,-17002.792521,3369.922842,13556.280523
1181.698412,-7122.791461,4288.992708,12330.854035
1181.698703,3599.690308,5131.473418,11182.016703
1181.698995,14858.296167,1531.783110,7735.504705
1181.699294,20985.428607,306.356622,6663.256528
1181.699594,17998.451542,-4212.403552,8195.039638
1181.699894,14398.761234,-4518.760174,6510.078217
1181.700195,5820.775818,-5973.954129,6280.310751
1181.700495,-6203.721595,-7199.380617,8884.342038
1181.700795,-14934.885322,-6280.310751,10569.303459
1181.701095,-21062.017762,-5208.062574,12943.567279
1181.701395,-19377.056341,-2833.798753,15088.063633
1181.701725,-15700.776877,612.713244,14015.815456
1181.702022,-9037.520349,1531.783110,12407.443191
1181.702319,1072.248177,2450.852976,11182.016703
1181.702616,10875.660081,919.069866,8807.752882
1181.702913,16543.257588,-3446.511997,8424.807105
1181.703210,20985.428607,-4365.581863,8807.752882
1181.703507,20372.715363,-6127.132440,6280.310751
1181.703804,14015.815456,-5208.062574,6280.310751
1181.704112,4748.527641,-4518.760174,8654.574571
1181.704411,-4748.527641,-1302.015643,9650.233593
1181.704711,-13326.513057,612.713244,12407.443191
1181.705011,-18381.397320,1531.783110,15471.009411
1181.705311,-20908.839451,3216.744531,15853.955188
1181.705611,-17002.792521,6816.434839,15241.241944
1181.705910,-6356.899906,8195.039638,13709.458834
1181.706210,6739.845684,8654.574571,10569.303459
1181.706494,15471.009411,8041.861327,9803.411904
1181.706796,19606.823808,3523.101153,7888.683016
1181.707099,19760.002119,919.069866,6280.310751
1181.707402,14858.296167,-2374.263820,6893.023995
1181.707705,3446.511997,-7812.093861,7658.915550
1181.708008,-9037.520349,-8271.628794,10875.660081
1181.708311,-15547.598566,-5667.597507,10416.125148
1181.708614,-19683.412963,-4825.116796,12024.497413
1181.708893,-20755.661140,-3599.690308,14475.350389
1181.709192,-18075.040698,1072.248177,14781.707011
1181.709491,-8271.628794,4825.116796,13249.923901
1181.709790,1531.783110,3369.922842,11335.195014
1181.710089,12330.854035,3216.744531,9420.466126
1181.710388,20832.250296,612.713244,6280.310751
1181.710687,22440.622561,-1761.550576,7122.791461
1181.710986,20525.893674,-4671.938485,5820.775818
1181.711298,11335.195014,-7658.915550,6893.023995
1181.711598,306.356622,-7965.272172,9420.466126
1181.711898,-10952.249236,-5973.954129,10186.357681
1181.712198,-19836.591274,-6893.023995,12790.388968
1181.712498,-22210.855095,-4365.581863,15930.544344
1181.712798,-19377.056341,1378.604799,15317.831100
1181.713098,-11411.784169,5744.186662,15241.241944
1181.713398,-1914.728887,8348.217949,12713.799813
1181.713707,9803.411904,6816.434839,10033.179370
1181.714005,17232.559987,7122.791461,8654.574571
1181.714304,23359.692427,2450.852976,7275.969772
1181.714603,22134.265939,-842.480710,6510.078217
1181.714901,16773.025054,-4212.403552,6280.310751
1181.715200,7046.202306,-5973.954129,6893.023995
1181.715498,-5131.473418,-5820.775818,9573.644437
1181.715797,-17768.684076,-6127.132440,12101.086569
1181.716104,-25044.653848,-7046.202306,14628.528700
1181.716404,-27418.917669,-2221.085509,16160.311810
1181.716703,-21368.374384,1531.783110,15394.420255
1181.717003,-11564.962480,4748.527641,12560.621502
1181.717303,2833.798753,6203.721595,11258.605858
1181.717603,15011.474478,7735.504705,7965.272172
1181.717902,23742.638205,4748.527641,5973.954129
1181.718202,23359.692427,-229.767466,5820.775818
1181.718499,17232.559987,-3599.690308,7199.380617
1181.718797,7275.969772,-6586.667373,8424.807105
1181.719096,-2910.387909,-8271.628794,8577.985416
1181.719395,-10645.892614,-6280.310751,10109.768526
1181.719694,-17462.327454,-6280.310751,11794.729947
1181.719993,-20142.947896,-5667.597507,15241.241944
1181.720291,-17309.149143,-0.000000,15930.544344
1181.720590,-12407.443191,2757.209598,15241.241944
1181.720885,-2067.907198,7582.326394,12943.567279
1181.721185,10569.303459,10569.303459,8960.931193
1181.721485,16543.257588,8654.574571,7735.504705
1181.721786,21368.374384,4595.349330,8041.861327
1181.722086,21138.606918,1225.426488,6280.310751
1181.722386,16543.257588,-1455.193954,7275.969772
1181.722686,6586.667373,-6893.023995,7965.272172
1181.722986,-7505.737239,-7812.093861,12101.086569
1181.723274,-15547.598566,-6893.023995,12254.264880
1181.723575,-22364.033406,-7965.272172,13096.745590
1181.723876,-23742.638205,-3906.046930,16543.257588
1181.724177,-20142.947896,-536.124088,14168.993767
1181.724478,-10033.179370,3216.744531,12943.567279
1181.724778,4748.527641,6203.721595,9880.001059
1181.725079,16390.079277,5591.008351,7812.093861
1181.725380,23206.514116,3369.922842,6356.899906
1181.725689,23206.514116,765.891555,5667.597507
1181.725988,17538.916609,-2527.442131,7888.683016
1181.726288,5514.419196,-5973.954129,8041.861327
1181.726587,-6050.543284,-8884.342038,10033.179370
1181.726886,-13939.226301,-7199.380617,10569.303459
1181.727186,-17768.684076,-6280.310751,11488.373325
1181.727485,-20296.126207,-5054.884263,14781.707011
1181.727785,-17462.327454,-382.945777,14781.707011
1181.728125,-12407.443191,3063.566220,14475.350389
1181.728419,-536.124088,5744.186662,12407.443191
1181.728712,8041.861327,8041.861327,10262.946837
1181.729005,15164.652789,4288.992708,8501.396260
1181.729299,18611.164786,1531.783110,8807.752882
1181.729592,20219.537052,153.178311,7199.380617
1181.729885,17079.381676,-2680.620442,6050.543284
1181.730179,5973.954129,-5514.419196,8195.039638
1181.730495,-5897.364973,-4825.116796,10875.660081
1181.730794,-11947.908258,-4671.938485,10416.125148
1181.731092,-17615.505765,-3906.046930,13709.458834
1181.731390,-20449.304518,-2680.620442,15088.063633
1181.731689,-19530.234652,612.713244,14551.939545
1181.731987,-10033.179370,2604.031287,13020.156435
1181.732286,4671.938485,4288.992708,10569.303459
1181.732584,14398.761234,4135.814397,9343.876971
1181.732899,22900.157494,3216.744531,6280.310751
1181.733197,24048.994827,2757.209598,5667.597507
1181.733496,18151.629853,-2527.442131,6663.256528
1181.733795,5667.597507,-6739.845684,9267.287815
1181.734093,-6663.256528,-6893.023995,10722.481770
1181.734392,-14781.707011,-6127.132440,9803.411904
1181.734691,-21904.498473,-7965.272172,12790.388968
1181.734990,-21904.498473,-5054.884263,15317.831100
1181.735358,-19223.878030,-229.767466,14858.296167
1181.735646,-9880.001059,3369.922842,12943.567279
1181.735934,919.069866,5437.830040,12637.210657
1181.736222,11641.551636,7122.791461,10875.660081
1181.736510,20219.537052,6816.434839,6816.434839
1181.736798,22593.800872,3676.279464,5744.186662
1181.737086,19300.467186,919.069866,7275.969772
1181.737374,8960.931193,-4901.705952,8501.396260
1181.737673,919.069866,-4825.116796,9267.287815
1181.737973,-7965.272172,-4365.581863,10722.481770
1181.738272,-16007.133499,-5054.884263,11871.319102
1181.738571,-20142.947896,-5514.419196,15011.474478
1181.738870,-20908.839451,-76.589155,15624.187722
1181.739169,-13786.047990,1225.426488,13249.923901
1181.739469,-3982.636086,2297.674665,11794.729947
1181.739768,3752.868619,2757.209598,11182.016703
1181.740075,15011.474478,2450.852976,8348.217949
1181.740377,22134.265939,-382.945777,6893.023995
1181.740680,23742.638205,-536.124088,5514.419196
1181.740983,17998.451542,-3752.868619,6510.078217
1181.741285,7735.504705,-5667.597507,7582.326394
1181.741588,-1761.550576,-4365.581863,9267.287815
1181.741890,-12866.978124,-4365.581863,10033.179370
1181.742193,-20142.947896,-6893.023995,13709.458834
1181.742467,-23436.281583,-5208.062574,17079.381676
1181.742771,-17768.684076,-2680.620442,14245.582923
1181.743074,-9726.822748,-229.767466,12713.799813
1181.743378,919.069866,2757.209598,12101.086569
1181.743681,11794.729947,5744.186662,9650.233593
1181.743985,19606.823808,4825.116796,5744.186662
1181.744289,20372.715363,2604.031287,7275.969772
1181.744592,14551.939545,-0.000000,8654.574571
1181.744865,6127.132440,-2221.085509,8884.342038
1181.745165,-2374.263820,-2833.798753,10416.125148
1181.745466,-8118.450483,-382.945777,10033.179370
1181.745766,-14475.350389,-2374.263820,12254.264880
1181.746066,-17615.505765,-1455.193954,14781.707011
1181.746366,-14475.350389,1225.426488,15471.009411
1181.746666,-10033.179370,1838.139732,13326.513057
1181.746966,-2910.387909,2450.852976,12484.032346
1181.747283,8041.861327,4748.527641,9573.644437
1181.747582,15011.474478,3523.101153,7582.326394
1181.747880,15624.187722,-536.124088,7735.504705
1181.748179,16390.079277,-1302.015643,7429.148083
1181.748478,11182.016703,-2374.263820,6969.613150
1181.748776,4059.225241,-4901.705952,7888.683016
1181.749075,-7812.093861,-5973.954129,10722.481770
1181.749374,-13939.226301,-5514.419196,12024.497413
1181.749673,-17155.970832,-5514.419196,12713.799813
1181.749970,-18075.040698,-4365.581863,14015.815456
1181.750268,-15241.241944,-689.302399,13403.102212
1181.750565,-7352.558928,1072.248177,12713.799813
1181.750863,3293.333686,1991.318043,10569.303459
1181.751160,13709.458834,919.069866,9037.520349
1181.751458,21981.087628,612.713244,7658.915550
1181.751755,22134.265939,-229.767466,6280.310751
1181.752062,21827.909317,459.534933,5437.830040
1181.752364,11028.838392,-1914.728887,7735.504705
1181.752666,-3369.922842,-2833.798753,10109.768526
1181.752967,-11871.319102,-2527.442131,11947.908258
1181.753269,-20296.126207,-2221.085509,14322.172078
1181.753571,-22210.855095,-842.480710,17002.792521
1181.753872,-19530.234652,3063.566220,16696.435899
1181.754174,-12866.978124,6050.543284,12713.799813
1181.754453,-1148.837332,8348.217949,10569.303459
1181.754758,7582.326394,6663.256528,10109.768526
1181.755064,14168.993767,3523.101153,8960.931193
1181.755369,17845.273231,1838.139732,8501.396260
1181.755674,15777.366033,-995.659021,6510.078217
1181.755979,10262.946837,-5208.062574,6356.899906
1181.756284,1991.318043,-6586.667373,9420.466126
1181.756589,-6356.899906,-6893.023995,11028.838392
1181.756908,-12407.443191,-6893.023995,10109.768526
1181.757204,-15547.598566,-4825.116796,13403.102212
1181.757500,-15088.063633,-3446.511997,13403.102212
1181.757796,-11411.784169,-76.589155,12177.675724
1181.758092,-3063.566220,1838.139732,11335.195014
1181.758388,5208.062574,1991.318043,9114.109504
1181.758684,12790.388968,1225.426488,9650.233593
1181.758980,18917.521408,1531.783110,7658.915550
1181.759297,20832.250296,1838.139732,5437.830040
1181.759592,15317.831100,-1914.728887,6280.310751
1181.759886,3906.046930,-5820.775818,9114.109504
1181.760181,-6510.078217,-6127.132440,11028.838392
1181.760475,-13786.047990,-4518.760174,10722.481770
1181.760770,-19683.412963,-6586.667373,13709.458834
1181.761064,-19989.769585,-4518.760174,16313.490121
1181.761358,-16849.614210,-536.124088,15317.831100
1181.761658,-6663.256528,5284.651729,11488.373325
1181.761957,4365.581863,7122.791461,10875.660081
1181.762257,10109.768526,6203.721595,9803.411904
1181.762556,18994.110564,7888.683016,7429.148083
1181.762855,19453.645497,3982.636086,7888.683016
1181.763154,16926.203365,1072.248177,6356.899906
1181.763453,8041.861327,-4365.581863,8807.752882
1181.763753,-2067.907198,-5208.062574,9267.287815
1181.764066,-9190.698660,-4901.705952,10109.768526
1181.764365,-18381.397320,-6893.023995,14015.815456
1181.764664,-18228.219009,-5820.775818,15241.241944
1181.764962,-14781.707011,-842.480710,13096.745590
1181.765261,-10492.714303,1225.426488,12101.086569
1181.765560,-2450.852976,1225.426488,12560.621502
1181.765858,6739.845684,1838.139732,9956.590215
1181.766157,14245.582923,1225.426488,8424.807105
1181.766464,18457.986475,-2986.977064,7658.915550
1181.766761,16236.900966,-5361.240885,7429.148083
1181.767059,11182.016703,-4825.116796,8501.396260
1181.767356,4365.581863,-3752.868619,7352.558928
1181.767653,-7352.558928,-3752.868619,10109.768526
1181.767950,-16619.846743,-2986.977064,12560.621502
1181.768247,-19377.056341,-2527.442131,14168.993767
1181.768545,-19223.878030,-1302.015643,16313.490121
1181.768841,-13786.047990,153.178311,13173.334746
1181.769142,-3676.279464,1225.426488,12101.086569
1181.769443,8348.217949,3063.566220,10262.946837
1181.769744,18917.521408,3676.279464,7888.683016
1181.770046,26576.436958,4442.171019,6510.078217
1181.770347,21674.731006,-76.589155,6816.434839
1181.770648,13403.102212,-3140.155375,8654.574571
1181.770949,4059.225241,-2833.798753,9114.109504
1181.771244,-5131.473418,-229.767466,9420.466126
1181.771544,-14245.582923,-536.124088,9956.590215
1181.771845,-22670.390028,-995.659021,12866.978124
1181.772146,-25044.653848,-76.589155,16543.257588
1181.772447,-19989.769585,3523.101153,16160.311810
1181.772748,-12254.264880,3829.457775,14628.528700
1181.773049,-382.945777,3829.457775,12254.264880
1181.773349,13403.102212,5284.651729,8041.861327
1181.773638,24048.994827,2910.387909,5208.062574
1181.773938,25887.134559,-2527.442131,4595.349330
1181.774239,19760.002119,-6280.310751,6356.899906
1181.774540,9803.411904,-8118.450483,7888.683016
1181.774841,-382.945777,-9037.520349,8118.450483
1181.775142,-12713.799813,-7352.558928,10262.946837
1181.775442,-21751.320162,-6586.667373,14092.404612
1181.775743,-21598.141851,-2221.085509,14781.707011
1181.776052,-18840.932253,612.713244,15241.241944
1181.776352,-14475.350389,3369.922842,15853.955188
1181.776651,-5131.473418,4135.814397,14168.993767
1181.776950,9114.109504,5131.473418,9956.590215
1181.777250,19147.288875,4288.992708,7429.148083
1181.777549,24661.708071,-76.589155,6663.256528
1181.777849,22900.157494,-536.124088,6280.310751
1181.778148,19300.467186,-1455.193954,5514.419196
1181.778455,8960.931193,-6433.489062,7046.202306
1181.778755,-5897.364973,-5667.597507,10799.070925
1181.779054,-14628.528700,-4365.581863,11182.016703
1181.779354,-21062.017762,-5514.419196,12790.388968
1181.779654,-23819.227360,-3752.868619,16236.900966
1181.779953,-21751.320162,-2221.085509,17462.327454
1181.780253,-10492.714303,4978.295107,13939.226301
1181.780553,4518.760174,6510.078217,11335.195014
1181.780854,14168.993767,8041.861327,8501.396260
1181.781151,20219.537052,4748.527641,6739.845684
1181.781448,21827.909317,3369.922842,6280.310751
1181.781744,20066.358741,1838.139732,4288.992708
1181.782041,8807.752882,-3599.690308,5437.830040
1181.782338,-3982.636086,-5820.775818,10262.946837
1181.782635,-13020.156435,-5054.884263,11182.016703
1181.782931,-17155.970832,-6433.489062,10569.303459
1181.783246,-23742.638205,-7352.558928,15700.776877
1181.783544,-25657.367092,-5054.884263,17462.327454
1181.783843,-17921.862387,-1761.550576,16926.203365
1181.784142,-1148.837332,3982.636086,11335.195014
1181.784440,12024.497413,3982.636086,7582.326394
1181.784739,19606.823808,3676.279464,9956.590215
1181.785038,27801.863446,4595.349330,6586.667373
1181.785337,30022.948956,5437.830040,2986.977064
1181.785648,18151.629853,1072.248177,5973.954129
1181.785948,306.356622,-4671.938485,9803.411904
1181.786248,-14245.582923,-6433.489062,11641.551636
1181.786548,-20142.947896,-4212.403552,11794.729947
1181.786848,-26499.847803,-9343.876971,14705.117856
1181.787148,-27265.739358,-6739.845684,18151.629853
1181.787448,-16466.668432,306.356622,15930.544344
1181.787748,-229.767466,4288.992708,10569.303459
1181.788048,13556.280523,5437.830040,9343.876971
1181.788347,19760.002119,4288.992708,9650.233593
1181.788646,27648.685135,3216.744531,5437.830040
1181.788945,27342.328513,153.178311,2374.263820
1181.789245,20066.358741,-4212.403552,5054.884263
1181.789544,4671.938485,-8884.342038,8654.574571
1181.789843,-8271.628794,-7199.380617,10339.535992
1181.790142,-16619.846743,-3752.868619,12101.086569
1181.790449,-25810.545403,-4901.705952,13786.047990
1181.790746,-31248.375444,-3752.868619,17232.559987
1181.791043,-27418.917669,3829.457775,17615.505765
1181.791339,-15394.420255,5131.473418,13403.102212
1181.791636,-1455.193954,5744.186662,11488.373325
1181.791933,14551.939545,5897.364973,8960.931193
1181.792229,28491.165846,3063.566220,5973.954129
1181.792526,35920.313929,765.891555,4748.527641
1181.792847,29869.770645,-3140.155375,4595.349330
1181.793144,16543.257588,-5361.240885,7735.504705
1181.793441,2297.674665,-4365.581863,7888.683016
1181.793738,-11564.962480,-3140.155375,9650.233593
1181.794035,-29486.824867,-7658.915550,14551.939545
1181.794332,-36456.438018,-6586.667373,18381.397320
1181.794629,-31707.910377,-1455.193954,18994.110564
1181.794926,-18228.219009,4135.814397,15394.420255
1181.795273,-2604.031287,5131.473418,12713.799813
1181.795568,11794.729947,8195.039638,10416.125148
1181.795863,27342.328513,10262.946837,7275.969772
1181.796158,34924.654908,5437.830040,3216.744531
1181.796453,28261.398379,-229.767466,2986.977064
1181.796748,16619.846743,-4671.938485,6969.613150
1181.797042,4901.705952,-11105.427547,6816.434839
1181.797337,-7658.915550,-11258.605858,9343.876971
1181.797650,-18687.753942,-11564.962480,12407.443191
1181.797946,-27112.561047,-10645.892614,14475.350389
1181.798242,-27265.739358,-3752.868619,16696.435899
1181.798538,-19683.412963,3982.636086,15700.776877
1181.798834,-10952.249236,6663.256528,14781.707011
1181.799130,1072.248177,8501.396260,13403.102212
1181.799426,16773.025054,12101.086569,7965.272172
1181.799722,28414.576690,9267.287815,4442.171019
1181.800022,28644.344157,1838.139732,4748.527641
1181.800322,21138.606918,-2221.085509,6816.434839
1181.800622,10416.125148,-5820.775818,8424.807105
1181.800922,-382.945777,-6433.489062,8348.217949
1181.801222,-14628.528700,-4901.705952,10109.768526
1181.801522,-26499.847803,-5973.954129,13632.869679
1181.801822,-28874.111623,-3752.868619,15853.955188
1181.802122,-25504.188781,306.356622,15930.544344
1181.802429,-13479.691368,2910.387909,14705.117856
1181.802732,-1761.550576,4288.992708,12713.799813
1181.803036,12790.388968,4825.116796,9803.411904
1181.803339,25580.777937,4748.527641,7735.504705
1181.803643,29103.879090,459.534933,6280.310751
1181.803946,24048.994827,-2067.907198,5361.240885
1181.804249,13556.280523,-3446.511997,6663.256528
1181.804553,1072.248177,-6893.023995,6663.256528
1181.804827,-11871.319102,-9497.055282,9420.466126
1181.805130,-21904.498473,-9343.876971,13096.745590
1181.805432,-25657.367092,-8424.807105,15088.063633
1181.805735,-23129.924961,-3446.511997,14781.707011
1181.806038,-15547.598566,-382.945777,13786.047990
1181.806341,-4595.349330,4442.171019,12943.567279
1181.806643,7735.504705,5591.008351,10186.357681
1181.806946,17845.273231,4595.349330,8960.931193
1181.807265,24814.886382,153.178311,8041.861327
1181.807561,28108.220068,-995.659021,6127.132440
1181.807857,24968.064693,-2221.085509,4442.171019
1181.808153,11335.195014,-5361.240885,6127.132440
1181.808449,-1914.728887,-4825.116796,9420.466126
1181.808745,-15088.063633,-2374.263820,11335.195014
1181.809041,-25963.723714,-3752.868619,14168.993767
1181.809337,-31248.375444,-2221.085509,16313.490121
1181.809655,-28874.111623,2910.387909,18228.219009
1181.809949,-17462.327454,5131.473418,15777.366033
1181.810244,-1148.837332,8501.396260,11641.551636
1181.810538,13862.637145,9420.466126,10109.768526
1181.810833,25121.243004,7582.326394,7275.969772
1181.811127,29716.592334,4442.171019,5514.419196
1181.811422,24968.064693,-76.589155,5131.473418
1181.811716,13403.102212,-4825.116796,7582.326394
1181.812016,919.069866,-8577.985416,7812.093861
1181.812316,-10033.179370,-9037.520349,9267.287815
1181.812616,-18075.040698,-8271.628794,11182.016703
1181.812916,-26193.491181,-9726.822748,15777.366033
1181.813216,-25044.653848,-5973.954129,17615.505765
1181.813516,-18228.219009,1072.248177,15394.420255
1181.813816,-6356.899906,5284.651729,12101.086569
1181.814116,5208.062574,8348.217949,9114.109504
1181.814446,14015.815456,6356.899906,10262.946837
1181.814743,24508.529760,3523.101153,6663.256528
1181.815040,26729.615269,612.713244,4595.349330
1181.815337,23895.816516,-3599.690308,5054.884263
1181.815634,10875.660081,-8731.163727,7735.504705
1181.815931,-2910.387909,-10339.535992,10875.660081
1181.816228,-11947.908258,-9726.822748,11488.373325
1181.816525,-22364.033406,-9343.876971,14781.707011
1181.816833,-25810.545403,-4212.403552,17155.970832
1181.817133,-23436.281583,3063.566220,14705.117856
1181.817432,-12866.978124,8195.039638,12943.567279
1181.817732,-842.480710,9573.644437,12407.443191
1181.818032,8654.574571,10109.768526,10645.892614
1181.818332,20679.071985,8195.039638,6663.256528
1181.818632,27648.685135,5591.008351,5361.240885
1181.818932,24355.351449,153.178311,6433.489062
1181.819213,12943.567279,-5514.419196,8654.574571
1181.819518,1991.318043,-6433.489062,8041.861327
1181.819822,-6816.434839,-5361.240885,8654.574571
1181.820126,-17921.862387,-7965.272172,12484.032346
1181.820430,-25504.188781,-8118.450483,15088.063633
1181.820734,-24738.297226,-3140.155375,14322.172078
1181.821038,-17768.684076,306.356622,13096.745590
1181.821342,-7812.093861,2297.674665,12560.621502
1181.821660,2833.798753,4595.349330,11488.373325
1181.821957,15164.652789,6663.256528,9114.109504
1181.822255,23359.692427,1991.318043,7582.326394
1181.822552,23206.514116,1838.139732,7275.969772
1181.822850,18304.808164,-2680.620442,6969.613150
1181.823147,8654.574571,-4901.705952,7582.326394
1181.823444,-1302.015643,-4365.581863,9267.287815
1181.823742,-14475.350389,-4901.705952,11947.908258
1181.824032,-21368.374384,-6739.845684,12943.567279
1181.824327,-23589.459894,-2374.263820,15394.420255
1181.824623,-19989.769585,1072.248177,14934.885322
1181.824919,-11947.908258,3216.744531,13709.458834
1181.825215,-0.000000,5131.473418,11411.784169
1181.825511,13249.923901,6050.543284,9956.590215
1181.825807,23359.692427,4825.116796,8041.861327
1181.826102,27342.328513,919.069866,6663.256528
1181.826412,24814.886382,-1914.728887,4595.349330
1181.826710,14551.939545,-4518.760174,7582.326394
1181.827009,306.356622,-6893.023995,8654.574571
1181.827307,-8884.342038,-4671.938485,9956.590215
1181.827606,-19836.591274,-4365.581863,14015.815456
1181.827904,-23742.638205,-2527.442131,13632.869679
1181.828203,-24891.475537,153.178311,14475.350389
1181.828501,-20755.661140,1531.783110,15394.420255
1181.828808,-9726.822748,2910.387909,13096.745590
1181.829109,765.891555,3829.457775,11028.838392
1181.829409,13249.923901,4442.171019,9343.876971
1181.829710,22746.979183,1378.604799,6816.434839
1181.830010,24355.351449,-76.589155,6816.434839
1181.830311,17385.738298,-2221.085509,8348.217949
1181.830612,7429.148083,-3752.868619,8501.396260
1181.830912,-1914.728887,-2527.442131,9497.055282
1181.831209,-10186.357681,-2067.907198,10875.660081
1181.831508,-17768.684076,-3906.046930,12790.388968
1181.831808,-19377.056341,-995.659021,13862.637145
1181.832107,-16313.490121,1378.604799,13096.745590
1181.832407,-9343.876971,459.534933,13403.102212
1181.832706,-229.767466,2604.031287,12713.799813
1181.833006,7888.683016,3523.101153,10875.660081
1181.833306,15471.009411,1684.961421,7735.504705
1181.833600,20985.428607,1072.248177,4748.527641
1181.833901,18994.110564,459.534933,7429.148083
1181.834201,8807.752882,-4825.116796,7275.969772
1181.834501,459.534933,-4365.581863,9650.233593
1181.834801,-6816.434839,-6586.667373,11182.016703
1181.835101,-13020.156435,-6280.310751,12943.567279
1181.835401,-16849.614210,-4671.938485,13326.513057
1181.835701,-17155.970832,-0.000000,12407.443191
1181.836070,-12713.799813,1531.783110,12407.443191
1181.836362,-5591.008351,2604.031287,12407.443191
1181.836654,919.069866,3523.101153,11488.373325
1181.836947,10722.481770,2144.496354,9956.590215
1181.837239,16926.203365,1225.426488,8271.628794
1181.837531,17845.273231,919.069866,7275.969772
1181.837823,13403.102212,-995.659021,7888.683016
1181.838115,7888.683016,-536.124088,8041.861327
1181.838424,-1148.837332,1072.248177,7429.148083
1181.838723,-9726.822748,-1761.550576,11028.838392
1181.839022,-17002.792521,-3446.511997,16083.722655
1181.839320,-18534.575631,-2374.263820,15241.241944
1181.839619,-15547.598566,-689.302399,14092.404612
1181.839917,-10952.249236,-1761.550576,13403.102212
1181.840216,-3982.636086,-229.767466,12943.567279
1181.840515,6739.845684,1684.961421,11794.729947
1181.840822,16543.257588,2604.031287,7505.737239
1181.841121,21138.606918,3829.457775,5208.062574
1181.841421,18917.521408,459.534933,6356.899906
1181.841721,11641.551636,-2374.263820,6510.078217
1181.842020,2680.620442,-3906.046930,7735.504705
1181.842320,-8271.628794,-7199.380617,11794.729947
1181.842620,-16696.435899,-9650.233593,13249.923901
1181.842919,-17768.684076,-6893.023995,13403.102212
1181.843216,-14934.885322,-3140.155375,12560.621502
1181.843514,-10645.892614,-2527.442131,12177.675724
1181.843812,-3982.636086,-1608.372265,12790.388968
1181.844110,4901.705952,1991.318043,9956.590215
1181.844408,15777.366033,3369.922842,7735.504705
1181.844707,17692.094920,1378.604799,7429.148083
1181.845005,16926.203365,2297.674665,7582.326394
1181.845303,12790.388968,153.178311,7122.791461
1181.845617,3140.155375,-689.302399,9497.055282
1181.845916,-3369.922842,-1148.837332,10262.946837
1181.846215,-12866.978124,-1761.550576,12943.567279
1181.846513,-15700.776877,153.178311,14628.528700
1181.846812,-13479.691368,3829.457775,13326.513057
1181.847111,-12560.621502,3063.566220,11794.729947
1181.847409,-9190.698660,2757.209598,12866.978124
1181.847708,-3523.101153,1225.426488,12407.443191
1181.847996,5973.954129,765.891555,10416.125148
1181.848296,13709.458834,-2067.907198,8960.931193
1181.848596,18151.629853,-1455.193954,6280.310751
1181.848896,18917.521408,306.356622,5667.597507
1181.849196,12330.854035,-2527.442131,6433.489062
1181.849496,153.178311,-3599.690308,9956.590215
1181.849796,-10033.179370,-4059.225241,12177.675724
1181.850096,-17309.149143,-4901.705952,13632.869679
1181.850395,-17309.149143,-1608.372265,12790.388968
1181.850694,-17768.684076,-1302.015643,13403.102212
1181.850994,-12254.264880,-1302.015643,12484.032346
1181.851293,-229.767466,1072.248177,10262.946837
1181.851592,10262.946837,1838.139732,9650.233593
1181.851891,16543.257588,-229.767466,9343.876971
1181.852190,17538.916609,-2986.977064,8501.396260
1181.852490,16926.203365,-76.589155,6663.256528
1181.852797,12024.497413,-1302.015643,7275.969772
1181.853096,2144.496354,-3752.868619,9114.109504
1181.853395,-5437.830040,-1608.372265,10875.660081
1181.853694,-11105.427547,-1148.837332,11794.729947
1181.853994,-13786.047990,-995.659021,12407.443191
1181.854293,-16007.133499,919.069866,15241.241944
1181.854592,-13786.047990,1225.426488,14934.885322
1181.854891,-6969.613150,3369.922842,12101.086569
1181.855212,3293.333686,7429.148083,10645.892614
1181.855512,7582.326394,3829.457775,10262.946837
1181.855812,12790.388968,1072.248177,8807.752882
1181.856113,16619.846743,1838.139732,5208.062574
1181.856413,13709.458834,-1761.550576,6663.256528
1181.856714,5054.884263,-6433.489062,9420.466126
1181.857014,-1761.550576,-4671.938485,9803.411904
1181.857314,-7658.915550,-2986.977064,11488.373325
1181.857581,-13786.047990,-3446.511997,12713.799813
1181.857884,-16007.133499,-1455.193954,14015.815456
1181.858187,-15700.776877,2297.674665,13403.102212
1181.858490,-9880.001059,459.534933,12560.621502
1181.858793,-2910.387909,459.534933,12484.032346
1181.859097,6893.023995,765.891555,11258.605858
1181.859400,15471.009411,-536.124088,8195.039638
1181.859703,17845.273231,-76.589155,6510.078217
1181.860016,15164.652789,153.178311,6510.078217
1181.860312,8195.039638,-2986.977064,7735.504705
1181.860608,-842.480710,-2833.798753,7888.683016
1181.860903,-7965.272172,-2680.620442,9650.233593
1181.861199,-14475.350389,-5361.240885,13403.102212
1181.861495,-16466.668432,-6127.132440,14705.117856
1181.861791,-14475.350389,-3752.868619,15088.063633
1181.862087,-6969.613150,-2374.263820,12943.567279
1181.862387,-0.000000,-2374.263820,10416.125148
1181.862688,8348.217949,2757.209598,9956.590215
1181.862989,15777.366033,1684.961421,7582.326394
1181.863289,17845.273231,306.356622,6280.310751
1181.863590,15777.366033,-0.000000,6663.256528
1181.863891,8960.931193,-1455.193954,8195.039638
1181.864192,1991.318043,-2680.620442,8654.574571
1181.864492,-5284.651729,-229.767466,9190.698660
1181.864799,-12407.443191,-1455.193954,11411.784169
1181.865096,-17002.792521,-1455.193954,14475.350389
1181.865393,-15853.955188,2910.387909,14398.761234
1181.865690,-14245.582923,3369.922842,13709.458834
1181.865987,-9343.876971,919.069866,15394.420255
1181.866284,-0.000000,1684.961421,13096.745590
1181.866581,12330.854035,4135.814397,9114.109504
1181.866878,20832.250296,2297.674665,5973.954129
1181.867186,20372.715363,3216.744531,5054.884263
1181.867485,13403.102212,306.356622,7735.504705
1181.867784,5514.419196,-1761.550576,8960.931193
1181.868083,-4442.171019,-842.480710,9650.233593
1181.868382,-14322.172078,-689.302399,12943.567279
1181.868681,-19530.234652,-3446.511997,13403.102212
1181.868980,-18840.932253,-995.659021,15088.063633
1181.869279,-15394.420255,612.713244,14168.993767
1181.869596,-9497.055282,-1608.372265,13709.458834
1181.869894,-0.000000,-1148.837332,11641.551636
1181.870192,12024.497413,1225.426488,7965.272172
1181.870491,19147.288875,-536.124088,8041.861327
1181.870789,18764.343097,-4059.225241,5973.954129
1181.871088,17692.094920,-2833.798753,5591.008351
1181.871386,11335.195014,-3446.511997,6816.434839
1181.871684,1378.604799,-4059.225241,8348.217949
1181.871985,-8577.985416,-5054.884263,11028.838392
1181.872286,-17768.684076,-4825.116796,13556.280523
1181.872587,-18381.397320,-4518.760174,15088.063633
1181.872888,-18075.040698,-382.945777,14934.885322
1181.873188,-11718.140791,1378.604799,15164.652789
1181.873489,-1455.193954,4978.295107,10569.303459
1181.873790,8041.861327,7429.148083,8807.752882
1181.874091,16543.257588,6510.078217,8654.574571
1181.874391,17232.559987,1225.426488,8348.217949
1181.874688,14705.117856,-76.589155,8041.861327
1181.874984,12024.497413,-536.124088,6356.899906
1181.875281,4365.581863,-3906.046930,6969.613150
1181.875578,-6203.721595,-3752.868619,10416.125148
1181.875875,-13326.513057,-4059.225241,11488.373325
1181.876171,-17921.862387,-4901.705952,12790.388968
1181.876468,-15700.776877,-2680.620442,13862.637145
1181.876782,-15394.420255,-995.659021,15394.420255
1181.877080,-7199.380617,612.713244,12790.388968
1181.877379,2986.977064,3829.457775,10722.481770
1181.877678,10109.768526,3676.279464,8501.396260
1181.877977,14398.761234,459.534933,9803.411904
1181.878275,16926.203365,1684.961421,6969.613150
1181.878574,16390.079277,1531.783110,5667.597507
1181.878873,6893.023995,-3599.690308,8960.931193
1181.879180,-3216.744531,-5973.954129,9880.001059
1181.879484,-10186.357681,-3752.868619,11028.838392
1181.879788,-14628.528700,-3906.046930,12254.264880
1181.880091,-18381.397320,-5361.240885,14781.707011
1181.880395,-15853.955188,-536.124088,17002.792521
1181.880699,-5437.830040,4135.814397,12713.799813
1181.881003,3293.333686,3676.279464,10569.303459
1181.881307,8960.931193,3982.636086,10569.303459
1181.881590,15777.366033,2297.674665,9956.590215
1181.881892,20679.071985,1225.426488,7429.148083
1181.882194,20985.428607,2910.387909,5054.884263
1181.882496,11794.729947,-1914.728887,6127.132440
1181.882799,-2221.085509,-3599.690308,9573.644437
1181.883101,-8577.985416,-1148.837332,10262.946837
1181.883403,-17615.505765,-1302.015643,12484.032346
1181.883705,-21904.498473,-2221.085509,15394.420255
1181.883987,-19530.234652,612.713244,14475.350389
1181.884286,-10186.357681,5284.651729,11564.962480
1181.884586,-2067.907198,3676.279464,10339.535992
1181.884886,4365.581863,-842.480710,12101.086569
1181.885185,13556.280523,153.178311,10109.768526
1181.885485,21981.087628,-2680.620442,6663.256528
1181.885784,19606.823808,-6127.132440,6816.434839
1181.886084,12637.210657,-7352.558928,8271.628794
1181.886361,4671.938485,-5973.954129,7429.148083
1181.886663,-4442.171019,-1914.728887,8195.039638
1181.886965,-16007.133499,-2374.263820,10186.357681
1181.887268,-22210.855095,-1608.372265,14628.528700
1181.887570,-21368.374384,3063.566220,15394.420255
1181.887873,-15853.955188,4595.349330,12866.978124
1181.888175,-9726.822748,2757.209598,16083.722655
1181.888477,459.534933,1072.248177,13096.745590
1181.888787,11794.729947,612.713244,10416.125148
1181.889085,23053.335805,-1148.837332,8041.861327
1181.889384,25274.421315,-2986.977064,6203.721595
1181.889682,21138.606918,-4365.581863,7275.969772
1181.889981,14015.815456,-4365.581863,5514.419196
1181.890279,3599.690308,-5820.775818,6816.434839
1181.890578,-8731.163727,-5973.954129,10492.714303
1181.890876,-18534.575631,-4825.116796,13096.745590
1181.891183,-22364.033406,-2527.442131,14168.993767
1181.891483,-19223.878030,1991.318043,14628.528700
1181.891782,-14628.528700,3063.566220,14858.296167
1181.892082,-3063.566220,6816.434839,13709.458834
1181.892382,8654.574571,8501.396260,9190.698660
1181.892682,18994.110564,7582.326394,6893.023995
1181.892981,20985.428607,3063.566220,9573.644437
1181.893281,17998.451542,-1302.015643,8884.342038
1181.893578,12177.675724,-3446.511997,7275.969772
1181.893876,2986.977064,-4825.116796,5973.954129
1181.894175,-7122.791461,-4825.116796,9573.644437
1181.894474,-15853.955188,-4671.938485,11947.908258
1181.894773,-19989.769585,-2986.977064,11564.962480
1181.895072,-21904.498473,-382.945777,15547.598566
1181.895370,-20142.947896,765.891555,16696.435899
1181.895669,-8731.163727,1684.961421,15241.241944
1181.895997,4671.938485,6050.543284,10722.481770
1181.896291,14168.993767,4288.992708,8501.396260
1181.896586,19913.180430,-0.000000,9114.109504
1181.896880,23742.638205,153.178311,6510.078217
1181.897175,22900.157494,-536.124088,3982.636086
1181.897470,9650.233593,-5514.419196,6969.613150
1181.897764,-2604.031287,-7812.093861,9803.411904
1181.898059,-11947.908258,-7965.272172,11335.195014
1181.898371,-19223.878030,-8424.807105,12713.799813
1181.898671,-23436.281583,-6586.667373,14475.350389
1181.898971,-22823.568339,-3599.690308,17462.327454
1181.899271,-12101.086569,-229.767466,14168.993767
1181.899571,-536.124088,2297.674665,11335.195014
1181.899871,10416.125148,4288.992708,9650.233593
1181.900170,21368.374384,765.891555,7582.326394
1181.900470,27035.971891,306.356622,5973.954129
1181.900770,26423.258647,2297.674665,4671.938485
1181.901070,15777.366033,-2527.442131,5514.419196
1181.901370,919.069866,-4518.760174,8960.931193
1181.901670,-7965.272172,-2374.263820,9650.233593
1181.901970,-18687.753942,-2680.620442,10722.481770
1181.902270,-27725.274291,-3446.511997,15547.598566
1181.902570,-28567.755001,-2680.620442,17692.094920
1181.902870,-19683.412963,1072.248177,16007.133499
1181.903177,-5897.364973,4978.295107,12790.388968
1181.903473,7122.791461,7275.969772,10416.125148
1181.903769,15471.009411,7429.148083,9573.644437
1181.904065,24508.529760,4442.171019,7888.683016
1181.904361,23359.692427,2297.674665,6280.310751
1181.904657,17232.559987,-536.124088,6969.613150
1181.904953,8041.861327,-5208.062574,7888.683016
1181.905249,-1761.550576,-2680.620442,8807.752882
1181.905569,-9573.644437,-3599.690308,9420.466126
1181.905866,-21062.017762,-5361.240885,12790.388968
1181.906163,-23589.459894,-4825.116796,15853.955188
1181.906460,-20296.126207,-1761.550576,15624.187722
1181.906757,-11718.140791,1072.248177,14781.707011
1181.907054,-2221.085509,3216.744531,12330.854035
1181.907351,8501.396260,4442.171019,10569.303459
1181.907648,20679.071985,3676.279464,8654.574571
1181.908009,27035.971891,2450.852976,4135.814397
1181.908301,21981.087628,-995.659021,5973.954129
1181.908594,13096.745590,-5208.062574,8195.039638
1181.908886,4748.527641,-5514.419196,8271.628794
1181.909178,-4825.116796,-4212.403552,10109.768526
1181.909470,-18075.040698,-5514.419196,11794.729947
1181.909762,-23742.638205,-5208.062574,15317.831100
1181.910054,-22364.033406,1531.783110,15241.241944
1181.910367,-14934.885322,4135.814397,11641.551636
1181.910666,-10033.179370,3676.279464,13403.102212
1181.910964,2527.442131,4595.349330,12254.264880
1181.911263,18611.164786,4595.349330,8118.450483
1181.911561,24048.994827,-76.589155,6969.613150
1181.911860,24508.529760,-1608.372265,7429.148083
1181.912158,19147.288875,-5361.240885,5667.597507
1181.912457,10569.303459,-6893.023995,6280.310751
1181.912756,-1761.550576,-6893.023995,9573.644437
1181.913056,-19070.699719,-8577.985416,12101.086569
1181.913356,-26959.382736,-6893.023995,14551.939545
1181.913656,-25504.188781,-842.480710,13556.280523
1181.913956,-22976.746650,1072.248177,14475.350389
1181.914256,-13632.869679,2757.209598,15088.063633
1181.914556,1378.604799,7275.969772,10416.125148
1181.914856,15164.652789,7122.791461,9497.055282
1181.915163,22593.800872,459.534933,9573.644437
1181.915460,24814.886382,-2221.085509,8348.217949
1181.915757,24355.351449,-1608.372265,6816.434839
1181.916054,14551.939545,-5361.240885,4748.527641
1181.916351,765.891555,-7965.272172,8501.396260
1181.916648,-10033.179370,-4901.705952,10875.660081
1181.916944,-18381.397320,-4671.938485,12254.264880
1181.917241,-23129.924961,-3599.690308,14015.815456
1181.917556,-21751.320162,765.891555,15777.366033
1181.917859,-15241.241944,2144.496354,15700.776877
1181.918163,-4748.527641,4442.171019,11641.551636
1181.918467,8348.217949,8195.039638,9573.644437
1181.918770,18304.808164,4288.992708,8807.752882
1181.919074,23053.335805,919.069866,6739.845684
1181.919378,25580.777937,-382.945777,6280.310751
1181.919681,19147.288875,-3293.333686,6050.543284
1181.919948,7735.504705,-8271.628794,8501.396260
1181.920249,-6510.078217,-5667.597507,11488.373325
1181.920550,-14628.528700,-3906.046930,10875.660081
1181.920851,-19683.412963,-689.302399,9803.411904
1181.921152,-26193.491181,1225.426488,13862.637145
1181.921452,-24891.475537,2144.496354,17232.559987
1181.921753,-14475.350389,3523.101153,16083.722655
1181.922054,153.178311,7888.683016,12101.086569
1181.922371,14858.296167,6816.434839,8654.574571
1181.922669,22746.979183,459.534933,8654.574571
1181.922967,25427.599626,2450.852976,6356.899906
1181.923265,23359.692427,1225.426488,3829.457775
1181.923563,7275.969772,-6893.023995,7735.504705
1181.923861,-8271.628794,-10339.535992,12101.086569
1181.924159,-15394.420255,-7352.558928,11718.140791
1181.924457,-18228.219009,-4901.705952,11028.838392
1181.924721,-21598.141851,-4518.760174,14168.993767
1181.925024,-16849.614210,-1608.372265,15088.063633
1181.925326,-9190.698660,919.069866,12484.032346
1181.925628,2527.442131,3216.744531,11182.016703
1181.925931,8041.861327,1072.248177,10875.660081
1181.926233,14858.296167,-3140.155375,9573.644437
1181.926536,20525.893674,-4059.225241,8041.861327
1181.926838,22593.800872,-2680.620442,4825.116796
1181.927168,16236.900966,-4671.938485,6280.310751
1181.927465,6739.845684,-5054.884263,8195.039638
1181.927762,-1148.837332,153.178311,9190.698660
1181.928059,-10799.070925,-536.124088,10109.768526
1181.928356,-21368.374384,-1914.728887,13709.458834
1181.928653,-25044.653848,-0.000000,16236.900966
1181.928950,-22057.676784,1991.318043,14628.528700
1181.929247,-12101.086569,1531.783110,12790.388968
1181.929555,-2374.263820,1838.139732,14015.815456
1181.929855,12330.854035,5131.473418,11335.195014
1181.930154,21674.731006,3523.101153,7735.504705
1181.930454,24661.708071,4595.349330,5054.884263
1181.930754,17845.273231,3982.636086,6127.132440
1181.931054,7888.683016,-1914.728887,6510.078217
1181.931354,-2757.209598,-1761.550576,9573.644437
1181.931654,-11718.140791,-1455.193954,11335.195014
1181.931935,-18840.932253,-5820.775818,11794.729947
1181.932240,-20449.304518,-2680.620442,15547.598566
1181.932544,-15547.598566,-995.659021,14551.939545
1181.932848,-8118.450483,-0.000000,11488.373325
1181.933152,-2450.852976,-842.480710,12330.854035
1181.933456,9267.287815,459.534933,9956.590215
1181.933760,17692.094920,-229.767466,7888.683016
1181.934064,21521.552695,-995.659021,6280.310751
1181.934382,18304.808164,-2221.085509,8807.752882
1181.934679,11335.195014,-3752.868619,9420.466126
1181.934977,6586.667373,-3293.333686,6663.256528
1181.935274,-2604.031287,-536.124088,7965.272172
1181.935571,-18075.040698,-5208.062574,12713.799813
1181.935869,-25810.545403,-5208.062574,16849.614210
1181.936166,-21598.141851,765.891555,15088.063633
1181.936464,-16696.435899,919.069866,13632.869679
1181.936787,-8271.628794,1531.783110,13173.334746
1181.937078,4671.938485,3369.922842,10569.303459
1181.937370,18917.521408,4748.527641,6816.434839
1181.937661,24048.994827,459.534933,6433.489062
1181.937953,21368.374384,-1761.550576,7888.683016
1181.938244,20679.071985,-1302.015643,5284.651729
1181.938536,12177.675724,-1302.015643,6663.256528
1181.938827,-2450.852976,-3599.690308,9956.590215
1181.939136,-14934.885322,-4901.705952,13249.923901
1181.939434,-21062.017762,-3906.046930,13786.047990
1181.939733,-21215.196073,612.713244,13632.869679
1181.940031,-20908.839451,-842.480710,14705.117856
1181.940330,-15088.063633,-76.589155,15241.241944
1181.940628,-689.302399,3829.457775,12407.443191
1181.940927,10875.660081,3216.744531,8424.807105
1181.941225,18304.808164,153.178311,8501.396260
1181.941533,21368.374384,153.178311,5284.651729
1181.941833,20832.250296,306.356622,6356.899906
1181.942134,11488.373325,-3446.511997,6433.489062
1181.942434,-1914.728887,-5973.954129,10569.303459
1181.942735,-10645.892614,-4671.938485,12790.388968
1181.943035,-15853.955188,-3293.333686,11794.729947
1181.943336,-20142.947896,-4059.225241,13709.458834
1181.943636,-17768.684076,-689.302399,14322.172078
1181.943933,-13020.156435,765.891555,13173.334746
1181.944232,-1608.372265,1838.139732,11182.016703
1181.944532,7429.148083,2144.496354,10569.303459
1181.944831,14551.939545,-1302.015643,8807.752882
1181.945131,20219.537052,-1761.550576,8654.574571
1181.945431,21291.785229,-536.124088,6280.310751
1181.945730,15164.652789,-3446.511997,5667.597507
1181.946030,7122.791461,-3752.868619,7275.969772
1181.946325,-5131.473418,-2221.085509,10109.768526
1181.946625,-14628.528700,-5514.419196,11335.195014
1181.946925,-20755.661140,-3599.690308,14015.815456
1181.947225,-19683.412963,-995.659021,14398.761234
1181.947525,-16619.846743,1225.426488,13709.458834
1181.947825,-8271.628794,765.891555,13709.458834
1181.948125,7122.791461,6356.899906,9650.233593
1181.948425,16543.257588,7582.326394,6663.256528
1181.948737,20219.537052,1838.139732,9114.109504
1181.949035,17385.738298,306.356622,9420.466126
1181.949332,14398.761234,1838.139732,8731.163727
1181.949630,8960.931193,-382.945777,6663.256528
1181.949927,-5897.364973,-2221.085509,9880.001059
1181.950224,-15547.598566,-3599.690308,12254.264880
1181.950522,-20296.126207,-689.302399,12713.799813
1181.950819,-23283.103272,-229.767466,14628.528700
1181.951128,-20908.839451,-1148.837332,15241.241944
1181.951428,-13326.513057,-536.124088,15088.063633
1181.951727,1072.248177,1838.139732,11182.016703
1181.952027,12330.854035,2297.674665,9650.233593
1181.952326,20066.358741,-1761.550576,7429.148083
1181.952625,23206.514116,-4059.225241,6816.434839
1181.952925,22287.444250,-3599.690308,6356.899906
1181.953224,13556.280523,-5054.884263,6356.899906
1181.953565,1838.139732,-6433.489062,8807.752882
1181.953858,-7122.791461,-2221.085509,9573.644437
1181.954151,-17002.792521,-1761.550576,11641.551636
1181.954445,-21751.320162,-2067.907198,15394.420255
1181.954738,-22670.390028,1072.248177,14322.172078
1181.955031,-15088.063633,2757.209598,12560.621502
1181.955325,-4748.527641,2450.852976,11794.729947
1181.955618,2833.798753,-1148.837332,11718.140791
1181.955934,13096.745590,-1148.837332,11182.016703
1181.956232,20372.715363,-2527.442131,8577.985416
1181.956530,22134.265939,-2680.620442,6510.078217
1181.956827,19760.002119,-1608.372265,5667.597507
1181.957125,12484.032346,-382.945777,5973.954129
1181.957423,2833.798753,919.069866,5744.186662
1181.957721,-7352.558928,1991.318043,8654.574571
1181.958018,-19989.769585,-1914.728887,13403.102212
1181.958333,-26499.847803,-2833.798753,17768.684076
1181.958631,-24891.475537,-1148.837332,16390.079277
1181.958930,-14628.528700,-0.000000,13403.102212
1181.959229,-536.124088,1225.426488,12407.443191
1181.959527,8807.752882,765.891555,10722.481770
1181.959826,21521.552695,1531.783110,8960.931193
1181.960125,25733.956248,2604.031287,5361.240885
1181.960424,21674.731006,1991.318043,5973.954129
1181.960712,12943.567279,-1761.550576,8041.861327
1181.961014,-689.302399,-1455.193954,7965.272172
1181.961317,-8884.342038,1225.426488,7888.683016
1181.961619,-21444.963540,-1914.728887,12713.799813
1181.961921,-29946.359800,-7505.737239,19147.288875
1181.962224,-26346.669492,-2680.620442,18304.808164
1181.962526,-15394.420255,-1302.015643,12943.567279
1181.962829,-2067.907198,1531.783110,12560.621502
1181.963128,10875.660081,3216.744531,9880.001059
1181.963427,20372.715363,919.069866,9267.287815
1181.963727,25887.134559,1378.604799,6663.256528
1181.964026,24968.064693,-76.589155,2833.798753
1181.964325,16390.079277,-3906.046930,6816.434839
1181.964625,5667.597507,-6739.845684,6893.023995
1181.964924,-5131.473418,-5514.419196,8195.039638
1181.965223,-17462.327454,-5820.775818,12407.443191
1181.965530,-25657.367092,-7505.737239,15394.420255
1181.965829,-25351.010470,-3599.690308,17002.792521
1181.966129,-18228.219009,3369.922842,15241.241944
1181.966428,-7658.915550,4288.992708,11641.551636
1181.966727,6280.310751,6510.078217,10033.179370
1181.967026,17998.451542,5437.830040,9420.466126
1181.967326,26576.436958,765.891555,5897.364973
1181.967625,26882.793580,-0.000000,5361.240885
1181.967945,21981.087628,-76.589155,4288.992708
1181.968242,9420.466126,-5208.062574,7505.737239
1181.968539,-4825.116796,-3599.690308,10109.768526
1181.968836,-16849.614210,-2680.620442,11182.016703
1181.969133,-26653.026114,-2527.442131,13479.691368
1181.969430,-31861.088688,-2986.977064,16313.490121
1181.969727,-28491.165846,612.713244,18611.164786
1181.970024,-16849.614210,1838.139732,15547.598566
1181.970343,-0.000000,4748.527641,10262.946837
1181.970641,16543.257588,5131.473418,8960.931193
1181.970939,26576.436958,1072.248177,6969.613150
1181.971238,27955.041757,-2221.085509,6127.132440
1181.971536,24661.708071,-1302.015643,6356.899906
1181.971834,13096.745590,-4518.760174,6586.667373
1181.972132,2144.496354,-6280.310751,7582.326394
1181.972431,-10033.179370,-3293.333686,9573.644437
1181.972743,-21368.374384,-4825.116796,12790.388968
1181.973039,-26959.382736,-5208.062574,15930.544344
1181.973335,-26116.902025,-1148.837332,15088.063633
1181.973632,-17309.149143,1531.783110,17155.970832
1181.973928,-4825.116796,3369.922842,13326.513057
1181.974224,10722.481770,6969.613150,8195.039638
1181.974520,21981.087628,6050.543284,7275.969772
1181.974816,26270.080336,-382.945777,7275.969772
1181.975115,26116.902025,-0.000000,7122.791461
1181.975416,20679.071985,153.178311,4748.527641
1181.975717,8654.574571,-3293.333686,6127.132440
1181.976017,-6356.899906,-4825.116796,10722.481770
1181.976318,-18228.219009,-3140.155375,11947.908258
1181.976619,-25963.723714,-2067.907198,13249.923901
1181.976920,-28567.755001,612.713244,15088.063633
1181.977220,-25351.010470,-0.000000,15777.366033
1181.977527,-13326.513057,1684.961421,14934.885322
1181.977824,3293.333686,3369.922842,10262.946837
1181.978120,17998.451542,2450.852976,9343.876971
1181.978416,27189.150202,-2374.263820,6969.613150
1181.978712,30482.483889,-3446.511997,5820.775818
1181.979009,26040.312870,-2680.620442,5897.364973
1181.979305,11794.729947,-5667.597507,6586.667373
1181.979601,-4748.527641,-6739.845684,8960.931193
1181.979909,-16007.133499,-2221.085509,10569.303459
1181.980211,-27265.739358,-2680.620442,14628.528700
1181.980513,-30942.018822,-1302.015643,16543.257588
1181.980814,-25504.188781,3369.922842,17309.149143
1181.981116,-14322.172078,5744.186662,13709.458834
1181.981418,-1914.728887,3523.101153,12254.264880
1181.981720,7735.504705,2297.674665,12330.854035
1181.982022,20679.071985,-1148.837332,8884.342038
1181.982341,28414.576690,-3293.333686,6356.899906
1181.982636,27648.685135,-4671.938485,4442.171019
1181.982931,20525.893674,-7812.093861,5820.775818
1181.983226,9497.055282,-7352.558928,6816.434839
1181.983521,-229.767466,-4059.225241,7582.326394
1181.983816,-15241.241944,-3599.690308,10492.714303
1181.984112,-24738.297226,-2374.263820,13249.923901
1181.984407,-29180.468245,306.356622,16543.257588
1181.984724,-23972.405671,3982.636086,15700.776877
1181.985022,-13479.691368,4595.349330,14322.172078
1181.985320,1684.961421,6663.256528,11488.373325
1181.985618,15164.652789,6050.543284,10262.946837
1181.985915,26576.436958,1991.318043,8271.628794
1181.986213,30176.127267,3063.566220,3829.457775
1181.986511,23742.638205,1684.961421,5667.597507
1181.986809,10722.481770,-4212.403552,6969.613150
1181.987109,-2450.852976,-4825.116796,8960.931193
1181.987409,-14475.350389,-536.124088,10033.179370
1181.987709,-26346.669492,-2986.977064,13709.458834
1181.988009,-32473.801932,-3140.155375,17462.327454
1181.988309,-25197.832159,1684.961421,16849.614210
1181.988609,-14628.528700,4288.992708,13709.458834
1181.988909,459.534933,3369.922842,11871.319102
1181.989209,13096.745590,4825.116796,10875.660081
1181.989499,25121.243004,-0.000000,8195.039638
1181.989798,29257.057401,-1455.193954,6280.310751
1181.990097,26576.436958,-2986.977064,4901.705952
1181.990396,14705.117856,-6433.489062,6969.613150
1181.990694,919.069866,-9037.520349,8807.752882
1181.990993,-11105.427547,-5208.062574,10569.303459
1181.991292,-22670.390028,-4901.705952,13556.280523
1181.991590,-27265.739358,-4059.225241,13632.869679
1181.991897,-28031.630913,-1302.015643,15700.776877
1181.992202,-18534.575631,1684.961421,15700.776877
1181.992507,-5437.830040,2604.031287,13862.637145
1181.992811,10569.303459,3216.744531,9650.233593
1181.993116,25733.956248,919.069866,7429.148083
1181.993421,32856.747709,-2986.977064,7582.326394
1181.993725,32397.212776,-2221.085509,4748.527641
1181.994030,24202.173138,-1302.015643,3446.511997
1181.994313,7888.683016,-5208.062574,6127.132440
1181.994610,-10339.535992,-5667.597507,11947.908258
1181.994906,-22670.390028,-3446.511997,13786.047990
1181.995202,-30405.894733,-1608.372265,13173.334746
1181.995499,-33086.515176,919.069866,15394.420255
1181.995795,-27112.561047,612.713244,16696.435899
1181.996091,-14092.404612,3216.744531,15547.598566
1181.996387,6127.132440,7122.791461,9956.590215
1181.996715,20372.715363,6816.434839,6433.489062
1181.997011,27801.863446,-0.000000,7122.791461
1181.997307,28950.700779,-2986.977064,7582.326394
1181.997604,25733.956248,-842.480710,5131.473418
1181.997900,13556.280523,-2221.085509,6127.132440
1181.998196,-2604.031287,-5514.419196,9650.233593
1181.998492,-14092.404612,-2374.263820,12713.799813
1181.998788,-22670.390028,-1761.550576,13862.637145
1181.999100,-26499.847803,-229.767466,15164.652789
1181.999400,-26346.669492,3829.457775,15088.063633
1181.999700,-18687.753942,4595.349330,16083.722655
1182.000000,-6050.543284,5284.651729,13249.923901
1182.000300,7735.504705,6816.434839,8807.752882
1182.000600,17385.738298,1072.248177,9420.466126
1182.000899,25121.243004,-5667.597507,8501.396260
1182.001199,27801.863446,-4212.403552,6356.899906
1182.001508,25580.777937,-2833.798753,3140.155375
1182.001807,11488.373325,-6586.667373,5973.954129
1182.002105,-3523.101153,-7352.558928,11182.016703
1182.002404,-13020.156435,-4825.116796,12101.086569
1182.002702,-20602.482829,-2527.442131,11488.373325
1182.003001,-26116.902025,-689.302399,13862.637145
1182.003299,-25504.188781,306.356622,16083.722655
1182.003598,-15700.776877,1531.783110,15241.241944
1182.003905,153.178311,5744.186662,9573.644437
1182.004205,13403.102212,5591.008351,9343.876971
1182.004506,21827.909317,-229.767466,10722.481770
1182.004806,26116.902025,-536.124088,5361.240885
1182.005107,25580.777937,612.713244,5054.884263
1182.005408,12330.854035,-3599.690308,5973.954129
1182.005708,-2067.907198,-6739.845684,9956.590215
1182.006009,-13020.156435,-3446.511997,11794.729947
1182.006305,-18075.040698,-689.302399,11335.195014
1182.006604,-25504.188781,-2374.263820,14705.117856
1182.006903,-24585.118915,-536.124088,15930.544344
1182.007202,-15700.776877,2297.674665,12790.388968
1182.007501,-3982.636086,1838.139732,11564.962480
1182.007799,5054.884263,306.356622,13096.745590
1182.008098,14858.296167,-3140.155375,11105.427547
1182.008397,26882.793580,-2833.798753,6893.023995
1182.008692,28108.220068,-842.480710,4288.992708
1182.008992,18457.986475,-3293.333686,5667.597507
1182.009292,4671.938485,-5973.954129,9573.644437
1182.009592,-6356.899906,-2221.085509,10262.946837
1182.009892,-14092.404612,306.356622,11028.838392
1182.010192,-23589.459894,-842.480710,13479.691368
1182.010493,-27418.917669,-382.945777,16390.079277
1182.010793,-21215.196073,3369.922842,15394.420255
1182.011081,-7658.915550,3523.101153,11794.729947
1182.011381,4748.527641,3369.922842,10262.946837
1182.011681,14398.761234,1684.961421,10799.070925
1182.011981,25733.956248,-3906.046930,9114.109504
1182.012281,30329.305578,-842.480710,4595.349330
1182.012581,22746.979183,-0.000000,4901.705952
1182.012881,11488.373325,-4518.760174,7735.504705
1182.013181,-3216.744531,-3446.511997,9420.466126
1182.013481,-8577.985416,1838.139732,9726.822748
1182.013781,-20602.482829,-76.589155,11488.373325
1182.014081,-29180.468245,-2833.798753,15853.955188
1182.014381,-27418.917669,-536.124088,17155.970832
1182.014681,-16160.311810,2297.674665,14628.528700
1182.014981,-3676.279464,2450.852976,10875.660081
1182.015281,9267.287815,2757.209598,10186.357681
1182.015581,18764.343097,-2680.620442,10109.768526
1182.015888,25274.421315,-2833.798753,6280.310751
1182.016189,25274.421315,306.356622,5514.419196
1182.016491,15624.187722,-2986.977064,5514.419196
1182.016792,3752.868619,-6280.310751,8501.396260
1182.017093,-7122.791461,-3293.333686,11411.784169
1182.017395,-15853.955188,-1761.550576,11411.784169
1182.017696,-21751.320162,-1761.550576,14398.761234
1182.017998,-24278.762293,-536.124088,15547.598566
1182.018314,-18840.932253,-1455.193954,15853.955188
1182.018612,-9497.055282,-76.589155,13862.637145
1182.018911,4059.225241,919.069866,9420.466126
1182.019209,14705.117856,459.534933,9114.109504
1182.019508,21138.606918,-3752.868619,8041.861327
1182.019806,24661.708071,-1148.837332,7275.969772
1182.020105,23359.692427,765.891555,3829.457775
1182.020403,14398.761234,-1302.015643,4135.814397
1182.020717,-2450.852976,-4212.403552,10722.481770
1182.021012,-14934.885322,-3906.046930,14322.172078
1182.021307,-19530.234652,-1302.015643,14015.815456
1182.021602,-19989.769585,612.713244,12101.086569
1182.021897,-18994.110564,-229.767466,14781.707011
1182.022192,-13479.691368,-1455.193954,14934.885322
1182.022487,1684.961421,4748.527641,9956.590215
1182.022782,10875.660081,5437.830040,9037.520349
1182.023095,15011.474478,1072.248177,8654.574571
1182.023393,14705.117856,-2067.907198,9803.411904
1182.023692,13096.745590,-76.589155,8807.752882
1182.023990,12024.497413,612.713244,6127.132440
1182.024288,765.891555,-2374.263820,7199.380617
1182.024587,-6050.543284,-1302.015643,11258.605858
1182.024885,-12254.264880,-1302.015643,12407.443191
1182.025184,-15700.776877,-3293.333686,13326.513057
1182.025484,-12560.621502,1072.248177,12790.388968
1182.025783,-13326.513057,-995.659021,14628.528700
1182.026082,-5744.186662,-3293.333686,14015.815456
1182.026381,5054.884263,1072.248177,9573.644437
1182.026681,12790.388968,153.178311,7582.326394
1182.026980,16926.203365,-2680.620442,8195.039638
1182.027279,14168.993767,-2986.977064,9573.644437
1182.027578,13096.745590,-76.589155,7505.737239
1182.027885,6739.845684,153.178311,6739.845684
1182.028188,-4595.349330,-0.000000,10722.481770
1182.028490,-12866.978124,-1302.015643,12943.567279
1182.028793,-18687.753942,-2374.263820,14475.350389
1182.029096,-19530.234652,-995.659021,14245.582923
1182.029398,-14781.707011,-1148.837332,12713.799813
1182.029701,-6356.899906,-2680.620442,11335.195014
1182.030003,4365.581863,-2067.907198,10033.179370
1182.030277,12330.854035,-842.480710,8960.931193
1182.030581,19453.645497,-2374.263820,7888.683016
1182.030885,21521.552695,-842.480710,5514.419196
1182.031188,17845.273231,1531.783110,6356.899906
1182.031492,8960.931193,-2986.977064,7582.326394
1182.031796,-2757.209598,-1761.550576,8884.342038
1182.032099,-12560.621502,-2221.085509,12024.497413
1182.032403,-17921.862387,-2833.798753,13632.869679
1182.032676,-21904.498473,-3293.333686,16236.900966
1182.032975,-15241.241944,2757.209598,15547.598566
1182.033274,-7122.791461,4978.295107,10875.660081
1182.033574,1225.426488,5591.008351,9803.411904
1182.033873,6739.845684,3676.279464,10109.768526
1182.034172,11028.838392,1684.961421,9803.411904
1182.034472,15164.652789,306.356622,7275.969772
1182.034771,13403.102212,-382.945777,7429.148083
1182.035088,8960.931193,-3293.333686,8501.396260
1182.035398,2680.620442,-5514.419196,9114.109504
1182.035708,-2604.031287,-1608.372265,10416.125148
1182.036018,-8731.163727,-3293.333686,12177.675724
1182.036328,-14781.707011,-2680.620442,13173.334746
1182.036638,-15394.420255,-689.302399,14934.885322
1182.036948,-15394.420255,459.534933,14168.993767
1182.037259,-6356.899906,1225.426488,11564.962480
1182.037464,1991.318043,1225.426488,9956.590215
1182.037764,8960.931193,153.178311,9267.287815
1182.038063,15164.652789,-3446.511997,8960.931193
1182.038363,16083.722655,-3446.511997,8501.396260
1182.038663,16619.846743,-689.302399,6356.899906
1182.038962,11641.551636,-3446.511997,7582.326394
1182.039262,459.534933,-2067.907198,9037.520349
1182.039562,-4595.349330,459.534933,9343.876971
1182.039892,-13939.226301,-1914.728887,12254.264880
1182.040189,-19223.878030,-536.124088,14475.350389
1182.040486,-16619.846743,-229.767466,15088.063633
1182.040783,-10952.249236,306.356622,12330.854035
1182.041080,-1148.837332,3523.101153,10569.303459
1182.041376,5667.597507,-842.480710,10186.357681
1182.041673,10569.303459,-1914.728887,10569.303459
1182.041970,15624.187722,-2067.907198,8960.931193
1182.042278,15624.187722,-995.659021,6433.489062
1182.042578,11028.838392,-1302.015643,6663.256528
1182.042878,2833.798753,-2986.977064,8960.931193
1182.043178,-3216.744531,153.178311,10645.892614
1182.043477,-9037.520349,919.069866,10799.070925
1182.043777,-16849.614210,-1761.550576,14475.350389
1182.044077,-16696.435899,1684.961421,14015.815456
1182.044377,-11258.605858,2144.496354,13403.102212
1182.044660,-5897.364973,306.356622,11411.784169
1182.044963,2297.674665,459.534933,10109.768526
1182.045266,7582.326394,-2374.263820,10722.481770
1182.045569,14245.582923,-3140.155375,9267.287815
1182.045872,16543.257588,153.178311,8807.752882
1182.046175,14245.582923,765.891555,5361.240885
1182.046478,9114.109504,-229.767466,5667.597507
1182.046780,-3369.922842,-1302.015643,9956.590215
1182.047062,-12866.978124,-3599.690308,14168.993767
1182.047364,-18534.575631,-2833.798753,13709.458834
1182.047666,-16160.311810,612.713244,12943.567279
1182.047968,-12407.443191,765.891555,13096.745590
1182.048270,-7965.272172,-3140.155375,12637.210657
1182.048572,1991.318043,-76.589155,12254.264880
1182.048874,11335.195014,1684.961421,9267.287815
1182.049176,17385.738298,-1302.015643,8501.396260
1182.049465,16390.079277,-1761.550576,8807.752882
1182.049765,15471.009411,306.356622,6356.899906
1182.050064,11871.319102,-0.000000,4212.403552
1182.050363,2297.674665,1378.604799,7582.326394
1182.050662,-7505.737239,-689.302399,10569.303459
1182.050961,-17615.505765,-1761.550576,14628.528700
1182.051260,-19070.699719,-689.302399,15547.598566
1182.051559,-14934.885322,1378.604799,12407.443191
1182.051873,-13326.513057,-995.659021,15164.652789
1182.052172,-4978.295107,-3906.046930,13096.745590
1182.052471,7429.148083,1531.783110,9114.109504
1182.052769,14398.761234,-1148.837332,7352.558928
1182.053068,15624.187722,-6433.489062,9573.644437
1182.053367,14015.815456,-4671.938485,10569.303459
1182.053665,16083.722655,-2067.907198,4748.527641
1182.053964,8654.574571,-689.302399,5054.884263
1182.054271,-3676.279464,153.178311,10109.768526
1182.054571,-15088.063633,-2833.798753,13862.637145
1182.054871,-19223.878030,-76.589155,14475.350389
1182.055170,-18840.932253,1684.961421,13249.923901
1182.055470,-15241.241944,-0.000000,14475.350389
1182.055770,-9573.644437,-3599.690308,14781.707011
1182.056070,2144.496354,-1914.728887,11488.373325
1182.056369,11871.319102,2757.209598,8960.931193
1182.056699,17998.451542,-1608.372265,7888.683016
1182.056994,17845.273231,-2986.977064,8348.217949
1182.057289,17998.451542,153.178311,6050.543284
1182.057584,11641.551636,-995.659021,5667.597507
1182.057878,-229.767466,-1914.728887,8041.861327
1182.058173,-7658.915550,-689.302399,10875.660081
1182.058468,-13632.869679,-2986.977064,11947.908258
1182.058763,-15547.598566,-1455.193954,12713.799813
1182.059058,-15853.955188,-229.767466,14934.885322
1182.059359,-12101.086569,-382.945777,13862.637145
1182.059659,-3523.101153,459.534933,12254.264880
1182.059960,2680.620442,459.534933,13862.637145
1182.060261,12790.388968,1838.139732,9420.466126
1182.060562,19453.645497,3523.101153,6356.899906
1182.060863,19147.288875,3523.101153,4748.527641
1182.061164,14398.761234,765.891555,4748.527641
1182.061452,1991.318043,-2374.263820,9267.287815
1182.061753,-4978.295107,-1455.193954,10416.125148
1182.062054,-15700.776877,-4365.581863,12560.621502
1182.062354,-22823.568339,-7658.915550,15241.241944
1182.062655,-22976.746650,-4671.938485,16696.435899
1182.062956,-13020.156435,-1455.193954,13403.102212
1182.063257,-3369.922842,-0.000000,11794.729947
1182.063557,5208.062574,3216.744531,10875.660081
1182.063867,15471.009411,2604.031287,8654.574571
1182.064166,21521.552695,2450.852976,7275.969772
1182.064465,20985.428607,153.178311,5973.954129
1182.064765,14245.582923,-2986.977064,7505.737239
1182.065064,5054.884263,-4901.705952,8654.574571
1182.065364,-6203.721595,-5208.062574,9956.590215
1182.065663,-13479.691368,-5667.597507,12713.799813
1182.065962,-18687.753942,-6127.132440,12560.621502
1182.066269,-18994.110564,-3293.333686,14551.939545
1182.066569,-16466.668432,-1455.193954,14092.404612
1182.066869,-9037.520349,-76.589155,12560.621502
1182.067168,2144.496354,3216.744531,11564.962480
1182.067468,11871.319102,3982.636086,9420.466126
1182.067768,19147.288875,919.069866,8654.574571
1182.068067,22746.979183,1838.139732,6356.899906
1182.068367,21291.785229,3982.636086,4288.992708
1182.068664,12790.388968,-842.480710,4595.349330
1182.068962,-3523.101153,-4059.225241,9803.411904
1182.069260,-15700.776877,-4671.938485,12407.443191
1182.069558,-20755.661140,-2527.442131,13249.923901
1182.069856,-25657.367092,-2221.085509,14628.528700
1182.070154,-22823.568339,-842.480710,15547.598566
1182.070452,-15088.063633,153.178311,15547.598566
1182.070750,612.713244,2757.209598,10262.946837
1182.071065,14551.939545,5131.473418,8960.931193
1182.071363,22593.800872,1531.783110,7352.558928
1182.071662,25733.956248,-2680.620442,7582.326394
1182.071961,21981.087628,-689.302399,7352.558928
1182.072259,16926.203365,-1302.015643,6127.132440
1182.072558,1991.318043,-2221.085509,8960.931193
1182.072857,-10645.892614,-76.589155,10569.303459
1182.073156,-19377.056341,-382.945777,11182.016703
1182.073444,-24278.762293,765.891555,15088.063633
1182.073744,-26653.026114,-1148.837332,17002.792521
1182.074044,-19070.699719,-1302.015643,16390.079277
1182.074344,-6356.899906,1378.604799,13403.102212
1182.074644,7429.148083,-0.000000,8731.163727
1182.074944,15164.652789,-1608.372265,9956.590215
1182.075244,21981.087628,-5054.884263,9267.287815
1182.075544,24508.529760,-4825.116796,5361.240885
1182.075843,19147.288875,-2067.907198,6356.899906
1182.076142,9497.055282,-6586.667373,5667.597507
1182.076442,-3523.101153,-4518.760174,10416.125148
1182.076741,-10492.714303,153.178311,10875.660081
1182.077040,-17155.970832,1225.426488,11105.427547
1182.077339,-24125.583982,1072.248177,15164.652789
1182.077639,-20602.482829,3369.922842,15624.187722
1182.077938,-10952.249236,4825.116796,13096.745590
1182.078245,-0.000000,4978.295107,10569.303459
1182.078545,8960.931193,2757.209598,10645.892614
1182.078845,16619.846743,306.356622,10569.303459
1182.079145,21291.785229,-2221.085509,6663.256528
1182.079445,19760.002119,-2986.977064,6356.899906
1182.079745,14245.582923,-4212.403552,6969.613150
1182.080045,2986.977064,-4825.116796,6969.613150
1182.080345,-5284.651729,-1148.837332,9190.698660
1182.080666,-16007.133499,-3599.690308,10416.125148
1182.080963,-22670.390028,-2680.620442,14475.350389
1182.081260,-23819.227360,-229.767466,15394.420255
1182.081557,-17768.684076,919.069866,14322.172078
1182.081854,-7658.915550,1531.783110,14628.528700
1182.082151,5514.419196,2450.852976,11488.373325
1182.082448,16543.257588,3063.566220,8654.574571
1182.082745,24202.173138,1378.604799,7658.915550
1182.083063,24508.529760,1838.139732,6280.310751
1182.083362,18917.521408,2297.674665,6356.899906
1182.083660,8195.039638,-842.480710,7505.737239
1182.083958,-4748.527641,-1761.550576,9267.287815
1182.084256,-18381.397320,-3599.690308,13096.745590
1182.084554,-26193.491181,-7352.558928,13862.637145
1182.084853,-28491.165846,-5667.597507,18228.219009
1182.085151,-21215.196073,-4901.705952,15394.420255
1182.085464,-8118.450483,-2221.085509,11641.551636
1182.085760,5820.775818,612.713244,11641.551636
1182.086056,16543.257588,612.713244,8118.450483
1182.086352,26423.258647,612.713244,6663.256528
1182.086648,27648.685135,2450.852976,5973.954129
1182.086944,23895.816516,1531.783110,5744.186662
1182.087240,11794.729947,-382.945777,6969.613150
1182.087536,306.356622,1684.961421,7275.969772
1182.087836,-12254.264880,1378.604799,10645.892614
1182.088136,-24431.940604,-2067.907198,14628.528700
1182.088437,-31401.553755,-4365.581863,16696.435899
1182.088738,-25963.723714,306.356622,15700.776877
1182.089039,-18381.397320,-1455.193954,14858.296167
1182.089339,-6510.078217,-3140.155375,13249.923901
1182.089640,10416.125148,-76.589155,10262.946837
1182.089941,25274.421315,2450.852976,6127.132440
1182.090248,30022.948956,-1761.550576,5284.651729
1182.090545,26576.436958,-1302.015643,5667.597507
1182.090842,18611.164786,-1608.372265,6280.310751
1182.091138,7582.326394,-1148.837332,7352.558928
1182.091435,-5897.364973,306.356622,9420.466126
1182.091732,-20296.126207,-3140.155375,12713.799813
1182.092029,-26499.847803,-3140.155375,15930.544344
1182.092326,-28337.987535,-995.659021,17615.505765
1182.092640,-19836.591274,3216.744531,15088.063633
1182.092943,-10339.535992,1684.961421,12866.978124
1182.093245,919.069866,1072.248177,11105.427547
1182.093548,13403.102212,1378.604799,10109.768526
1182.093851,21827.909317,-536.124088,7122.791461
1182.094154,23053.335805,-3140.155375,6663.256528
1182.094457,21368.374384,-2374.263820,6893.023995
1182.094759,16543.257588,-5208.062574,5820.775818
1182.095032,3446.511997,-4365.581863,8195.039638
1182.095335,-6050.543284,-3906.046930,8577.985416
1182.095637,-18534.575631,-4825.116796,12330.854035
1182.095940,-24891.475537,-3293.333686,17155.970832
1182.096243,-22210.855095,-689.302399,15547.598566
1182.096545,-16007.133499,1991.318043,14015.815456
1182.096848,-3063.566220,4288.992708,10569.303459
1182.097150,6280.310751,3829.457775,10492.714303
1182.097468,16236.900966,2450.852976,9114.109504
1182.097762,21827.909317,612.713244,7429.148083
1182.098057,23359.692427,1531.783110,5667.597507
1182.098351,16236.900966,-2527.442131,6356.899906
1182.098646,3599.690308,-5514.419196,8807.752882
1182.098940,-6663.256528,-3446.511997,10416.125148
1182.099235,-16007.133499,-2986.977064,12254.264880
1182.099529,-21598.141851,-1302.015643,12560.621502
1182.099829,-21598.141851,-0.000000,14628.528700
1182.100129,-17921.862387,459.534933,13786.047990
1182.100429,-4825.116796,1838.139732,11028.838392
1182.100729,5667.597507,1684.961421,9803.411904
1182.101029,13096.745590,-689.302399,10033.179370
1182.101329,17538.916609,-5514.419196,10875.660081
1182.101629,19147.288875,-4212.403552,7505.737239
1182.101929,17692.094920,-2986.977064,5667.597507
1182.102220,8807.752882,-4059.225241,5973.954129
1182.102522,-2374.263820,-2986.977064,9420.466126
1182.102825,-11564.962480,-842.480710,11488.373325
1182.103127,-18381.397320,-1455.193954,12713.799813
1182.103430,-23436.281583,765.891555,15930.544344
1182.103733,-20296.126207,1378.604799,14934.885322
1182.104035,-12254.264880,612.713244,12254.264880
1182.104338,-536.124088,1838.139732,12254.264880
1182.104646,11794.729947,1531.783110,8041.861327
1182.104946,19913.180430,-2986.977064,9114.109504
1182.105245,22900.157494,-3906.046930,8424.807105
1182.105545,23666.049049,-1761.550576,6356.899906
1182.105845,18611.164786,-1148.837332,5973.954129
1182.106145,3599.690308,-1761.550576,7582.326394
1182.106445,-7505.737239,-0.000000,9956.590215
1182.106745,-18840.932253,1684.961421,13709.458834
1182.107061,-26499.847803,153.178311,14168.993767
1182.107359,-26346.669492,919.069866,16083.722655
1182.107656,-19683.412963,2757.209598,14628.528700
1182.107953,-7122.791461,1378.604799,12101.086569
1182.108251,6280.310751,919.069866,10569.303459
1182.108548,16236.900966,612.713244,9420.466126
1182.108845,24508.529760,-1761.550576,6969.613150
1182.109143,24661.708071,-995.659021,6356.899906
1182.109424,18917.521408,-1761.550576,6280.310751
1182.109724,9420.466126,-1455.193954,6433.489062
1182.110023,-3982.636086,-229.767466,9956.590215
1182.110323,-15088.063633,-2374.263820,12560.621502
1182.110622,-20908.839451,-1761.550576,13556.280523
1182.110922,-23283.103272,-536.124088,14781.707011
1182.111221,-20755.661140,-229.767466,15394.420255
1182.111521,-12407.443191,-2680.620442,13556.280523
1182.111832,-1148.837332,-536.124088,12637.210657
1182.112132,9803.411904,612.713244,10569.303459
1182.112432,17692.094920,-1455.193954,7429.148083
1182.112732,20372.715363,-2221.085509,7582.326394
1182.113032,23666.049049,1225.426488,4901.705952
1182.113333,19147.288875,-382.945777,3982.636086
1182.113633,7429.148083,306.356622,7812.093861
1182.113933,-7965.272172,-3293.333686,11871.319102
1182.114218,-17462.327454,-4901.705952,14628.528700
1182.114520,-20908.839451,-2986.977064,14015.815456
1182.114822,-21215.196073,-536.124088,13403.102212
1182.115124,-18075.040698,-1608.372265,14475.350389
1182.115426,-10645.892614,-842.480710,14322.172078
1182.115727,4748.527641,4288.992708,10262.946837
1182.116029,16390.079277,3369.922842,7429.148083
1182.116331,18917.521408,612.713244,8501.396260
1182.116638,21291.785229,-995.659021,6663.256528
1182.116938,16926.203365,-536.124088,6280.310751
1182.117238,8041.861327,-1302.015643,5973.954129
1182.117537,-4978.295107,-2221.085509,10722.481770
1182.117837,-14781.707011,-4671.938485,13020.156435
1182.118137,-18534.575631,-2986.977064,15241.241944
1182.118437,-18534.575631,1225.426488,16083.722655
1182.118736,-14781.707011,2757.209598,12713.799813
1182.119066,-7965.272172,1225.426488,12101.086569
1182.119360,2680.620442,3676.279464,11105.427547
1182.119654,11488.373325,3063.566220,8654.574571
1182.119948,15624.187722,2297.674665,8654.574571
1182.120243,16236.900966,612.713244,8960.931193
1182.120537,13403.102212,-1148.837332,8041.861327
1182.120831,7735.504705,-1761.550576,7735.504705
1182.121125,-1302.015643,-2833.798753,9114.109504
1182.121420,-10799.070925,-4518.760174,12713.799813
1182.121720,-17615.505765,-5667.597507,13249.923901
1182.122020,-18840.932253,-1608.372265,14551.939545
1182.122320,-16849.614210,-382.945777,14015.815456
1182.122620,-9880.001059,-995.659021,10875.660081
1182.122920,-689.302399,153.178311,11641.551636
1182.123220,11182.016703,919.069866,9803.411904
1182.123521,19606.823808,1072.248177,7275.969772
1182.123809,24202.173138,2144.496354,6127.132440
1182.124110,23895.816516,3982.636086,5820.775818
1182.124410,16236.900966,1072.248177,6969.613150
1182.124711,1378.604799,-995.659021,9573.644437
1182.125012,-9190.698660,-536.124088,10569.303459
1182.125313,-20142.947896,-3140.155375,13249.923901
1182.125614,-27572.095980,-5208.062574,16849.614210
1182.125914,-24738.297226,-4518.760174,15547.598566
1182.126223,-16313.490121,-1148.837332,13403.102212
1182.126523,-4288.992708,-0.000000,11641.551636
1182.126822,8041.861327,1684.961421,9114.109504
1182.127122,19147.288875,2757.209598,6969.613150
1182.127421,23742.638205,1684.961421,6203.721595
1182.127721,22440.622561,612.713244,6280.310751
1182.128020,12484.032346,-2680.620442,8654.574571
1182.128319,2374.263820,-4901.705952,10262.946837
1182.128626,-5591.008351,-2833.798753,10952.249236
1182.128925,-11258.605858,153.178311,10109.768526
1182.129223,-18381.397320,-2374.263820,12560.621502
1182.129521,-21904.498473,-1455.193954,15853.955188
1182.129819,-18381.397320,306.356622,15241.241944
1182.130117,-8731.163727,459.534933,11411.784169
1182.130415,-3216.744531,-1455.193954,12254.264880
1182.130713,5973.954129,-2067.907198,10569.303459
1182.131073,14245.582923,-1914.728887,9114.109504
1182.131365,21138.606918,-229.767466,5820.775818
1182.131658,22287.444250,153.178311,5437.830040
1182.131950,14551.939545,-2374.263820,7275.969772
1182.132242,5514.419196,-1455.193954,8577.985416
1182.132534,-4442.171019,-995.659021,10109.768526
1182.132826,-12713.799813,-1148.837332,11335.195014
1182.133118,-19530.234652,-2374.263820,15317.831100
1182.133433,-19223.878030,1072.248177,15241.241944
1182.133732,-10492.714303,2144.496354,11794.729947
1182.134030,-1302.015643,4595.349330,10722.481770
1182.134329,8348.217949,3829.457775,9037.520349
1182.134628,11182.016703,153.178311,9956.590215
1182.134927,15011.474478,-1608.372265,9497.055282
1182.135225,14015.815456,-995.659021,7582.326394
1182.135524,10569.303459,306.356622,8195.039638
1182.135812,2297.674665,-2374.263820,8195.039638
1182.136110,-4595.349330,306.356622,10569.303459
1182.136408,-11411.784169,306.356622,11258.605858
1182.136706,-19070.699719,-1302.015643,14015.815456
1182.137004,-19989.769585,-842.480710,14628.528700
1182.137302,-16696.435899,153.178311,13096.745590
1182.137601,-7122.791461,-689.302399,13020.156435
1182.137899,4212.403552,-229.767466,11488.373325
1182.138243,12484.032346,306.356622,9573.644437
1182.138536,21827.909317,-382.945777,7352.558928
1182.138830,19760.002119,-2067.907198,7429.148083
1182.139123,16773.025054,-2067.907198,7122.791461
1182.139416,8195.039638,-2527.442131,7888.683016
1182.139710,-2450.852976,-1148.837332,8807.752882
1182.140003,-9880.001059,765.891555,9956.590215
1182.140296,-18075.040698,-1302.015643,11794.729947
1182.140603,-21444.963540,-1455.193954,14934.885322
1182.140907,-19683.412963,-2680.620442,14934.885322
1182.141210,-11947.908258,-3906.046930,14322.172078
1182.141513,-2910.387909,-4212.403552,12943.567279
1182.141817,9497.055282,-2067.907198,9803.411904
1182.142120,19147.288875,-0.000000,7352.558928
1182.142423,21674.731006,-1914.728887,7582.326394
1182.142727,21368.374384,765.891555,6127.132440
1182.142995,16926.203365,3369.922842,6127.132440
1182.143300,6433.489062,1684.961421,5514.419196
1182.143605,-5131.473418,2604.031287,9650.233593
1182.143911,-17615.505765,-536.124088,12866.978124
1182.144216,-20908.839451,-995.659021,13020.156435
1182.144521,-24125.583982,-1761.550576,15241.241944
1182.144826,-21368.374384,-2680.620442,16390.079277
1182.145131,-8577.985416,-3293.333686,15241.241944
1182.145449,6127.132440,919.069866,11028.838392
1182.145743,18611.164786,2757.209598,6816.434839
1182.146037,21521.552695,459.534933,8731.163727
1182.146330,22287.444250,1072.248177,8501.396260
1182.146624,21291.785229,4748.527641,4135.814397
1182.146917,11641.551636,4135.814397,4671.938485
1182.147211,-4288.992708,612.713244,10416.125148
1182.147505,-19377.056341,-2680.620442,14092.404612
1182.147822,-24891.475537,-3906.046930,15394.420255
1182.148118,-25657.367092,-1455.193954,14475.350389
1182.148414,-21598.141851,-3293.333686,14934.885322
1182.148710,-12866.978124,-4825.116796,15471.009411
1182.149006,1072.248177,-689.302399,12254.264880
1182.149302,14168.993767,2757.209598,8501.396260
1182.149598,22593.800872,-229.767466,6356.899906
1182.149894,22134.265939,-1455.193954,6893.023995
1182.150159,22134.265939,-536.124088,6127.132440
1182.150464,14551.939545,306.356622,5667.597507
1182.150770,1225.426488,-536.124088,7735.504705
1182.151076,-8731.163727,-2833.798753,9956.590215
1182.151382,-18687.753942,-2527.442131,14398.761234
1182.151687,-21062.017762,-3752.868619,15088.063633
1182.151993,-19530.234652,-995.659021,13862.637145
1182.152299,-13786.047990,-1455.193954,14322.172078
1182.152606,-4978.295107,-3446.511997,13862.637145
1182.152903,8960.931193,1991.318043,10109.768526
1182.153200,20219.537052,3369.922842,6893.023995
1182.153497,23895.816516,1072.248177,6816.434839
1182.153794,21368.374384,1684.961421,7582.326394
1182.154091,14705.117856,2910.387909,6969.613150
1182.154388,4365.581863,1378.604799,6356.899906
1182.154685,-8271.628794,153.178311,9803.411904
1182.154993,-19836.591274,-1608.372265,13556.280523
1182.155291,-25504.188781,-4059.225241,15853.955188
1182.155590,-27112.561047,-2833.798753,15853.955188
1182.155889,-18534.575631,-842.480710,15241.241944
1182.156188,-6510.078217,-2680.620442,13709.458834
1182.156487,5361.240885,-1608.372265,10875.660081
1182.156786,18994.110564,765.891555,8348.217949
1182.157085,24508.529760,-1302.015643,6663.256528
1182.157402,25274.421315,-1148.837332,6816.434839
1182.157701,18917.521408,-536.124088,6127.132440
1182.158000,8195.039638,-2067.907198,7275.969772
1182.158299,-4288.992708,-2067.907198,8807.752882
1182.158598,-15088.063633,-1761.550576,10569.303459
1182.158897,-23283.103272,-3140.155375,14322.172078
1182.159197,-26653.026114,-3140.155375,16160.311810
1182.159496,-21368.374384,-382.945777,15547.598566
1182.159813,-11718.140791,-995.659021,14475.350389
1182.160111,2144.496354,153.178311,10875.660081
1182.160409,15164.652789,2604.031287,8884.342038
1182.160706,24661.708071,1838.139732,7429.148083
1182.161004,26882.793580,-1302.015643,6127.132440
1182.161302,26116.902025,765.891555,5667.597507
1182.161600,18611.164786,-229.767466,4748.527641
1182.161898,2297.674665,-3599.690308,7965.272172
1182.162198,-12713.799813,-1302.015643,10262.946837
1182.162497,-25810.545403,-689.302399,13709.458834
1182.162796,-31095.197133,-842.480710,15930.544344
1182.163095,-31095.197133,1684.961421,15930.544344
1182.163394,-23436.281583,1684.961421,16083.722655
1182.163693,-6969.613150,3216.744531,13556.280523
1182.163992,12790.388968,6203.721595,9573.644437
1182.164291,26270.080336,4595.349330,7275.969772
1182.164577,31324.964599,-3140.155375,7275.969772
1182.164880,29716.592334,-1761.550576,6969.613150
1182.165183,24508.529760,-536.124088,4442.171019
1182.165485,8041.861327,-3293.333686,5667.597507
1182.165788,-10645.892614,-4212.403552,12024.497413
1182.166091,-25504.188781,-2527.442131,13096.745590
1182.166393,-29486.824867,-2986.977064,14475.350389
1182.166696,-32626.980243,-229.767466,16083.722655
1182.167002,-22823.568339,1072.248177,14475.350389
1182.167299,-10952.249236,306.356622,14398.761234
1182.167597,5208.062574,1991.318043,10492.714303
1182.167894,20066.358741,1072.248177,8731.163727
1182.168191,27342.328513,-3140.155375,7658.915550
1182.168488,27801.863446,-6280.310751,6739.845684
1182.168786,24661.708071,-4059.225241,7199.380617
1182.169083,14705.117856,-2986.977064,4901.705952
1182.169379,-842.480710,-4059.225241,7429.148083
1182.169680,-11871.319102,306.356622,9420.466126
1182.169982,-22057.676784,2297.674665,13249.923901
1182.170283,-28184.809224,1225.426488,15088.063633
1182.170584,-26116.902025,4748.527641,15088.063633
1182.170885,-16619.846743,1072.248177,14092.404612
1182.171186,-3216.744531,-76.589155,12177.675724
1182.171487,11182.016703,612.713244,10952.249236
1182.171782,21138.606918,-842.480710,8577.985416
1182.172083,26270.080336,-3752.868619,7735.504705
1182.172384,27801.863446,-1914.728887,5667.597507
1182.172684,19300.467186,-536.124088,5973.954129
1182.172985,5667.597507,-2221.085509,9037.520349
1182.173286,-7122.791461,1225.426488,8501.396260
1182.173587,-18840.932253,2297.674665,11641.551636
1182.173888,-25963.723714,1225.426488,13709.458834
1182.174176,-28874.111623,3523.101153,15088.063633
1182.174477,-24738.297226,1991.318043,16696.435899
1182.174778,-11871.319102,-689.302399,14781.707011
1182.175078,2680.620442,153.178311,11947.908258
1182.175379,15317.831100,-229.767466,8654.574571
1182.175680,23666.049049,-5361.240885,7429.148083
1182.175981,24661.708071,-5208.062574,8348.217949
1182.176282,24508.529760,-1761.550576,5744.186662
1182.176591,16619.846743,-1455.193954,4442.171019
1182.176890,-0.000000,-2680.620442,8501.396260
1182.177189,-12254.264880,-2527.442131,11105.427547
1182.177489,-21215.196073,153.178311,12407.443191
1182.177788,-27572.095980,1225.426488,14168.993767
1182.178087,-23972.405671,1531.783110,14628.528700
1182.178387,-19836.591274,-689.302399,16236.900966
1182.178686,-4288.992708,612.713244,13862.637145
1182.178993,11335.195014,2604.031287,9956.590215
1182.179293,22593.800872,459.534933,7812.093861
1182.179593,26729.615269,-3599.690308,6816.434839
1182.179892,28261.398379,-536.124088,5973.954129
1182.180192,25580.777937,1838.139732,2986.977064
1182.180492,8654.574571,-2986.977064,5284.651729
1182.180791,-8424.807105,-2067.907198,11028.838392
1182.181091,-22823.568339,-3752.868619,14475.350389
1182.181388,-28567.755001,-2527.442131,14628.528700
1182.181685,-28337.987535,765.891555,14398.761234
1182.181982,-23972.405671,919.069866,15241.241944
1182.182280,-10033.179370,-689.302399,14628.528700
1182.182577,4365.581863,1991.318043,13556.280523
1182.182875,18611.164786,3063.566220,9114.109504
1182.183172,27495.506824,-536.124088,6816.434839
1182.183469,27955.041757,-0.000000,6663.256528
1182.183784,23895.816516,153.178311,5973.954129
1182.184083,10722.481770,-2067.907198,7429.148083
1182.184381,-3676.279464,-995.659021,8884.342038
1182.184680,-15241.241944,-1148.837332,9956.590215
1182.184979,-24738.297226,-4518.760174,13403.102212
1182.185277,-30865.429666,-3599.690308,17309.149143
1182.185576,-25657.367092,-1761.550576,15930.544344
1182.185875,-15700.776877,-229.767466,15088.063633
1182.186163,-842.480710,1072.248177,12560.621502
1182.186463,12024.497413,1838.139732,9267.287815
1182.186763,21674.731006,306.356622,8807.752882
1182.187063,27189.150202,-0.000000,4901.705952
1182.187363,26040.312870,459.534933,4901.705952
1182.187663,16773.025054,-689.302399,6510.078217
1182.187963,3446.511997,-2221.085509,8654.574571
1182.188263,-7122.791461,919.069866,9650.233593
1182.188562,-18534.575631,-842.480710,10875.660081
1182.188865,-26653.026114,-4059.225241,15700.776877
1182.189167,-25504.188781,-536.124088,15853.955188
1182.189470,-16007.133499,765.891555,12790.388968
1182.189773,-4748.527641,-995.659021,11028.838392
1182.190075,5667.597507,-842.480710,11794.729947
1182.190378,16619.846743,-2833.798753,8960.931193
1182.190680,23895.816516,-2833.798753,7582.326394
1182.190987,26423.258647,-0.000000,6280.310751
