#time,accel_x,accel_y,accel_z
1150.931300,-382.945777,-689.302399,10645.892614
1150.931597,-536.124088,-382.945777,10722.481770
1150.931893,-76.589155,-536.124088,10569.303459
1150.932190,-76.589155,-536.124088,10722.481770
1150.932479,153.178311,-382.945777,10569.303459
1150.932779,2833.798753,-229.767466,10262.946837
1150.933078,5361.240885,-382.945777,10109.768526
1150.933377,9420.466126,-76.589155,9420.466126
1150.933676,12943.567279,-382.945777,9650.233593
1150.933975,18151.629853,306.356622,8960.931193
1150.934274,19147.288875,153.178311,9267.287815
1150.934574,20985.428607,-76.589155,9420.466126
1150.934887,19913.180430,612.713244,9573.644437
1150.935186,18611.164786,1531.783110,9573.644437
1150.935485,17692.094920,1072.248177,8807.752882
1150.935784,14398.761234,612.713244,9497.055282
1150.936082,14168.993767,612.713244,10569.303459
1150.936381,15624.187722,-842.480710,10492.714303
1150.936680,20525.893674,153.178311,10416.125148
1150.936979,27648.685135,919.069866,9267.287815
1150.937286,30329.305578,306.356622,7582.326394
1150.937583,25580.777937,-1761.550576,9190.698660
1150.937881,17845.273231,-4518.760174,14015.815456
1150.938178,10722.481770,-4671.938485,16083.722655
1150.938475,7582.326394,-1914.728887,14475.350389
1150.938772,4748.527641,-229.767466,14168.993767
1150.939069,1531.783110,-229.767466,15088.063633
1150.939367,2144.496354,1531.783110,16313.490121
1150.939663,8041.861327,4135.814397,14628.528700
1150.939964,15624.187722,7275.969772,10722.481770
1150.940265,23359.692427,8195.039638,8577.985416
1150.940567,26882.793580,4748.527641,6816.434839
1150.940868,29716.592334,-0.000000,6969.613150
1150.941169,31018.607977,-3599.690308,7275.969772
1150.941470,31018.607977,-7812.093861,6969.613150
1150.941771,28797.522468,-11105.427547,7122.791461
1150.942066,21981.087628,-10799.070925,9803.411904
1150.942367,13556.280523,-6893.023995,12254.264880
1150.942668,4748.527641,-2527.442131,12790.388968
1150.942968,-2067.907198,1684.961421,15011.474478
1150.943269,-9726.822748,4442.171019,15011.474478
1150.943570,-16007.133499,6969.613150,13556.280523
1150.943871,-14781.707011,6663.256528,11488.373325
1150.944172,-9573.644437,1378.604799,7429.148083
1150.944460,-1914.728887,-4671.938485,6663.256528
1150.944761,765.891555,-9190.698660,8348.217949
1150.945062,3752.868619,-11871.319102,11028.838392
1150.945363,13249.923901,-7199.380617,10569.303459
1150.945663,20219.537052,1225.426488,7505.737239
1150.945964,20525.893674,7888.683016,6663.256528
1150.946265,10722.481770,7582.326394,10262.946837
1150.946566,4059.225241,4748.527641,11105.427547
1150.946875,-5131.473418,1225.426488,12713.799813
1150.947174,-16160.311810,-7658.915550,12790.388968
1150.947474,-23819.227360,-15930.544344,15088.063633
1150.947773,-19683.412963,-17309.149143,15241.241944
1150.948072,-7352.558928,-11564.962480,10416.125148
1150.948372,1225.426488,-4518.760174,8577.985416
1150.948671,11488.373325,2910.387909,9573.644437
1150.948971,21981.087628,10109.768526,8501.396260
1150.949278,28261.398379,14398.761234,7429.148083
1150.949577,28491.165846,16007.133499,6280.310751
1150.949877,22134.265939,12101.086569,6663.256528
1150.950177,13862.637145,4288.992708,7888.683016
1150.950476,1991.318043,-3446.511997,10569.303459
1150.950776,-10952.249236,-9037.520349,14168.993767
1150.951076,-23589.459894,-13249.923901,15394.420255
1150.951375,-30942.018822,-15471.009411,15930.544344
1150.951672,-29946.359800,-13403.102212,15624.187722
1150.951969,-23819.227360,-6893.023995,14015.815456
1150.952267,-10492.714303,-689.302399,11335.195014
1150.952564,4059.225241,6510.078217,7582.326394
1150.952862,15777.366033,9573.644437,5973.954129
1150.953159,20219.537052,11641.551636,6356.899906
1150.953456,20066.358741,10262.946837,6586.667373
1150.953754,16390.079277,6050.543284,7429.148083
1150.954068,9956.590215,459.534933,8195.039638
1150.954367,2297.674665,-2833.798753,9573.644437
1150.954665,-4288.992708,-4212.403552,9573.644437
1150.954964,-8577.985416,-4901.705952,9956.590215
1150.955263,-10645.892614,-4901.705952,11488.373325
1150.955561,-9880.001059,-3752.868619,12101.086569
1150.955860,-7965.272172,-4518.760174,12560.621502
1150.956159,-1761.550576,-2986.977064,12407.443191
1150.956471,3906.046930,-2833.798753,13403.102212
1150.956767,14245.582923,765.891555,9114.109504
1150.957064,18994.110564,3982.636086,6969.613150
1150.957361,15930.544344,3982.636086,7888.683016
1150.957657,7582.326394,1378.604799,10109.768526
1150.957954,-2604.031287,-382.945777,12790.388968
1150.958251,-9037.520349,-1608.372265,12484.032346
1150.958547,-16160.311810,-5054.884263,13403.102212
1150.958870,-18381.397320,-5820.775818,14015.815456
1150.959169,-14628.528700,-4059.225241,13862.637145
1150.959468,-7122.791461,-536.124088,12943.567279
1150.959768,-995.659021,2910.387909,12407.443191
1150.960067,6893.023995,5284.651729,9650.233593
1150.960366,10722.481770,5284.651729,6663.256528
1150.960665,12024.497413,2757.209598,8884.342038
1150.960965,6893.023995,-3752.868619,11335.195014
1150.961272,4748.527641,-8424.807105,11258.605858
1150.961572,6280.310751,-5973.954129,9114.109504
1150.961873,4671.938485,-4825.116796,7735.504705
1150.962174,-2374.263820,-4059.225241,9420.466126
1150.962474,-8731.163727,-1914.728887,11947.908258
1150.962775,-9037.520349,459.534933,12407.443191
1150.963076,-7352.558928,3676.279464,11488.373325
1150.963377,-7352.558928,3216.744531,11182.016703
1150.963693,-2604.031287,5131.473418,9343.876971
1150.963987,6280.310751,7429.148083,7199.380617
1150.964280,9114.109504,8041.861327,6816.434839
1150.964574,9267.287815,3216.744531,6510.078217
1150.964868,4671.938485,-1608.372265,10645.892614
1150.965162,919.069866,-5208.062574,11488.373325
1150.965455,-2221.085509,-6739.845684,9956.590215
1150.965749,-3676.279464,-7965.272172,9650.233593
1150.966068,-5437.830040,-8577.985416,10186.357681
1150.966366,-9573.644437,-8577.985416,13096.745590
1150.966664,-11564.962480,-7352.558928,13862.637145
1150.966962,-10186.357681,-2221.085509,14015.815456
1150.967260,-3216.744531,-76.589155,10952.249236
1150.967559,1378.604799,2450.852976,10492.714303
1150.967857,8348.217949,5744.186662,8577.985416
1150.968155,14858.296167,8807.752882,6280.310751
1150.968468,15777.366033,8807.752882,6510.078217
1150.968767,9497.055282,5591.008351,9650.233593
1150.969065,765.891555,306.356622,12177.675724
1150.969364,-5437.830040,-3293.333686,13096.745590
1150.969662,-7658.915550,-6433.489062,12177.675724
1150.969961,-11564.962480,-10186.357681,12866.978124
1150.970259,-11718.140791,-12637.210657,14781.707011
1150.970557,-7812.093861,-9880.001059,13249.923901
1150.970857,-4135.814397,-5054.884263,11794.729947
1150.971154,-76.589155,-3140.155375,10109.768526
1150.971452,612.713244,-1455.193954,9956.590215
1150.971749,5514.419196,1378.604799,8654.574571
1150.972047,7888.683016,2757.209598,8195.039638
1150.972344,9650.233593,4978.295107,7582.326394
1150.972642,11028.838392,7429.148083,6816.434839
1150.972939,9497.055282,8501.396260,8348.217949
1150.973246,3599.690308,6969.613150,10033.179370
1150.973547,-3676.279464,3676.279464,10645.892614
1150.973848,-8118.450483,612.713244,11488.373325
1150.974149,-11258.605858,-3293.333686,13403.102212
1150.974450,-12866.978124,-6893.023995,12560.621502
1150.974751,-10033.179370,-8884.342038,13403.102212
1150.975052,-1914.728887,-7658.915550,11258.605858
1150.975353,3293.333686,-4518.760174,9803.411904
1150.975667,6127.132440,-3293.333686,9267.287815
1150.975966,5667.597507,-842.480710,8654.574571
1150.976266,6127.132440,2757.209598,9573.644437
1150.976565,1378.604799,2757.209598,10262.946837
1150.976865,-1761.550576,3369.922842,11105.427547
1150.977164,-842.480710,5284.651729,10109.768526
1150.977464,459.534933,7275.969772,9803.411904
1150.977763,-689.302399,5284.651729,8960.931193
1150.978082,-2450.852976,3829.457775,10109.768526
1150.978378,-2374.263820,306.356622,11258.605858
1150.978674,-1761.550576,-3446.511997,11411.784169
1150.978970,-1302.015643,-9190.698660,12484.032346
1150.979266,1991.318043,-11258.605858,11258.605858
1150.979562,5208.062574,-10645.892614,10262.946837
1150.979858,6893.023995,-8424.807105,8960.931193
1150.980154,3446.511997,-7812.093861,10109.768526
1150.980472,-2221.085509,-5820.775818,12254.264880
1150.980766,-3369.922842,-2221.085509,11028.838392
1150.981061,-3982.636086,3523.101153,9956.590215
1150.981355,-3369.922842,6969.613150,9267.287815
1150.981650,-1608.372265,9573.644437,9956.590215
1150.981944,-1608.372265,10722.481770,10186.357681
1150.982239,-689.302399,10569.303459,10109.768526
1150.982533,-1608.372265,6203.721595,9650.233593
1150.982833,-1148.837332,765.891555,10109.768526
1150.983133,-995.659021,-5208.062574,11947.908258
1150.983433,1378.604799,-9037.520349,10033.179370
1150.983733,5208.062574,-10952.249236,9650.233593
1150.984033,6893.023995,-10186.357681,9803.411904
1150.984333,3140.155375,-10033.179370,10262.946837
1150.984633,-842.480710,-7505.737239,11335.195014
1150.984933,-2757.209598,-2527.442131,11794.729947
1150.985263,-2604.031287,1838.139732,10416.125148
1150.985560,-2757.209598,5744.186662,9956.590215
1150.985857,-1608.372265,9956.590215,10109.768526
1150.986154,765.891555,12713.799813,10416.125148
1150.986451,2144.496354,14245.582923,10875.660081
1150.986748,2297.674665,12254.264880,10262.946837
1150.987045,-2757.209598,6510.078217,12177.675724
1150.987342,-2604.031287,-229.767466,11641.551636
1150.987655,-3063.566220,-5361.240885,11641.551636
1150.987956,-1148.837332,-10645.892614,11182.016703
1150.988256,-382.945777,-14475.350389,10569.303459
1150.988557,306.356622,-14322.172078,11258.605858
1150.988858,306.356622,-12024.497413,10262.946837
1150.989159,-842.480710,-9880.001059,10109.768526
1150.989459,-1455.193954,-8884.342038,11028.838392
1150.989760,-1302.015643,-4212.403552,10339.535992
1150.990043,1531.783110,1684.961421,8424.807105
1150.990346,5208.062574,7888.683016,7582.326394
1150.990649,6893.023995,10262.946837,8348.217949
1150.990952,4059.225241,11641.551636,9420.466126
1150.991255,1991.318043,10416.125148,9803.411904
1150.991558,-1761.550576,6816.434839,10262.946837
1150.991861,-4288.992708,-76.589155,10262.946837
1150.992163,-8884.342038,-7046.202306,11641.551636
1150.992445,-7352.558928,-12484.032346,12790.388968
1150.992748,-7122.791461,-17615.505765,13556.280523
1150.993051,-4135.814397,-18075.040698,13939.226301
1150.993353,2374.263820,-12790.388968,9956.590215
1150.993656,4671.938485,-7199.380617,7275.969772
1150.993959,6739.845684,-2221.085509,8041.861327
1150.994261,5361.240885,1991.318043,9420.466126
1150.994564,7429.148083,9420.466126,8348.217949
1150.994854,8195.039638,13479.691368,7888.683016
1150.995149,5054.884263,14781.707011,8807.752882
1150.995445,2297.674665,14628.528700,11105.427547
1150.995741,-1608.372265,13786.047990,11488.373325
1150.996037,-4978.295107,8960.931193,12943.567279
1150.996333,-7965.272172,459.534933,14781.707011
1150.996629,-8731.163727,-3599.690308,14475.350389
1150.996925,-5744.186662,-5973.954129,12407.443191
1150.997234,-1455.193954,-8884.342038,11411.784169
1150.997532,-2221.085509,-10492.714303,12560.621502
1150.997831,-536.124088,-9880.001059,11794.729947
1150.998129,306.356622,-8118.450483,10645.892614
1150.998428,2297.674665,-4518.760174,9650.233593
1150.998726,2144.496354,-995.659021,9420.466126
1150.999025,4901.705952,5744.186662,8348.217949
1150.999323,9114.109504,12560.621502,6203.721595
1150.999630,9114.109504,15088.063633,6969.613150
1150.999931,2680.620442,10416.125148,9956.590215
1151.000231,-3829.457775,5897.364973,12101.086569
1151.000532,-5437.830040,612.713244,11641.551636
1151.000832,-7122.791461,-7199.380617,11335.195014
1151.001133,-7505.737239,-13862.637145,11947.908258
1151.001433,-6203.721595,-16849.614210,12407.443191
1151.001734,-2067.907198,-16390.079277,11947.908258
1151.002030,1072.248177,-12790.388968,9803.411904
1151.002330,1225.426488,-9726.822748,9267.287815
1151.002630,-2067.907198,-8424.807105,10722.481770
1151.002929,765.891555,-3599.690308,9114.109504
1151.003229,3140.155375,2297.674665,7658.915550
1151.003528,6586.667373,6203.721595,7658.915550
1151.003828,6893.023995,8654.574571,8348.217949
1151.004127,6433.489062,10875.660081,10492.714303
1151.004422,5667.597507,10569.303459,9956.590215
1151.004722,1225.426488,7582.326394,9573.644437
1151.005023,-3523.101153,2757.209598,11335.195014
1151.005323,-8731.163727,-4212.403552,13709.458834
1151.005623,-7122.791461,-8424.807105,12407.443191
1151.005923,-4135.814397,-8118.450483,12101.086569
1151.006223,-2221.085509,-9880.001059,11718.140791
1151.006523,-4442.171019,-9497.055282,13862.637145
1151.006835,-1455.193954,-4212.403552,13326.513057
1151.007133,1072.248177,1684.961421,10109.768526
1151.007430,4671.938485,6510.078217,8195.039638
1151.007727,4212.403552,9650.233593,9114.109504
1151.008025,4059.225241,10569.303459,8501.396260
1151.008322,5361.240885,11335.195014,10109.768526
1151.008620,4901.705952,9956.590215,10569.303459
1151.008917,5514.419196,6816.434839,8807.752882
1151.009217,-0.000000,1838.139732,9956.590215
1151.009517,-2450.852976,-3140.155375,10875.660081
1151.009817,-6050.543284,-7505.737239,11947.908258
1151.010117,-6203.721595,-8884.342038,11335.195014
1151.010417,-5591.008351,-10339.535992,10569.303459
1151.010717,-5591.008351,-10186.357681,12024.497413
1151.011017,-5744.186662,-9343.876971,11335.195014
1151.011317,-3369.922842,-6586.667373,10492.714303
1151.011624,-1608.372265,-3599.690308,10262.946837
1151.011923,1531.783110,-2833.798753,10109.768526
1151.012222,5973.954129,1838.139732,9267.287815
1151.012521,11488.373325,7888.683016,6510.078217
1151.012820,12790.388968,10109.768526,5973.954129
1151.013119,7735.504705,7429.148083,8424.807105
1151.013418,2527.442131,4595.349330,8884.342038
1151.013717,-5744.186662,-229.767466,11794.729947
1151.014033,-11105.427547,-7352.558928,13632.869679
1151.014331,-13326.513057,-12177.675724,15088.063633
1151.014630,-6663.256528,-11871.319102,13556.280523
1151.014928,-382.945777,-8577.985416,9497.055282
1151.015226,1838.139732,-7352.558928,10416.125148
1151.015525,306.356622,-5973.954129,12943.567279
1151.015823,153.178311,-2680.620442,12101.086569
1151.016122,4671.938485,2144.496354,9650.233593
1151.016436,4901.705952,5131.473418,8960.931193
1151.016735,4671.938485,4978.295107,9650.233593
1151.017034,4365.581863,7275.969772,9650.233593
1151.017332,7888.683016,10109.768526,8960.931193
1151.017631,4671.938485,9803.411904,9114.109504
1151.017930,-2604.031287,6203.721595,11182.016703
1151.018229,-8271.628794,3676.279464,13709.458834
1151.018527,-8577.985416,1072.248177,12713.799813
1151.018815,-7505.737239,-1148.837332,11028.838392
1151.019115,-4442.171019,-5820.775818,10875.660081
1151.019415,-2757.209598,-7965.272172,12254.264880
1151.019715,-76.589155,-7199.380617,12407.443191
1151.020015,3752.868619,-5514.419196,9803.411904
1151.020315,3906.046930,-3293.333686,7735.504705
1151.020615,2680.620442,-2221.085509,9267.287815
1151.020915,1225.426488,-1761.550576,9803.411904
1151.021214,2527.442131,3829.457775,7812.093861
1151.021513,5361.240885,8041.861327,6127.132440
1151.021813,3906.046930,7429.148083,7735.504705
1151.022112,-1761.550576,4442.171019,11028.838392
1151.022411,-3982.636086,1991.318043,11182.016703
1151.022710,-4978.295107,-76.589155,11488.373325
1151.023010,-3829.457775,-4212.403552,10569.303459
1151.023309,-3216.744531,-8118.450483,10109.768526
1151.023616,-3829.457775,-10339.535992,12560.621502
1151.023916,-689.302399,-11871.319102,12177.675724
1151.024216,-995.659021,-12484.032346,13020.156435
1151.024516,1531.783110,-9497.055282,10645.892614
1151.024816,2297.674665,-7046.202306,9420.466126
1151.025116,3446.511997,-2374.263820,8654.574571
1151.025416,2833.798753,612.713244,8884.342038
1151.025716,4671.938485,4288.992708,8195.039638
1151.026037,4671.938485,8041.861327,10262.946837
1151.026336,3599.690308,10416.125148,11182.016703
1151.026636,919.069866,9573.644437,10109.768526
1151.026936,-4825.116796,7582.326394,11488.373325
1151.027236,-6510.078217,3523.101153,12713.799813
1151.027536,-8731.163727,-2221.085509,13862.637145
1151.027836,-5897.364973,-5361.240885,12713.799813
1151.028136,-3369.922842,-6893.023995,12407.443191
1151.028454,612.713244,-7199.380617,10875.660081
1151.028748,3140.155375,-5361.240885,11182.016703
1151.029041,4518.760174,-3140.155375,9114.109504
1151.029335,1991.318043,-1148.837332,9573.644437
1151.029629,153.178311,765.891555,10722.481770
1151.029922,-229.767466,3982.636086,9573.644437
1151.030216,4365.581863,8654.574571,7735.504705
1151.030509,5973.954129,11947.908258,6356.899906
1151.030827,4518.760174,12101.086569,8960.931193
1151.031123,-1608.372265,7888.683016,10492.714303
1151.031419,-5437.830040,4442.171019,11641.551636
1151.031715,-4978.295107,919.069866,11488.373325
1151.032010,-7965.272172,-4671.938485,11947.908258
1151.032306,-6816.434839,-9880.001059,12790.388968
1151.032602,-3829.457775,-11258.605858,10722.481770
1151.032898,459.534933,-10033.179370,11182.016703
1151.033198,1225.426488,-10492.714303,9650.233593
1151.033499,306.356622,-9037.520349,11028.838392
1151.033800,459.534933,-5361.240885,11335.195014
1151.034101,2374.263820,-382.945777,8577.985416
1151.034401,3906.046930,3829.457775,8195.039638
1151.034702,5667.597507,5897.364973,7429.148083
1151.035003,5361.240885,7275.969772,9803.411904
1151.035304,2680.620442,6510.078217,11335.195014
1151.035611,1072.248177,5437.830040,10952.249236
1151.035912,-4978.295107,612.713244,11947.908258
1151.036213,-6050.543284,-3446.511997,12254.264880
1151.036514,-9343.876971,-9497.055282,14322.172078
1151.036814,-7199.380617,-10492.714303,13173.334746
1151.037115,-2374.263820,-10645.892614,11335.195014
1151.037416,1991.318043,-8884.342038,10262.946837
1151.037717,3293.333686,-7505.737239,9956.590215
1151.037997,2833.798753,-4901.705952,10109.768526
1151.038302,4748.527641,-536.124088,8654.574571
1151.038608,4518.760174,3982.636086,8501.396260
1151.038913,3752.868619,6050.543284,8041.861327
1151.039218,2680.620442,9114.109504,8807.752882
1151.039523,2297.674665,10722.481770,10262.946837
1151.039828,-76.589155,10416.125148,10799.070925
1151.040134,-536.124088,7888.683016,10875.660081
1151.040407,-5131.473418,3829.457775,11794.729947
1151.040706,-4978.295107,-76.589155,11794.729947
1151.041005,-7352.558928,-3599.690308,11794.729947
1151.041304,-4978.295107,-5667.597507,11028.838392
1151.041603,-2450.852976,-7812.093861,10875.660081
1151.041902,-2374.263820,-9343.876971,11564.962480
1151.042202,-0.000000,-6739.845684,10875.660081
1151.042501,1378.604799,-3599.690308,9267.287815
1151.042818,3446.511997,612.713244,9420.466126
1151.043116,3446.511997,2450.852976,9573.644437
1151.043414,3752.868619,6050.543284,9190.698660
1151.043712,6739.845684,10722.481770,9114.109504
1151.044009,6127.132440,11028.838392,8960.931193
1151.044307,1684.961421,8807.752882,9803.411904
1151.044605,-2757.209598,3523.101153,11947.908258
1151.044903,-8577.985416,-1914.728887,13709.458834
1151.045203,-9190.698660,-7812.093861,13403.102212
1151.045502,-8424.807105,-11411.784169,13862.637145
1151.045801,-3982.636086,-13249.923901,12484.032346
1151.046100,1531.783110,-11718.140791,10722.481770
1151.046399,5667.597507,-7965.272172,9650.233593
1151.046698,5820.775818,-6893.023995,8807.752882
1151.046998,2833.798753,-5208.062574,10875.660081
1151.047297,4212.403552,-842.480710,9573.644437
1151.047610,4901.705952,3523.101153,7429.148083
1151.047909,2986.977064,4978.295107,7812.093861
1151.048208,459.534933,5284.651729,9956.590215
1151.048507,1378.604799,6816.434839,11182.016703
1151.048805,-1608.372265,6356.899906,10569.303459
1151.049104,-4288.992708,2450.852976,10569.303459
1151.049403,-8884.342038,-2067.907198,13709.458834
1151.049702,-8118.450483,-5054.884263,12254.264880
1151.050009,-4825.116796,-6127.132440,10722.481770
1151.050306,-2221.085509,-8271.628794,10722.481770
1151.050603,1838.139732,-8118.450483,10569.303459
1151.050900,4212.403552,-5667.597507,10875.660081
1151.051198,7735.504705,-995.659021,8195.039638
1151.051495,7582.326394,1225.426488,7735.504705
1151.051792,6739.845684,4442.171019,8807.752882
1151.052089,2144.496354,5897.364973,9956.590215
1151.052419,2680.620442,8348.217949,9190.698660
1151.052715,2374.263820,11028.838392,9420.466126
1151.053012,153.178311,10262.946837,11028.838392
1151.053308,-2450.852976,6203.721595,11258.605858
1151.053604,-7122.791461,2910.387909,12484.032346
1151.053901,-7199.380617,-76.589155,12560.621502
1151.054197,-7658.915550,-3446.511997,12407.443191
1151.054494,-6510.078217,-6586.667373,11871.319102
1151.054788,-3369.922842,-8424.807105,11641.551636
1151.055089,-2910.387909,-9726.822748,13096.745590
1151.055390,-1302.015643,-8577.985416,12790.388968
1151.055691,4059.225241,-7199.380617,8960.931193
1151.055992,5054.884263,-3906.046930,9573.644437
1151.056293,6893.023995,-536.124088,9114.109504
1151.056593,6893.023995,3676.279464,7812.093861
1151.056894,8807.752882,6356.899906,6356.899906
1151.057206,7429.148083,7888.683016,8501.396260
1151.057503,2527.442131,5437.830040,10569.303459
1151.057801,-1148.837332,4978.295107,10875.660081
1151.058098,-6969.613150,1531.783110,10875.660081
1151.058396,-9726.822748,-3752.868619,11182.016703
1151.058693,-13326.513057,-9880.001059,14475.350389
1151.058991,-10339.535992,-12024.497413,13632.869679
1151.059288,-4748.527641,-11564.962480,11641.551636
1151.059602,-842.480710,-9497.055282,11182.016703
1151.059900,1991.318043,-7199.380617,10262.946837
1151.060197,5054.884263,-6280.310751,9343.876971
1151.060495,8348.217949,-2221.085509,8501.396260
1151.060793,10262.946837,1991.318043,7582.326394
1151.061091,9114.109504,4442.171019,6127.132440
1151.061389,8807.752882,7888.683016,6816.434839
1151.061687,7582.326394,10262.946837,8654.574571
1151.061994,4212.403552,11182.016703,8807.752882
1151.062293,-2450.852976,9573.644437,11028.838392
1151.062592,-10339.535992,4442.171019,14168.993767
1151.062890,-13173.334746,1072.248177,14628.528700
1151.063189,-11871.319102,-2067.907198,13709.458834
1151.063488,-8884.342038,-5514.419196,12713.799813
1151.063787,-4978.295107,-7965.272172,13173.334746
1151.064086,-1761.550576,-7658.915550,13709.458834
1151.064382,2527.442131,-4212.403552,10262.946837
1151.064685,5054.884263,-3599.690308,8807.752882
1151.064988,5973.954129,-3140.155375,9420.466126
1151.065291,5820.775818,153.178311,8654.574571
1151.065594,6433.489062,3676.279464,7275.969772
1151.065897,7275.969772,9267.287815,7122.791461
1151.066200,4212.403552,9803.411904,8424.807105
1151.066503,-229.767466,10109.768526,10875.660081
1151.066798,-3216.744531,7122.791461,11641.551636
1151.067098,-6663.256528,2757.209598,11488.373325
1151.067398,-8271.628794,-2986.977064,12560.621502
1151.067698,-10952.249236,-9343.876971,13862.637145
1151.067998,-5591.008351,-13556.280523,12790.388968
1151.068298,-1148.837332,-12484.032346,11182.016703
1151.068598,919.069866,-12637.210657,11028.838392
1151.068899,306.356622,-12177.675724,10875.660081
1151.069187,1531.783110,-9497.055282,9956.590215
1151.069487,5361.240885,-4059.225241,7582.326394
1151.069787,6127.132440,-229.767466,6127.132440
1151.070087,6586.667373,3369.922842,5667.597507
1151.070387,7275.969772,8041.861327,7735.504705
1151.070687,5361.240885,8807.752882,9573.644437
1151.070987,-995.659021,8501.396260,11488.373325
1151.071287,-3982.636086,6663.256528,11718.140791
1151.071587,-6050.543284,3216.744531,11794.729947
1151.071886,-5591.008351,-842.480710,11335.195014
1151.072185,-8577.985416,-5973.954129,12254.264880
1151.072484,-6510.078217,-8577.985416,13096.745590
1151.072783,-3369.922842,-10339.535992,12943.567279
1151.073083,-1455.193954,-10492.714303,12484.032346
1151.073382,-382.945777,-8884.342038,11947.908258
1151.073681,2297.674665,-3752.868619,9650.233593
1151.073988,5820.775818,2604.031287,8195.039638
1151.074289,5667.597507,6356.899906,8348.217949
1151.074591,7122.791461,10875.660081,9267.287815
1151.074892,8807.752882,16007.133499,8960.931193
1151.075194,9956.590215,18304.808164,7429.148083
1151.075496,2297.674665,15241.241944,10722.481770
1151.075797,-5437.830040,9267.287815,12407.443191
1151.076099,-8884.342038,3676.279464,12560.621502
1151.076415,-10186.357681,-3906.046930,13709.458834
1151.076709,-12866.978124,-11258.605858,14092.404612
1151.077002,-10799.070925,-15777.366033,14628.528700
1151.077296,-3063.566220,-12943.567279,12254.264880
1151.077590,3446.511997,-9650.233593,9573.644437
1151.077883,3599.690308,-9497.055282,8348.217949
1151.078177,-229.767466,-8577.985416,10262.946837
1151.078471,4212.403552,-2221.085509,9650.233593
1151.078789,7275.969772,3216.744531,6280.310751
1151.079087,9420.466126,5744.186662,6203.721595
1151.079386,8501.396260,7735.504705,7888.683016
1151.079684,6433.489062,9573.644437,9267.287815
1151.079982,3140.155375,7888.683016,9803.411904
1151.080280,-3216.744531,4288.992708,9956.590215
1151.080579,-9037.520349,-2527.442131,12407.443191
1151.080877,-14092.404612,-8884.342038,14475.350389
1151.081190,-10799.070925,-11871.319102,12713.799813
1151.081488,-6663.256528,-13403.102212,11335.195014
1151.081787,-1148.837332,-13556.280523,10033.179370
1151.082085,-689.302399,-12637.210657,11488.373325
1151.082384,1378.604799,-10492.714303,10722.481770
1151.082682,3906.046930,-4671.938485,9573.644437
1151.082980,8501.396260,1378.604799,8501.396260
1151.083279,8348.217949,5897.364973,7582.326394
1151.083579,7735.504705,8960.931193,7888.683016
1151.083879,8041.861327,13632.869679,9573.644437
1151.084179,5820.775818,15241.241944,10033.179370
1151.084479,2297.674665,13632.869679,9650.233593
1151.084779,-6356.899906,9267.287815,12866.978124
1151.085079,-10033.179370,3829.457775,13249.923901
1151.085379,-11947.908258,-382.945777,13862.637145
1151.085679,-8731.163727,-3752.868619,11794.729947
1151.085986,-5131.473418,-7046.202306,10875.660081
1151.086283,-2450.852976,-9037.520349,12254.264880
1151.086580,-1914.728887,-9037.520349,11718.140791
1151.086876,-229.767466,-9190.698660,12101.086569
1151.087173,2680.620442,-6280.310751,9880.001059
1151.087470,5820.775818,-1455.193954,8654.574571
1151.087767,8501.396260,4442.171019,6816.434839
1151.088064,9420.466126,9573.644437,6433.489062
1151.088378,8041.861327,12101.086569,8501.396260
1151.088682,5820.775818,11488.373325,8654.574571
1151.088985,765.891555,8348.217949,9956.590215
1151.089289,-6663.256528,2450.852976,10492.714303
1151.089593,-11258.605858,-2833.798753,11335.195014
1151.089896,-13632.869679,-9037.520349,12713.799813
1151.090200,-11411.784169,-14322.172078,14015.815456
1151.090504,-4288.992708,-15011.474478,13632.869679
1151.090776,1684.961421,-11718.140791,11641.551636
1151.091076,2986.977064,-9880.001059,10416.125148
1151.091375,3752.868619,-9037.520349,9726.822748
1151.091674,5514.419196,-6280.310751,9803.411904
1151.091974,7122.791461,-2221.085509,7812.093861
1151.092273,6739.845684,153.178311,6969.613150
1151.092572,6280.310751,4135.814397,8807.752882
1151.092872,8501.396260,8195.039638,8577.985416
1151.093189,3752.868619,10722.481770,10033.179370
1151.093488,-2221.085509,8654.574571,11641.551636
1151.093786,-9037.520349,4825.116796,12713.799813
1151.094085,-9497.055282,2757.209598,13020.156435
1151.094383,-9343.876971,-995.659021,12790.388968
1151.094682,-5131.473418,-4671.938485,11335.195014
1151.094980,-2910.387909,-7658.915550,11794.729947
1151.095279,-1148.837332,-9497.055282,13403.102212
1151.095579,612.713244,-9650.233593,12101.086569
1151.095876,1225.426488,-6739.845684,11028.838392
1151.096174,5054.884263,-2680.620442,9190.698660
1151.096471,5054.884263,1531.783110,8501.396260
1151.096769,5973.954129,7429.148083,8501.396260
1151.097066,7275.969772,12560.621502,6969.613150
1151.097364,6280.310751,13786.047990,7735.504705
1151.097661,306.356622,12713.799813,10875.660081
1151.097991,-3676.279464,9803.411904,11028.838392
1151.098288,-6203.721595,6816.434839,11105.427547
1151.098585,-4978.295107,1838.139732,10569.303459
1151.098882,-5744.186662,-3906.046930,11028.838392
1151.099179,-3982.636086,-9343.876971,11335.195014
1151.099476,-689.302399,-10952.249236,12560.621502
1151.099773,765.891555,-10952.249236,10722.481770
1151.100070,306.356622,-11564.962480,9420.466126
1151.100378,-3523.101153,-12484.032346,11258.605858
1151.100678,-2067.907198,-9497.055282,11794.729947
1151.100977,459.534933,-5054.884263,9650.233593
1151.101277,5820.775818,919.069866,7505.737239
1151.101577,7122.791461,5897.364973,8501.396260
1151.101877,8654.574571,9803.411904,9420.466126
1151.102177,5820.775818,11947.908258,8807.752882
1151.102477,2297.674665,9420.466126,9267.287815
1151.102793,-1914.728887,5284.651729,10416.125148
1151.103093,-5131.473418,-382.945777,11182.016703
1151.103392,-5284.651729,-5667.597507,10875.660081
1151.103691,-5897.364973,-12790.388968,12560.621502
1151.103990,-8577.985416,-17462.327454,16007.133499
1151.104289,-6663.256528,-17309.149143,15700.776877
1151.104588,-3216.744531,-13249.923901,11488.373325
1151.104887,765.891555,-8884.342038,9037.520349
1151.105160,4059.225241,-2067.907198,8807.752882
1151.105463,4365.581863,2144.496354,8195.039638
1151.105767,7275.969772,6663.256528,8041.861327
1151.106071,8195.039638,10262.946837,9573.644437
1151.106375,6280.310751,12407.443191,9956.590215
1151.106679,1991.318043,13632.869679,9803.411904
1151.106983,-1608.372265,13020.156435,9956.590215
1151.107287,-2450.852976,10262.946837,10109.768526
1151.107519,-4748.527641,4442.171019,11488.373325
1151.107826,-5284.651729,-2221.085509,12407.443191
1151.108134,-2604.031287,-6893.023995,11947.908258
1151.108441,-76.589155,-9343.876971,12101.086569
1151.108748,765.891555,-10645.892614,10109.768526
1151.109056,-536.124088,-11411.784169,10262.946837
1151.109363,-2757.209598,-10645.892614,11258.605858
1151.109671,-1608.372265,-5054.884263,10492.714303
1151.109956,-1302.015643,1991.318043,10875.660081
1151.110255,2986.977064,8348.217949,8041.861327
1151.110553,4671.938485,13020.156435,7582.326394
1151.110852,2986.977064,14628.528700,9803.411904
1151.111151,919.069866,12407.443191,10339.535992
1151.111449,-2604.031287,9803.411904,11335.195014
1151.111748,153.178311,4442.171019,10875.660081
1151.112046,-1608.372265,-2680.620442,11718.140791
1151.112353,153.178311,-8271.628794,10109.768526
1151.112654,612.713244,-12790.388968,10722.481770
1151.112954,919.069866,-13709.458834,11641.551636
1151.113255,-1608.372265,-14858.296167,11182.016703
1151.113555,-3369.922842,-14475.350389,11488.373325
1151.113856,-3982.636086,-11105.427547,10875.660081
1151.114156,-2757.209598,-7505.737239,11028.838392
1151.114457,-842.480710,-2527.442131,9573.644437
1151.114787,2986.977064,2757.209598,9420.466126
1151.115081,5667.597507,7735.504705,9880.001059
1151.115376,4059.225241,11182.016703,9573.644437
1151.115671,3906.046930,11182.016703,9650.233593
1151.115966,153.178311,8041.861327,9573.644437
1151.116261,-1148.837332,2450.852976,9956.590215
1151.116556,-4442.171019,-4212.403552,11182.016703
1151.116851,-3676.279464,-8271.628794,11182.016703
1151.117145,-1455.193954,-10339.535992,10875.660081
1151.117445,-229.767466,-10799.070925,11028.838392
1151.117746,-2221.085509,-10645.892614,11641.551636
1151.118046,-3523.101153,-8271.628794,10875.660081
1151.118346,-1914.728887,-5054.884263,10339.535992
1151.118646,-842.480710,-382.945777,10416.125148
1151.118946,2144.496354,4288.992708,9573.644437
1151.119246,5820.775818,9650.233593,8807.752882
1151.119558,9650.233593,15088.063633,8195.039638
1151.119859,5973.954129,15241.241944,9803.411904
1151.120159,-76.589155,11488.373325,11182.016703
1151.120460,-6203.721595,6050.543284,12560.621502
1151.120761,-6050.543284,1838.139732,10569.303459
1151.121062,-6663.256528,-3140.155375,9956.590215
1151.121362,-6050.543284,-8424.807105,12024.497413
1151.121663,-3063.566220,-9190.698660,12101.086569
1151.121972,-382.945777,-7046.202306,12101.086569
1151.122268,-76.589155,-8424.807105,11488.373325
1151.122563,-1302.015643,-8271.628794,11947.908258
1151.122858,-0.000000,-5514.419196,12101.086569
1151.123154,2297.674665,-995.659021,9114.109504
1151.123449,5973.954129,2604.031287,8041.861327
1151.123744,7429.148083,6050.543284,9114.109504
1151.124040,9420.466126,9956.590215,9114.109504
1151.124347,4748.527641,10569.303459,10262.946837
1151.124646,-1148.837332,6663.256528,10416.125148
1151.124944,-6969.613150,1684.961421,11182.016703
1151.125243,-7352.558928,-3140.155375,11488.373325
1151.125542,-6510.078217,-7965.272172,11028.838392
1151.125841,-3982.636086,-10645.892614,10722.481770
1151.126140,-76.589155,-10492.714303,11028.838392
1151.126439,2680.620442,-8884.342038,10952.249236
1151.126799,3140.155375,-8118.450483,9803.411904
1151.127090,306.356622,-6739.845684,11488.373325
1151.127381,153.178311,-4059.225241,11182.016703
1151.127672,1072.248177,-229.767466,9114.109504
1151.127963,2833.798753,4595.349330,7122.791461
1151.128254,2527.442131,5897.364973,8807.752882
1151.128545,459.534933,7429.148083,10875.660081
1151.128836,-382.945777,9114.109504,11182.016703
1151.129150,-842.480710,8195.039638,10722.481770
1151.129449,-2450.852976,4978.295107,10875.660081
1151.129748,-3523.101153,1684.961421,10875.660081
1151.130046,-1761.550576,-1148.837332,10416.125148
1151.130345,-689.302399,-3293.333686,10875.660081
1151.130644,612.713244,-5973.954129,11641.551636
1151.130942,-842.480710,-7505.737239,11718.140791
1151.131241,-842.480710,-7658.915550,11488.373325
1151.131553,-995.659021,-6127.132440,10186.357681
1151.131852,459.534933,-4059.225241,9803.411904
1151.132151,153.178311,-2067.907198,10109.768526
1151.132450,1531.783110,2757.209598,9956.590215
1151.132749,3446.511997,7429.148083,9650.233593
1151.133048,2680.620442,10109.768526,10262.946837
1151.133347,612.713244,10416.125148,9956.590215
1151.133646,-2221.085509,6816.434839,10492.714303
1151.133946,-1302.015643,2910.387909,10262.946837
1151.134245,-2374.263820,-2221.085509,11411.784169
1151.134544,-2067.907198,-6739.845684,11488.373325
1151.134844,459.534933,-9650.233593,11182.016703
1151.135143,2833.798753,-10033.179370,11028.838392
1151.135442,919.069866,-9650.233593,10569.303459
1151.135741,-536.124088,-9343.876971,9956.590215
1151.136041,-2221.085509,-6586.667373,10262.946837
1151.136348,-229.767466,-3293.333686,8960.931193
1151.136647,-229.767466,-842.480710,8807.752882
1151.136946,-1455.193954,153.178311,10339.535992
1151.137245,-842.480710,2450.852976,11411.784169
1151.137545,919.069866,6510.078217,10569.303459
1151.137844,1991.318043,8960.931193,9114.109504
1151.138143,-536.124088,7888.683016,9803.411904
1151.138442,153.178311,5284.651729,9420.466126
1151.138792,-536.124088,1072.248177,9573.644437
1151.139086,-76.589155,-4059.225241,10569.303459
1151.139380,-1608.372265,-10186.357681,12407.443191
1151.139673,-1148.837332,-11411.784169,13479.691368
1151.139967,-689.302399,-9497.055282,11335.195014
1151.140261,-536.124088,-6893.023995,11028.838392
1151.140554,-1302.015643,-3752.868619,11488.373325
1151.140848,-76.589155,1225.426488,10262.946837
1151.141150,919.069866,5591.008351,9114.109504
1151.141447,2986.977064,10109.768526,9267.287815
1151.141743,4212.403552,11947.908258,9956.590215
1151.142040,3446.511997,12254.264880,9956.590215
1151.142337,765.891555,10109.768526,10569.303459
1151.142634,-3982.636086,4748.527641,11794.729947
1151.142931,-4442.171019,-382.945777,12407.443191
1151.143227,-3982.636086,-4901.705952,10875.660081
1151.143545,153.178311,-8118.450483,9956.590215
1151.143843,765.891555,-10339.535992,11641.551636
1151.144142,306.356622,-10339.535992,12101.086569
1151.144440,153.178311,-8577.985416,11335.195014
1151.144739,153.178311,-6433.489062,11488.373325
1151.145038,-229.767466,-5208.062574,9956.590215
1151.145336,-1455.193954,-842.480710,9573.644437
1151.145635,-842.480710,2297.674665,8501.396260
1151.145934,2833.798753,6663.256528,7888.683016
1151.146235,4748.527641,8654.574571,9114.109504
1151.146536,1378.604799,8654.574571,10722.481770
1151.146837,-1608.372265,6050.543284,11335.195014
1151.147137,-2450.852976,3063.566220,10416.125148
1151.147438,-229.767466,-2067.907198,9880.001059
1151.147739,-2910.387909,-7352.558928,10416.125148
1151.148040,-1914.728887,-10952.249236,10262.946837
1151.148347,-229.767466,-12790.388968,11641.551636
1151.148647,-0.000000,-11258.605858,11335.195014
1151.148947,-842.480710,-10033.179370,10722.481770
1151.149247,-3523.101153,-9037.520349,11182.016703
1151.149547,-3216.744531,-5054.884263,11947.908258
1151.149848,-0.000000,153.178311,9956.590215
1151.150148,2986.977064,5897.364973,8348.217949
1151.150448,5820.775818,10722.481770,8501.396260
1151.150727,7888.683016,14092.404612,8960.931193
1151.151031,4365.581863,14475.350389,9956.590215
1151.151335,153.178311,10875.660081,10875.660081
1151.151639,-4825.116796,4748.527641,11794.729947
1151.151944,-4442.171019,-1148.837332,11335.195014
1151.152248,-3523.101153,-5514.419196,10262.946837
1151.152552,-2067.907198,-9497.055282,11411.784169
1151.152856,-3676.279464,-14168.993767,13862.637145
1151.153175,-3063.566220,-13096.745590,14628.528700
1151.153471,-1148.837332,-9726.822748,11794.729947
1151.153768,-995.659021,-5054.884263,9190.698660
1151.154065,1991.318043,-536.124088,9420.466126
1151.154362,1991.318043,5131.473418,7888.683016
1151.154659,6280.310751,10416.125148,6969.613150
1151.154956,5973.954129,11182.016703,9650.233593
1151.155253,3140.155375,10109.768526,10722.481770
1151.155570,-76.589155,8501.396260,11335.195014
1151.155865,-2374.263820,6816.434839,9726.822748
1151.156159,-3063.566220,153.178311,9956.590215
1151.156453,-4978.295107,-5667.597507,11105.427547
1151.156748,-4978.295107,-9343.876971,12637.210657
1151.157042,-1608.372265,-11105.427547,11794.729947
1151.157337,1531.783110,-10339.535992,11794.729947
1151.157631,2144.496354,-10033.179370,11028.838392
1151.157931,459.534933,-8271.628794,10416.125148
1151.158231,-0.000000,-5054.884263,10262.946837
1151.158531,2680.620442,-689.302399,7888.683016
1151.158831,1531.783110,1838.139732,9650.233593
1151.159131,1072.248177,4288.992708,9573.644437
1151.159432,3140.155375,7735.504705,9880.001059
1151.159732,2527.442131,9956.590215,11794.729947
1151.160032,-76.589155,9267.287815,11488.373325
1151.160322,-3063.566220,7582.326394,10722.481770
1151.160625,-842.480710,4748.527641,8654.574571
1151.160929,-4825.116796,-3446.511997,10875.660081
1151.161232,-5437.830040,-10186.357681,12637.210657
1151.161536,-3676.279464,-11564.962480,13020.156435
1151.161839,1991.318043,-10339.535992,11718.140791
1151.162142,2680.620442,-9726.822748,11335.195014
1151.162446,919.069866,-6893.023995,11182.016703
1151.162719,153.178311,-1761.550576,11028.838392
1151.163024,1531.783110,2604.031287,9956.590215
1151.163328,1531.783110,5437.830040,9267.287815
1151.163633,1225.426488,7582.326394,9420.466126
1151.163937,1838.139732,10262.946837,9650.233593
1151.164242,1531.783110,11947.908258,11182.016703
1151.164547,2144.496354,11641.551636,8731.163727
1151.164851,-3369.922842,6203.721595,9956.590215
1151.165135,-4978.295107,1225.426488,11947.908258
1151.165438,-6816.434839,-4825.116796,11335.195014
1151.165740,-3216.744531,-9037.520349,11028.838392
1151.166043,-76.589155,-11411.784169,11028.838392
1151.166346,1838.139732,-11718.140791,10416.125148
1151.166649,1684.961421,-11258.605858,10109.768526
1151.166952,-536.124088,-10186.357681,10569.303459
1151.167255,-536.124088,-7965.272172,11182.016703
1151.167536,459.534933,-3599.690308,9880.001059
1151.167833,2833.798753,459.534933,8960.931193
1151.168129,5667.597507,7122.791461,7275.969772
1151.168425,7046.202306,10722.481770,7965.272172
1151.168721,2680.620442,11641.551636,9650.233593
1151.169018,-1608.372265,10722.481770,9956.590215
1151.169314,-6816.434839,5744.186662,11411.784169
1151.169610,-8577.985416,-76.589155,12101.086569
1151.169922,-8577.985416,-7505.737239,12560.621502
1151.170221,-4825.116796,-12637.210657,11411.784169
1151.170520,-76.589155,-15011.474478,12254.264880
1151.170819,3293.333686,-14475.350389,12101.086569
1151.171118,4212.403552,-11258.605858,10952.249236
1151.171417,3599.690308,-7812.093861,10262.946837
1151.171717,2986.977064,-5514.419196,9726.822748
1151.172016,1991.318043,-689.302399,9803.411904
1151.172325,2833.798753,4442.171019,8501.396260
1151.172623,2527.442131,9267.287815,8195.039638
1151.172922,3752.868619,13939.226301,10262.946837
1151.173220,2144.496354,15394.420255,11182.016703
1151.173519,-1608.372265,14398.761234,11335.195014
1151.173817,-4978.295107,11335.195014,11794.729947
1151.174116,-6816.434839,6050.543284,11794.729947
1151.174415,-4595.349330,-382.945777,11258.605858
1151.174722,-2374.263820,-6739.845684,10875.660081
1151.175020,919.069866,-11564.962480,12254.264880
1151.175319,1072.248177,-13556.280523,12407.443191
1151.175618,306.356622,-13862.637145,11488.373325
1151.175917,2527.442131,-11258.605858,9343.876971
1151.176216,2833.798753,-7352.558928,8501.396260
1151.176515,153.178311,-3752.868619,8807.752882
1151.176814,919.069866,3523.101153,7352.558928
1151.177110,2374.263820,9956.590215,9573.644437
1151.177413,4365.581863,13632.869679,9726.822748
1151.177716,1072.248177,14398.761234,9956.590215
1151.178019,-3982.636086,12560.621502,10262.946837
1151.178322,-4442.171019,8348.217949,10875.660081
1151.178625,-3982.636086,612.713244,11182.016703
1151.178928,-3982.636086,-7965.272172,11335.195014
1151.179231,-4135.814397,-13709.458834,12713.799813
1151.179525,-1455.193954,-16849.614210,12560.621502
1151.179826,919.069866,-16236.900966,11947.908258
1151.180126,2833.798753,-15317.831100,9726.822748
1151.180426,-689.302399,-12177.675724,11488.373325
1151.180726,-1302.015643,-7352.558928,10262.946837
1151.181026,-76.589155,-229.767466,8271.628794
1151.181326,3446.511997,5131.473418,8348.217949
1151.181626,4518.760174,10262.946837,8960.931193
1151.181914,4059.225241,12407.443191,11411.784169
1151.182215,2144.496354,14934.885322,10339.535992
1151.182516,306.356622,14245.582923,9420.466126
1151.182817,-2067.907198,7735.504705,10569.303459
1151.183118,-5897.364973,-76.589155,12713.799813
1151.183418,-5284.651729,-5973.954129,12560.621502
1151.183719,-3982.636086,-10799.070925,12407.443191
1151.184020,-1455.193954,-13862.637145,11488.373325
1151.184329,-842.480710,-14858.296167,11028.838392
1151.184628,-689.302399,-14322.172078,11718.140791
1151.184926,-2067.907198,-9190.698660,10109.768526
1151.185225,1072.248177,-2374.263820,8654.574571
1151.185524,919.069866,1531.783110,9803.411904
1151.185822,3906.046930,7275.969772,9420.466126
1151.186121,6280.310751,12866.978124,10109.768526
1151.186420,7046.202306,17845.273231,8501.396260
1151.186727,5361.240885,17385.738298,7505.737239
1151.187025,-689.302399,14092.404612,9573.644437
1151.187323,-2604.031287,7275.969772,9956.590215
1151.187621,-8271.628794,-3293.333686,13556.280523
1151.187919,-9037.520349,-10952.249236,12943.567279
1151.188217,-5284.651729,-14705.117856,11488.373325
1151.188516,-1608.372265,-15317.831100,12024.497413
1151.188814,-229.767466,-15624.187722,10952.249236
1151.189130,153.178311,-12943.567279,11028.838392
1151.189428,-1302.015643,-8118.450483,11794.729947
1151.189727,1225.426488,-2833.798753,10109.768526
1151.190025,4671.938485,4288.992708,8195.039638
1151.190324,8960.931193,10262.946837,7275.969772
1151.190622,7888.683016,12254.264880,8960.931193
1151.190921,2297.674665,12407.443191,11947.908258
1151.191219,306.356622,13479.691368,9956.590215
1151.191534,-4288.992708,8654.574571,10875.660081
1151.191832,-6816.434839,1378.604799,11947.908258
1151.192131,-8884.342038,-6586.667373,12101.086569
1151.192430,-6203.721595,-11105.427547,12713.799813
1151.192728,-2450.852976,-14168.993767,11182.016703
1151.193027,306.356622,-16236.900966,12101.086569
1151.193326,919.069866,-16236.900966,12713.799813
1151.193624,919.069866,-12943.567279,10722.481770
1151.193912,1378.604799,-8884.342038,10186.357681
1151.194210,3293.333686,-2527.442131,9267.287815
1151.194507,5667.597507,3216.744531,7275.969772
1151.194805,7046.202306,10416.125148,7888.683016
1151.195103,8041.861327,15700.776877,9573.644437
1151.195400,4365.581863,16773.025054,9573.644437
1151.195698,1838.139732,17079.381676,9573.644437
1151.195995,-3676.279464,12713.799813,10569.303459
1151.196295,-6510.078217,6050.543284,11182.016703
1151.196595,-10339.535992,-2986.977064,12484.032346
1151.196895,-9190.698660,-9343.876971,13403.102212
1151.197195,-4825.116796,-12943.567279,12943.567279
1151.197495,-3063.566220,-15317.831100,12407.443191
1151.197795,-1148.837332,-15164.652789,11794.729947
1151.198095,306.356622,-12484.032346,10033.179370
1151.198395,1838.139732,-7352.558928,10186.357681
1151.198702,3446.511997,-2680.620442,9037.520349
1151.199005,7888.683016,4595.349330,6356.899906
1151.199308,9956.590215,11335.195014,7735.504705
1151.199612,10109.768526,14475.350389,8041.861327
1151.199915,3752.868619,14628.528700,10109.768526
1151.200219,-1302.015643,13479.691368,11488.373325
1151.200522,-5131.473418,10109.768526,9956.590215
1151.200825,-7658.915550,3523.101153,11335.195014
1151.201100,-9726.822748,-4901.705952,11641.551636
1151.201403,-9880.001059,-14168.993767,13403.102212
1151.201707,-6663.256528,-17462.327454,14934.885322
1151.202010,-2221.085509,-17768.684076,13786.047990
1151.202314,2297.674665,-16696.435899,9956.590215
1151.202618,2986.977064,-14475.350389,10109.768526
1151.202921,4901.705952,-9190.698660,9650.233593
1151.203225,7275.969772,-2527.442131,7735.504705
1151.203498,8654.574571,3523.101153,6356.899906
1151.203797,6739.845684,8960.931193,8424.807105
1151.204097,4059.225241,12254.264880,9803.411904
1151.204396,2527.442131,14781.707011,9573.644437
1151.204695,-536.124088,14781.707011,9650.233593
1151.204995,-6356.899906,11335.195014,10875.660081
1151.205294,-9880.001059,4748.527641,13403.102212
1151.205593,-10645.892614,-1148.837332,12560.621502
1151.205910,-5131.473418,-6280.310751,12101.086569
1151.206209,-2757.209598,-12024.497413,13556.280523
1151.206507,-689.302399,-14322.172078,12407.443191
1151.206806,3906.046930,-13403.102212,10262.946837
1151.207105,4059.225241,-11258.605858,10875.660081
1151.207403,5361.240885,-7965.272172,9803.411904
1151.207702,4901.705952,-2067.907198,8501.396260
1151.208000,5973.954129,5437.830040,6663.256528
1151.208300,5361.240885,11488.373325,8041.861327
1151.208598,2680.620442,16160.311810,10262.946837
1151.208895,-382.945777,17538.916609,10416.125148
1151.209193,-3063.566220,16007.133499,9803.411904
1151.209490,-5897.364973,11335.195014,11028.838392
1151.209787,-9190.698660,4135.814397,12407.443191
1151.210085,-7505.737239,-4059.225241,11794.729947
1151.210382,-4978.295107,-9726.822748,12560.621502
1151.210713,-1914.728887,-13862.637145,12943.567279
1151.211010,-229.767466,-17309.149143,12024.497413
1151.211307,1072.248177,-16849.614210,10339.535992
1151.211604,3140.155375,-14858.296167,10109.768526
1151.211900,3906.046930,-11564.962480,10109.768526
1151.212197,3599.690308,-6280.310751,7888.683016
1151.212494,6739.845684,1531.783110,7658.915550
1151.212791,6739.845684,8195.039638,8960.931193
1151.213099,4748.527641,12866.978124,9650.233593
1151.213399,2297.674665,16160.311810,9267.287815
1151.213699,-3063.566220,15394.420255,10109.768526
1151.213999,-4288.992708,11794.729947,11028.838392
1151.214299,-8271.628794,2910.387909,12484.032346
1151.214598,-7965.272172,-5054.884263,11794.729947
1151.214898,-6663.256528,-11718.140791,12560.621502
1151.215198,-3216.744531,-15930.544344,13249.923901
1151.215481,-2067.907198,-18228.219009,12254.264880
1151.215786,-382.945777,-18075.040698,10722.481770
1151.216091,2144.496354,-13709.458834,10033.179370
1151.216396,6127.132440,-7352.558928,8424.807105
1151.216700,7275.969772,-995.659021,7352.558928
1151.217005,6586.667373,5131.473418,8501.396260
1151.217310,6586.667373,11182.016703,9573.644437
1151.217615,6280.310751,16466.668432,9573.644437
1151.217932,3906.046930,19300.467186,8501.396260
1151.218229,-689.302399,18151.629853,9420.466126
1151.218525,-3216.744531,13786.047990,10799.070925
1151.218822,-5591.008351,5591.008351,11028.838392
1151.219119,-6969.613150,-3140.155375,12407.443191
1151.219415,-10033.179370,-11411.784169,14475.350389
1151.219712,-8731.163727,-14858.296167,15088.063633
1151.220009,-5437.830040,-16390.079277,12254.264880
1151.220298,-2450.852976,-15164.652789,11335.195014
1151.220598,-1761.550576,-12484.032346,11641.551636
1151.220897,1838.139732,-6893.023995,10033.179370
1151.221196,7429.148083,919.069866,6969.613150
1151.221495,11794.729947,9114.109504,6510.078217
1151.221794,11794.729947,13939.226301,8195.039638
1151.222093,8348.217949,17232.559987,8041.861327
1151.222393,3293.333686,16926.203365,9343.876971
1151.222706,-2374.263820,13326.513057,10262.946837
1151.223002,-4825.116796,4825.116796,11564.962480
1151.223297,-9037.520349,-4518.760174,12943.567279
1151.223593,-9343.876971,-12024.497413,12943.567279
1151.223888,-8424.807105,-15930.544344,13862.637145
1151.224183,-5284.651729,-16543.257588,13479.691368
1151.224479,-2604.031287,-16236.900966,11335.195014
1151.224774,-2450.852976,-13862.637145,11335.195014
1151.225081,-0.000000,-9190.698660,10492.714303
1151.225382,4212.403552,-5054.884263,8348.217949
1151.225682,9114.109504,1072.248177,5897.364973
1151.225983,10569.303459,5744.186662,6969.613150
1151.226283,9803.411904,8807.752882,9420.466126
1151.226584,5667.597507,10875.660081,9650.233593
1151.226884,3446.511997,12560.621502,8960.931193
1151.227185,-1455.193954,9803.411904,9956.590215
1151.227481,-7352.558928,3676.279464,11488.373325
1151.227781,-10186.357681,-1914.728887,13096.745590
1151.228081,-8271.628794,-6586.667373,12254.264880
1151.228381,-6356.899906,-10645.892614,12713.799813
1151.228681,-5284.651729,-14168.993767,13862.637145
1151.228980,-3676.279464,-13709.458834,11182.016703
1151.229280,-1608.372265,-10799.070925,12254.264880
1151.229580,3752.868619,-5054.884263,9956.590215
1151.229875,6586.667373,-382.945777,7429.148083
1151.230176,9650.233593,6510.078217,6510.078217
1151.230477,10262.946837,11641.551636,8041.861327
1151.230778,7582.326394,14398.761234,10569.303459
1151.231079,1991.318043,14092.404612,10339.535992
1151.231379,-2374.263820,12713.799813,9650.233593
1151.231680,-4748.527641,9267.287815,9880.001059
1151.231981,-5744.186662,3829.457775,10722.481770
1151.232269,-7352.558928,-3599.690308,11028.838392
1151.232570,-7505.737239,-9726.822748,12790.388968
1151.232871,-5591.008351,-13403.102212,14015.815456
1151.233172,-3369.922842,-14015.815456,13096.745590
1151.233472,-229.767466,-13096.745590,10569.303459
1151.233773,-382.945777,-10339.535992,9803.411904
1151.234074,2144.496354,-6433.489062,10416.125148
1151.234375,4671.938485,-2986.977064,9114.109504
1151.234684,9497.055282,3676.279464,7505.737239
1151.234983,9650.233593,8041.861327,8195.039638
1151.235283,7888.683016,10722.481770,9420.466126
1151.235582,3752.868619,11641.551636,8960.931193
1151.235881,-3982.636086,9420.466126,10722.481770
1151.236181,-7352.558928,4825.116796,11182.016703
1151.236480,-12101.086569,-1455.193954,13862.637145
1151.236780,-9726.822748,-5054.884263,12790.388968
1151.237087,-4595.349330,-8577.985416,11028.838392
1151.237386,-1302.015643,-10339.535992,12713.799813
1151.237686,1378.604799,-11564.962480,12101.086569
1151.237986,2374.263820,-10952.249236,10875.660081
1151.238285,3446.511997,-8424.807105,10569.303459
1151.238585,5054.884263,-6433.489062,9114.109504
1151.238885,5361.240885,-2680.620442,7582.326394
1151.239184,7582.326394,2910.387909,7046.202306
1151.239481,7429.148083,7735.504705,8501.396260
1151.239778,3599.690308,10569.303459,10569.303459
1151.240076,153.178311,12101.086569,10875.660081
1151.240373,-4442.171019,11488.373325,10952.249236
1151.240671,-4978.295107,10722.481770,11641.551636
1151.240968,-8884.342038,4595.349330,11641.551636
1151.241265,-8271.628794,-536.124088,11641.551636
1151.241563,-6203.721595,-5514.419196,12790.388968
1151.241877,-2067.907198,-8577.985416,12560.621502
1151.242176,-842.480710,-11564.962480,12254.264880
1151.242474,612.713244,-11564.962480,10109.768526
1151.242773,2986.977064,-9650.233593,9573.644437
1151.243072,5667.597507,-6586.667373,8960.931193
1151.243371,4748.527641,-3599.690308,9267.287815
1151.243669,4059.225241,3063.566220,8807.752882
1151.243968,4518.760174,8348.217949,9650.233593
1151.244280,2833.798753,12254.264880,9267.287815
1151.244579,1225.426488,13173.334746,8195.039638
1151.244878,-3982.636086,10262.946837,10645.892614
1151.245177,-3676.279464,6510.078217,10722.481770
1151.245476,-3982.636086,-536.124088,11105.427547
1151.245775,-2910.387909,-5973.954129,11488.373325
1151.246074,-3216.744531,-10952.249236,12407.443191
1151.246373,-2450.852976,-14551.939545,13556.280523
1151.246673,-1914.728887,-14858.296167,12713.799813
1151.246972,-2221.085509,-14015.815456,11335.195014
1151.247271,306.356622,-10799.070925,10033.179370
1151.247571,3293.333686,-4901.705952,8041.861327
1151.247870,6739.845684,-1148.837332,6969.613150
1151.248169,7046.202306,4825.116796,7888.683016
1151.248468,5973.954129,7888.683016,10416.125148
1151.248768,2297.674665,10722.481770,11794.729947
1151.249075,1531.783110,12866.978124,9190.698660
1151.249374,-4442.171019,11947.908258,8960.931193
1151.249673,-3829.457775,7122.791461,10952.249236
1151.249972,-6816.434839,-382.945777,12254.264880
1151.250272,-3523.101153,-5973.954129,11488.373325
1151.250571,-2374.263820,-10645.892614,12866.978124
1151.250870,-689.302399,-12024.497413,13096.745590
1151.251169,612.713244,-12330.854035,11488.373325
1151.251490,-842.480710,-10186.357681,10722.481770
1151.251787,1531.783110,-6127.132440,9803.411904
1151.252084,153.178311,-1302.015643,9956.590215
1151.252381,2986.977064,4595.349330,8654.574571
1151.252678,3293.333686,11182.016703,9573.644437
1151.252975,4518.760174,15241.241944,10262.946837
1151.253272,2527.442131,16313.490121,9803.411904
1151.253569,459.534933,15853.955188,8654.574571
1151.253888,-3216.744531,11488.373325,10722.481770
1151.254186,-4978.295107,3982.636086,12101.086569
1151.254484,-3369.922842,-3293.333686,11028.838392
1151.254782,-842.480710,-9343.876971,10339.535992
1151.255081,-382.945777,-14322.172078,11028.838392
1151.255379,-382.945777,-16390.079277,12866.978124
1151.255677,-536.124088,-16390.079277,10875.660081
1151.255975,-1455.193954,-13403.102212,11641.551636
1151.256288,-1148.837332,-8271.628794,9726.822748
1151.256584,-1608.372265,-3446.511997,9573.644437
1151.256880,2527.442131,3523.101153,8654.574571
1151.257176,7122.791461,9420.466126,8348.217949
1151.257472,6739.845684,12560.621502,9650.233593
1151.257768,3446.511997,13020.156435,9267.287815
1151.258064,-995.659021,11947.908258,9880.001059
1151.258360,-3829.457775,7582.326394,9956.590215
1151.258660,-5437.830040,-0.000000,11182.016703
1151.258961,-7122.791461,-8271.628794,11947.908258
1151.259261,-4978.295107,-12943.567279,12101.086569
1151.259562,-1914.728887,-15471.009411,11028.838392
1151.259863,306.356622,-16083.722655,11794.729947
1151.260164,765.891555,-15624.187722,10569.303459
1151.260464,-229.767466,-12330.854035,11105.427547
1151.260765,2144.496354,-5054.884263,9803.411904
1151.261072,2144.496354,-76.589155,8501.396260
1151.261369,5820.775818,5284.651729,8348.217949
1151.261666,5973.954129,10109.768526,9956.590215
1151.261963,6893.023995,13786.047990,10416.125148
1151.262260,3599.690308,14398.761234,9343.876971
1151.262557,-382.945777,12866.978124,9880.001059
1151.262854,-842.480710,9267.287815,10569.303459
1151.263150,-4595.349330,3829.457775,11182.016703
1151.263464,-6050.543284,-3140.155375,11488.373325
1151.263767,-5591.008351,-8271.628794,12943.567279
1151.264070,-5437.830040,-12637.210657,13862.637145
1151.264373,-5897.364973,-14322.172078,13632.869679
1151.264675,-2757.209598,-12484.032346,11335.195014
1151.264978,-1302.015643,-7658.915550,9573.644437
1151.265281,3293.333686,-1148.837332,9573.644437
1151.265583,5514.419196,4288.992708,7888.683016
1151.265902,6586.667373,9650.233593,8195.039638
1151.266198,5054.884263,12407.443191,10109.768526
1151.266494,1991.318043,12560.621502,9803.411904
1151.266791,-382.945777,11335.195014,9803.411904
1151.267087,-4825.116796,5591.008351,11028.838392
1151.267383,-4135.814397,-76.589155,10109.768526
1151.267679,-3829.457775,-5820.775818,11641.551636
1151.267975,-0.000000,-9343.876971,10109.768526
1151.268212,765.891555,-13249.923901,11182.016703
1151.268518,1531.783110,-13709.458834,12560.621502
1151.268824,1378.604799,-11564.962480,10569.303459
1151.269130,612.713244,-9726.822748,9573.644437
1151.269436,-1761.550576,-6893.023995,10186.357681
1151.269742,-1761.550576,-4059.225241,10875.660081
1151.270047,1072.248177,-382.945777,9420.466126
1151.270353,4901.705952,5437.830040,8960.931193
1151.270653,5973.954129,8654.574571,8807.752882
1151.270953,1378.604799,10262.946837,11182.016703
1151.271253,-1914.728887,11182.016703,10875.660081
1151.271553,-6050.543284,7429.148083,10109.768526
1151.271853,-6663.256528,4135.814397,11182.016703
1151.272153,-9343.876971,-4212.403552,11641.551636
1151.272454,-6816.434839,-8577.985416,12101.086569
1151.272754,459.534933,-11411.784169,11182.016703
1151.273044,3752.868619,-12484.032346,11182.016703
1151.273347,3752.868619,-12790.388968,12177.675724
1151.273649,2527.442131,-9650.233593,10875.660081
1151.273952,5054.884263,-2527.442131,9803.411904
1151.274255,4059.225241,919.069866,9267.287815
1151.274557,2527.442131,5284.651729,8654.574571
1151.274860,1838.139732,10416.125148,9803.411904
1151.275163,3599.690308,13632.869679,9573.644437
1151.275471,612.713244,13479.691368,10645.892614
1151.275770,-1761.550576,12560.621502,10952.249236
1151.276070,-5284.651729,8654.574571,10722.481770
1151.276370,-5744.186662,2604.031287,10416.125148
1151.276670,-5744.186662,-2986.977064,10492.714303
1151.276970,-4825.116796,-9726.822748,12177.675724
1151.277269,-3829.457775,-13249.923901,11641.551636
1151.277569,-995.659021,-14168.993767,12254.264880
1151.277852,919.069866,-14858.296167,11028.838392
1151.278155,1838.139732,-14015.815456,11028.838392
1151.278458,3599.690308,-8884.342038,9573.644437
1151.278761,3752.868619,-3446.511997,8807.752882
1151.279064,6586.667373,3982.636086,7888.683016
1151.279367,5820.775818,7735.504705,8654.574571
1151.279670,4518.760174,13173.334746,9497.055282
1151.279973,306.356622,13173.334746,9803.411904
1151.280255,-3676.279464,11182.016703,10033.179370
1151.280557,-6050.543284,7275.969772,9650.233593
1151.280860,-5744.186662,1838.139732,10799.070925
1151.281163,-6203.721595,-5820.775818,12254.264880
1151.281465,-4595.349330,-11258.605858,12790.388968
1151.281768,-536.124088,-12484.032346,13096.745590
1151.282070,919.069866,-13709.458834,12713.799813
1151.282373,919.069866,-13249.923901,10416.125148
1151.282605,-1761.550576,-13249.923901,12407.443191
1151.282909,1531.783110,-6893.023995,10033.179370
1151.283213,5667.597507,-1302.015643,7888.683016
1151.283517,7275.969772,5897.364973,6969.613150
1151.283821,5820.775818,10569.303459,9956.590215
1151.284126,4518.760174,15700.776877,10722.481770
1151.284430,1531.783110,17232.559987,9956.590215
1151.284734,-3523.101153,15853.955188,11028.838392
1151.285043,-7352.558928,10722.481770,10875.660081
1151.285342,-8271.628794,4748.527641,12560.621502
1151.285640,-4595.349330,-2527.442131,10875.660081
1151.285938,-1148.837332,-8118.450483,11028.838392
1151.286237,765.891555,-11564.962480,12713.799813
1151.286535,153.178311,-15317.831100,12407.443191
1151.286834,1378.604799,-14168.993767,11182.016703
1151.287132,459.534933,-10645.892614,10569.303459
1151.287440,306.356622,-6127.132440,8960.931193
1151.287739,306.356622,-1302.015643,8041.861327
1151.288039,2374.263820,5591.008351,8654.574571
1151.288339,5973.954129,10722.481770,8807.752882
1151.288638,4901.705952,14092.404612,8960.931193
1151.288938,-76.589155,14092.404612,9420.466126
1151.289238,-5131.473418,11794.729947,10109.768526
1151.289537,-5284.651729,7429.148083,11182.016703
1151.289834,-7199.380617,-689.302399,12407.443191
1151.290134,-6510.078217,-10033.179370,11488.373325
1151.290433,-5591.008351,-15624.187722,13479.691368
1151.290733,-76.589155,-17615.505765,12254.264880
1151.291032,3906.046930,-18381.397320,10339.535992
1151.291332,3752.868619,-18381.397320,10109.768526
1151.291631,2144.496354,-14322.172078,10109.768526
1151.291931,4365.581863,-7658.915550,9573.644437
1151.292258,7046.202306,153.178311,6663.256528
1151.292557,6280.310751,6203.721595,7582.326394
1151.292856,5054.884263,10416.125148,9803.411904
1151.293155,2680.620442,14475.350389,11488.373325
1151.293454,765.891555,17079.381676,10109.768526
1151.293752,-3523.101153,14398.761234,10033.179370
1151.294051,-6663.256528,10109.768526,10569.303459
1151.294350,-9880.001059,765.891555,12254.264880
1151.294638,-11105.427547,-7812.093861,12866.978124
1151.294939,-11411.784169,-14322.172078,15164.652789
1151.295240,-5591.008351,-16236.900966,14628.528700
1151.295541,-842.480710,-17615.505765,11794.729947
1151.295841,3446.511997,-15011.474478,10109.768526
1151.296142,8807.752882,-7965.272172,8654.574571
1151.296443,12790.388968,-382.945777,6586.667373
1151.296744,14245.582923,5591.008351,5973.954129
1151.297053,10416.125148,11182.016703,8195.039638
1151.297352,6739.845684,15241.241944,9956.590215
1151.297650,2144.496354,18611.164786,10109.768526
1151.297949,-1761.550576,17692.094920,9267.287815
1151.298248,-9880.001059,11947.908258,11488.373325
1151.298546,-11947.908258,5131.473418,12713.799813
1151.298845,-13632.869679,-1608.372265,14322.172078
1151.299144,-10033.179370,-5973.954129,14015.815456
1151.299451,-7505.737239,-10952.249236,14015.815456
1151.299749,-2757.209598,-12024.497413,11641.551636
1151.300047,1838.139732,-11564.962480,9956.590215
1151.300345,2833.798753,-12024.497413,10339.535992
1151.300643,2833.798753,-12177.675724,9573.644437
1151.300941,6586.667373,-9037.520349,9573.644437
1151.301239,14245.582923,-2680.620442,5591.008351
1151.301538,15777.366033,4748.527641,5820.775818
1151.301854,12943.567279,8348.217949,7888.683016
1151.302152,3140.155375,12560.621502,10569.303459
1151.302451,-3676.279464,12254.264880,11335.195014
1151.302749,-11258.605858,10875.660081,11411.784169
1151.303048,-14934.885322,4442.171019,12484.032346
1151.303346,-17002.792521,-2374.263820,13862.637145
1151.303644,-12101.086569,-8577.985416,13403.102212
1151.303943,-4825.116796,-11871.319102,12943.567279
1151.304257,1072.248177,-14168.993767,12713.799813
1151.304556,4365.581863,-14015.815456,11488.373325
1151.304855,7582.326394,-12637.210657,9267.287815
1151.305153,12484.032346,-7505.737239,7275.969772
1151.305452,10109.768526,-3752.868619,6739.845684
1151.305751,8654.574571,612.713244,6356.899906
1151.306050,6127.132440,6356.899906,8654.574571
1151.306348,4748.527641,10569.303459,10109.768526
1151.306637,1072.248177,12407.443191,11182.016703
1151.306936,-4442.171019,13939.226301,10875.660081
1151.307236,-8118.450483,13479.691368,11028.838392
1151.307536,-9343.876971,8195.039638,11335.195014
1151.307836,-12866.978124,1378.604799,13403.102212
1151.308136,-12101.086569,-4901.705952,15241.241944
1151.308436,-8118.450483,-8884.342038,13862.637145
1151.308736,-2067.907198,-10645.892614,12484.032346
1151.309035,4212.403552,-11411.784169,9573.644437
1151.309335,5820.775818,-12024.497413,9190.698660
1151.309634,10416.125148,-6893.023995,7965.272172
1151.309933,13249.923901,-842.480710,5514.419196
1151.310233,12177.675724,2757.209598,5820.775818
1151.310532,6433.489062,6816.434839,10339.535992
1151.310831,3599.690308,11488.373325,12101.086569
1151.311130,612.713244,14245.582923,9650.233593
1151.311437,-5744.186662,13479.691368,9343.876971
1151.311737,-10645.892614,8960.931193,11794.729947
1151.312036,-13479.691368,3676.279464,13556.280523
1151.312335,-12101.086569,-2986.977064,13709.458834
1151.312634,-10799.070925,-8884.342038,14551.939545
1151.312933,-6203.721595,-12330.854035,13173.334746
1151.313233,-229.767466,-12790.388968,11335.195014
1151.313532,4518.760174,-15317.831100,8807.752882
1151.313852,5667.597507,-15777.366033,9573.644437
1151.314150,10109.768526,-12484.032346,9650.233593
1151.314447,13096.745590,-7199.380617,5667.597507
1151.314744,15164.652789,-382.945777,4901.705952
1151.315041,10569.303459,5284.651729,8960.931193
1151.315338,3140.155375,9267.287815,11794.729947
1151.315635,-1914.728887,13786.047990,9420.466126
1151.315932,-7505.737239,15241.241944,9803.411904
1151.316250,-13020.156435,11182.016703,12101.086569
1151.316547,-15241.241944,4288.992708,14934.885322
1151.316844,-11105.427547,-382.945777,14168.993767
1151.317141,-6203.721595,-5208.062574,13249.923901
1151.317438,-3063.566220,-9343.876971,13096.745590
1151.317735,-842.480710,-12484.032346,11641.551636
1151.318031,2833.798753,-12177.675724,10262.946837
1151.318328,4748.527641,-11258.605858,9267.287815
1151.318645,8654.574571,-7965.272172,8271.628794
1151.318941,11871.319102,-3140.155375,5514.419196
1151.319237,14551.939545,4288.992708,6280.310751
1151.319534,11641.551636,7888.683016,8960.931193
1151.319830,3599.690308,12101.086569,10569.303459
1151.320126,-1914.728887,16160.311810,10799.070925
1151.320422,-9343.876971,14934.885322,10262.946837
1151.320718,-9726.822748,13326.513057,9956.590215
1151.321017,-14934.885322,4442.171019,13249.923901
1151.321318,-13939.226301,-3140.155375,13249.923901
1151.321619,-10186.357681,-10033.179370,14628.528700
1151.321920,-3063.566220,-11411.784169,14168.993767
1151.322220,1991.318043,-13096.745590,10569.303459
1151.322521,3293.333686,-13556.280523,9803.411904
1151.322822,4212.403552,-12790.388968,10109.768526
1151.323123,7582.326394,-8884.342038,7812.093861
1151.323430,9114.109504,-4671.938485,6127.132440
1151.323727,9803.411904,1225.426488,6663.256528
1151.324024,10262.946837,4978.295107,8041.861327
1151.324321,4671.938485,9267.287815,10875.660081
1151.324618,2680.620442,12560.621502,9650.233593
1151.324915,-2221.085509,13939.226301,9190.698660
1151.325212,-6510.078217,9803.411904,10109.768526
1151.325508,-10339.535992,3216.744531,11794.729947
1151.325816,-13939.226301,-6433.489062,14168.993767
1151.326115,-13939.226301,-13862.637145,16390.079277
1151.326414,-10799.070925,-16236.900966,15394.420255
1151.326713,-3369.922842,-16236.900966,12101.086569
1151.327012,1838.139732,-15011.474478,10569.303459
1151.327311,8041.861327,-11258.605858,8348.217949
1151.327610,10875.660081,-6280.310751,6969.613150
1151.327909,15011.474478,919.069866,4748.527641
1151.328225,13249.923901,5744.186662,6663.256528
1151.328527,8654.574571,9650.233593,10416.125148
1151.328830,3140.155375,13786.047990,11182.016703
1151.329132,153.178311,16773.025054,9956.590215
1151.329434,-4442.171019,17079.381676,9803.411904
1151.329736,-5897.364973,11641.551636,10262.946837
1151.330038,-10799.070925,6050.543284,12790.388968
1151.330340,-11105.427547,-2680.620442,14015.815456
1151.330657,-10952.249236,-8118.450483,14934.885322
1151.330952,-7199.380617,-10645.892614,15547.598566
1151.331246,-3829.457775,-12330.854035,11794.729947
1151.331540,-1148.837332,-11871.319102,10109.768526
1151.331835,3599.690308,-10033.179370,10109.768526
1151.332129,6893.023995,-7199.380617,7888.683016
1151.332424,12637.210657,-0.000000,5514.419196
1151.332718,12177.675724,4748.527641,7199.380617
1151.333018,9803.411904,10109.768526,8884.342038
1151.333317,4365.581863,11794.729947,9956.590215
1151.333616,-2374.263820,12560.621502,10569.303459
1151.333916,-4825.116796,11947.908258,9803.411904
1151.334215,-6203.721595,7888.683016,9726.822748
1151.334514,-6816.434839,-842.480710,10875.660081
1151.334813,-8424.807105,-9497.055282,13403.102212
1151.335112,-8424.807105,-14475.350389,15241.241944
1151.335398,-4825.116796,-14705.117856,12943.567279
1151.335701,-1608.372265,-15317.831100,9956.590215
1151.336003,-2604.031287,-15471.009411,11105.427547
1151.336306,765.891555,-11258.605858,10416.125148
1151.336609,5054.884263,-8118.450483,6663.256528
1151.336911,11488.373325,-1608.372265,5514.419196
1151.337214,10416.125148,1684.961421,8960.931193
1151.337517,8195.039638,6356.899906,10416.125148
1151.337824,5667.597507,11028.838392,10033.179370
1151.338121,919.069866,11641.551636,9650.233593
1151.338418,-3676.279464,9803.411904,9343.876971
1151.338716,-8731.163727,6663.256528,13020.156435
1151.339013,-6969.613150,765.891555,11335.195014
1151.339310,-7352.558928,-5054.884263,12101.086569
1151.339607,-6969.613150,-9650.233593,14934.885322
1151.339905,-4825.116796,-11564.962480,13403.102212
1151.340201,-0.000000,-11105.427547,10875.660081
1151.340502,2374.263820,-8271.628794,10109.768526
1151.340803,3752.868619,-6739.845684,9573.644437
1151.341104,6127.132440,-76.589155,7582.326394
1151.341405,10569.303459,6203.721595,7658.915550
1151.341707,9267.287815,8960.931193,9267.287815
1151.342008,3599.690308,10416.125148,11947.908258
1151.342309,459.534933,14398.761234,11258.605858
1151.342603,-2374.263820,13173.334746,8807.752882
1151.342904,-3676.279464,11488.373325,8731.163727
1151.343205,-8118.450483,4288.992708,11871.319102
1151.343506,-9343.876971,-1148.837332,11947.908258
1151.343807,-7965.272172,-7352.558928,13403.102212
1151.344108,-4978.295107,-9726.822748,13786.047990
1151.344409,-2067.907198,-12330.854035,11028.838392
1151.344709,-382.945777,-13096.745590,10569.303459
1151.344997,2144.496354,-11258.605858,9114.109504
1151.345298,3906.046930,-9880.001059,10186.357681
1151.345599,7429.148083,-4901.705952,8501.396260
1151.345900,10569.303459,919.069866,6969.613150
1151.346201,9114.109504,5897.364973,8807.752882
1151.346502,4518.760174,9267.287815,10875.660081
1151.346802,-0.000000,11028.838392,10109.768526
1151.347103,-3369.922842,9650.233593,9650.233593
1151.347389,-5897.364973,6816.434839,9956.590215
1151.347692,-9726.822748,-76.589155,11105.427547
1151.347994,-7965.272172,-4825.116796,12101.086569
1151.348297,-4978.295107,-10186.357681,12943.567279
1151.348600,-2067.907198,-12177.675724,13709.458834
1151.348902,-842.480710,-13862.637145,12024.497413
1151.349205,-1302.015643,-13556.280523,11488.373325
1151.349508,1838.139732,-10952.249236,10875.660081
1151.349780,4518.760174,-6893.023995,9956.590215
1151.350085,8501.396260,-1914.728887,7199.380617
1151.350389,9114.109504,4442.171019,6816.434839
1151.350694,7888.683016,8807.752882,9650.233593
1151.350999,3446.511997,11947.908258,11335.195014
1151.351303,-382.945777,12866.978124,11182.016703
1151.351608,-6356.899906,12866.978124,11182.016703
1151.351913,-5437.830040,11335.195014,10569.303459
1151.352209,-3829.457775,6203.721595,9803.411904
1151.352507,-2067.907198,306.356622,10262.946837
1151.352804,-1914.728887,-6280.310751,12943.567279
1151.353101,-3982.636086,-11105.427547,13326.513057
1151.353399,-1761.550576,-12330.854035,11182.016703
1151.353696,-1608.372265,-12790.388968,11182.016703
1151.353993,-995.659021,-11718.140791,10416.125148
1151.354291,-689.302399,-8271.628794,10262.946837
1151.354605,4518.760174,-536.124088,6510.078217
1151.354904,6280.310751,5591.008351,7275.969772
1151.355203,4365.581863,8960.931193,10416.125148
1151.355501,1378.604799,11947.908258,10569.303459
1151.355800,765.891555,13326.513057,9420.466126
1151.356099,-229.767466,12101.086569,7888.683016
1151.356398,-2450.852976,6050.543284,9803.411904
1151.356696,-3216.744531,-0.000000,10416.125148
1151.356984,-689.302399,-5208.062574,10416.125148
1151.357284,-1455.193954,-10952.249236,11947.908258
1151.357584,-4748.527641,-17309.149143,14781.707011
1151.357884,-4135.814397,-17309.149143,13862.637145
1151.358184,-2374.263820,-16083.722655,11182.016703
1151.358484,153.178311,-11564.962480,10262.946837
1151.358784,1378.604799,-7352.558928,9267.287815
1151.359084,4901.705952,-0.000000,6663.256528
1151.359384,7888.683016,6203.721595,8577.985416
1151.359686,5361.240885,8501.396260,10722.481770
1151.359989,1225.426488,10416.125148,12254.264880
1151.360292,-1148.837332,13479.691368,10416.125148
1151.360594,-1302.015643,11488.373325,8424.807105
1151.360897,-3216.744531,5897.364973,10875.660081
1151.361199,-3523.101153,-229.767466,11794.729947
1151.361502,-3829.457775,-3446.511997,11794.729947
1151.361843,-2221.085509,-7658.915550,12560.621502
1151.362134,-3063.566220,-11871.319102,13249.923901
1151.362425,-2757.209598,-13403.102212,13096.745590
1151.362716,-229.767466,-9726.822748,10722.481770
1151.363007,3599.690308,-4671.938485,7888.683016
1151.363298,3446.511997,-2067.907198,8501.396260
1151.363589,4365.581863,3063.566220,9420.466126
1151.363880,4748.527641,8195.039638,10262.946837
1151.364201,3906.046930,12101.086569,10416.125148
1151.364498,-0.000000,13020.156435,9880.001059
1151.364795,-3523.101153,13173.334746,9956.590215
1151.365092,-2374.263820,9956.590215,9114.109504
1151.365389,-3369.922842,4595.349330,11028.838392
1151.365686,-1148.837332,-2067.907198,10262.946837
1151.365983,-76.589155,-5820.775818,10416.125148
1151.366280,919.069866,-9343.876971,11335.195014
1151.366582,-1148.837332,-13556.280523,10875.660081
1151.366883,-2910.387909,-13709.458834,11641.551636
1151.367185,-4748.527641,-11411.784169,10875.660081
1151.367486,-2374.263820,-9190.698660,10109.768526
1151.367787,153.178311,-3906.046930,8654.574571
1151.368089,4059.225241,1072.248177,9114.109504
1151.368390,5667.597507,6050.543284,10109.768526
1151.368692,4059.225241,9650.233593,10416.125148
1151.369005,1072.248177,11028.838392,9803.411904
1151.369301,-2067.907198,9650.233593,10186.357681
1151.369597,-2374.263820,7275.969772,10262.946837
1151.369893,-2910.387909,459.534933,10569.303459
1151.370189,-2067.907198,-6127.132440,10875.660081
1151.370485,-1914.728887,-10952.249236,11335.195014
1151.370781,-1455.193954,-14475.350389,12407.443191
1151.371077,-1302.015643,-15624.187722,12407.443191
1151.371376,-689.302399,-14015.815456,11182.016703
1151.371676,-76.589155,-8884.342038,10645.892614
1151.371976,1225.426488,-4059.225241,9650.233593
1151.372276,765.891555,459.534933,8195.039638
1151.372576,4212.403552,7582.326394,9420.466126
1151.372876,4059.225241,10875.660081,10569.303459
1151.373176,765.891555,12866.978124,11182.016703
1151.373476,-0.000000,13173.334746,10722.481770
1151.373782,-2757.209598,11641.551636,9803.411904
1151.374086,-689.302399,7275.969772,9803.411904
1151.374389,-3063.566220,-0.000000,12101.086569
1151.374693,-3523.101153,-4901.705952,11028.838392
1151.374996,306.356622,-7658.915550,10722.481770
1151.375300,612.713244,-10186.357681,11641.551636
1151.375603,-0.000000,-11871.319102,10875.660081
1151.375907,-2374.263820,-10339.535992,10875.660081
1151.376146,-2604.031287,-6586.667373,10416.125148
1151.376454,153.178311,-2527.442131,9956.590215
1151.376762,3293.333686,1838.139732,7888.683016
1151.377069,5361.240885,8041.861327,8731.163727
1151.377377,5667.597507,11488.373325,9726.822748
1151.377685,3293.333686,14475.350389,10109.768526
1151.377993,459.534933,11947.908258,10262.946837
1151.378301,-4442.171019,8960.931193,10033.179370
1151.378619,-5131.473418,3523.101153,10416.125148
1151.378915,-6816.434839,-3140.155375,11182.016703
1151.379211,-4748.527641,-9726.822748,11564.962480
1151.379507,-995.659021,-13249.923901,11871.319102
1151.379803,-842.480710,-14858.296167,12101.086569
1151.380099,459.534933,-15317.831100,10875.660081
1151.380396,153.178311,-12484.032346,11335.195014
1151.380692,1531.783110,-8884.342038,11182.016703
1151.381009,4059.225241,-3906.046930,8960.931193
1151.381303,5208.062574,1991.318043,6969.613150
1151.381598,4671.938485,5744.186662,8731.163727
1151.381892,1838.139732,8041.861327,11028.838392
1151.382187,-689.302399,8960.931193,12713.799813
1151.382481,-1761.550576,9803.411904,10262.946837
1151.382776,-3063.566220,8807.752882,8960.931193
1151.383070,-3829.457775,2450.852976,10722.481770
1151.383370,-4978.295107,-2527.442131,10262.946837
1151.383670,-2450.852976,-7812.093861,12024.497413
1151.383970,-2067.907198,-10033.179370,11641.551636
1151.384270,-1455.193954,-12024.497413,11794.729947
1151.384570,-1148.837332,-12024.497413,11641.551636
1151.384870,765.891555,-9343.876971,10722.481770
1151.385170,3906.046930,-4212.403552,9497.055282
1151.385470,5514.419196,612.713244,7582.326394
1151.385800,5667.597507,6510.078217,9114.109504
1151.386097,5208.062574,9803.411904,9956.590215
1151.386394,3752.868619,12866.978124,10569.303459
1151.386691,-1148.837332,13632.869679,10262.946837
1151.386988,-3676.279464,11947.908258,9803.411904
1151.387285,-5284.651729,8960.931193,10262.946837
1151.387582,-5437.830040,3063.566220,10722.481770
1151.387879,-6050.543284,-4671.938485,11641.551636
1151.388187,-4978.295107,-8884.342038,13403.102212
1151.388487,-536.124088,-10186.357681,11947.908258
1151.388787,919.069866,-10799.070925,11028.838392
1151.389086,919.069866,-11411.784169,11028.838392
1151.389386,-76.589155,-9497.055282,10722.481770
1151.389686,2680.620442,-4518.760174,9190.698660
1151.389986,4212.403552,612.713244,7582.326394
1151.390286,4365.581863,3216.744531,8654.574571
1151.390569,2374.263820,5591.008351,11182.016703
1151.390872,1378.604799,8960.931193,11794.729947
1151.391175,-76.589155,10569.303459,9420.466126
1151.391478,-2067.907198,10416.125148,8654.574571
1151.391781,-2757.209598,6356.899906,9037.520349
1151.392084,-5284.651729,-1302.015643,10799.070925
1151.392386,-3216.744531,-5973.954129,10875.660081
1151.392689,-1761.550576,-11564.962480,11028.838392
1151.392971,-229.767466,-15317.831100,12790.388968
1151.393270,-842.480710,-16696.435899,12713.799813
1151.393569,1072.248177,-12943.567279,10492.714303
1151.393867,153.178311,-10033.179370,11028.838392
1151.394166,2833.798753,-5667.597507,9803.411904
1151.394465,2527.442131,1072.248177,8960.931193
1151.394764,5054.884263,8195.039638,8960.931193
1151.395063,3599.690308,12254.264880,9803.411904
1151.395374,-382.945777,13479.691368,11488.373325
1151.395675,-1455.193954,15088.063633,10109.768526
1151.395975,-3982.636086,13020.156435,9573.644437
1151.396275,-995.659021,8654.574571,10416.125148
1151.396575,-995.659021,1225.426488,11182.016703
1151.396875,1378.604799,-3293.333686,9267.287815
1151.397175,2144.496354,-9037.520349,9650.233593
1151.397475,-1148.837332,-13556.280523,12713.799813
1151.397760,-3829.457775,-16390.079277,13862.637145
1151.398062,-5131.473418,-15317.831100,12713.799813
1151.398364,-4748.527641,-10799.070925,11641.551636
1151.398666,-1761.550576,-4901.705952,9573.644437
1151.398968,2680.620442,1838.139732,7352.558928
1151.399270,6433.489062,9573.644437,8501.396260
1151.399571,5973.954129,13632.869679,8960.931193
1151.399873,-382.945777,14092.404612,10875.660081
1151.400180,-995.659021,14475.350389,9650.233593
1151.400480,-3982.636086,11028.838392,9573.644437
1151.400780,-3829.457775,4978.295107,10875.660081
1151.401079,-4442.171019,-4825.116796,11028.838392
1151.401379,-842.480710,-9497.055282,11335.195014
1151.401679,3906.046930,-13556.280523,10722.481770
1151.401979,2680.620442,-17921.862387,11641.551636
1151.402278,153.178311,-18228.219009,11794.729947
1151.402575,-1148.837332,-15317.831100,10262.946837
1151.402874,-2067.907198,-12177.675724,9956.590215
1151.403173,-4825.116796,-7352.558928,11335.195014
1151.403471,-1608.372265,-1455.193954,10262.946837
1151.403770,5054.884263,6969.613150,8424.807105
1151.404069,10109.768526,12254.264880,7658.915550
1151.404368,7888.683016,14934.885322,8807.752882
1151.404667,2986.977064,14628.528700,8041.861327
1151.404962,-689.302399,12713.799813,9573.644437
1151.405262,-4595.349330,5744.186662,10109.768526
1151.405562,-8884.342038,-2527.442131,12101.086569
1151.405862,-11718.140791,-10492.714303,14015.815456
1151.406162,-7505.737239,-14015.815456,12866.978124
1151.406462,-3676.279464,-15624.187722,12713.799813
1151.406762,-1148.837332,-16236.900966,11488.373325
1151.407063,1072.248177,-13862.637145,11182.016703
1151.407374,7582.326394,-6127.132440,7888.683016
1151.407672,10416.125148,153.178311,7429.148083
1151.407969,10109.768526,4288.992708,7352.558928
1151.408267,5973.954129,8807.752882,10033.179370
1151.408564,5820.775818,14092.404612,10722.481770
1151.408862,2374.263820,15394.420255,9803.411904
1151.409159,-2604.031287,13173.334746,9956.590215
1151.409457,-9190.698660,10262.946837,12254.264880
1151.409766,-6969.613150,6510.078217,11488.373325
1151.410065,-6663.256528,1378.604799,10722.481770
1151.410364,-6510.078217,-4901.705952,12790.388968
1151.410664,-5897.364973,-8271.628794,14322.172078
1151.410963,-5437.830040,-11258.605858,13020.156435
1151.411262,-3216.744531,-12790.388968,11641.551636
1151.411562,-2374.263820,-13403.102212,11335.195014
1151.411861,2374.263820,-8271.628794,10875.660081
1151.412168,9956.590215,-3752.868619,6510.078217
1151.412466,14858.296167,2910.387909,5054.884263
1151.412764,12790.388968,7122.791461,8041.861327
1151.413063,7122.791461,9956.590215,10109.768526
1151.413361,1531.783110,11947.908258,10722.481770
1151.413659,-4748.527641,12101.086569,10109.768526
1151.413957,-8884.342038,7429.148083,9573.644437
1151.414255,-11564.962480,1838.139732,11258.605858
1151.414572,-10033.179370,-4901.705952,11335.195014
1151.414870,-8271.628794,-12024.497413,13249.923901
1151.415168,-5744.186662,-15011.474478,14475.350389
1151.415467,-1608.372265,-15164.652789,12790.388968
1151.415765,2833.798753,-12637.210657,9803.411904
1151.416064,3446.511997,-11105.427547,8041.861327
1151.416362,3293.333686,-9190.698660,9497.055282
1151.416660,6586.667373,-4518.760174,8501.396260
1151.416975,11182.016703,3063.566220,6816.434839
1151.417274,11335.195014,6663.256528,8348.217949
1151.417572,7429.148083,9956.590215,10109.768526
1151.417871,2374.263820,13939.226301,9343.876971
1151.418170,-2757.209598,15241.241944,9956.590215
1151.418469,-6969.613150,12407.443191,10569.303459
1151.418767,-12407.443191,6203.721595,13020.156435
1151.419066,-10799.070925,-229.767466,12713.799813
1151.419354,-8271.628794,-6280.310751,13249.923901
1151.419654,-3216.744531,-10492.714303,13632.869679
1151.419954,-1455.193954,-13709.458834,12101.086569
1151.420254,919.069866,-13556.280523,10492.714303
1151.420554,3446.511997,-10186.357681,9650.233593
1151.420854,4518.760174,-7658.915550,10109.768526
1151.421153,5667.597507,-2067.907198,8807.752882
1151.421453,8041.861327,5744.186662,7735.504705
1151.421753,9650.233593,11947.908258,7275.969772
1151.422052,5361.240885,15241.241944,9343.876971
1151.422351,459.534933,15547.598566,9803.411904
1151.422651,-4595.349330,14934.885322,8884.342038
1151.422950,-6510.078217,9803.411904,9726.822748
1151.423249,-14934.885322,-1761.550576,14475.350389
1151.423549,-14245.582923,-7965.272172,15317.831100
1151.423848,-8577.985416,-11871.319102,14168.993767
1151.424155,-76.589155,-12637.210657,10569.303459
1151.424454,4671.938485,-14322.172078,10109.768526
1151.424753,4901.705952,-13556.280523,9420.466126
1151.425053,8654.574571,-10339.535992,8041.861327
1151.425352,5667.597507,-7965.272172,9803.411904
1151.425651,4059.225241,-5514.419196,9573.644437
1151.425950,4518.760174,1838.139732,9573.644437
1151.426249,6586.667373,8348.217949,9114.109504
1151.426570,4365.581863,12713.799813,9650.233593
1151.426870,306.356622,13326.513057,10262.946837
1151.427171,-4748.527641,13786.047990,10186.357681
1151.427471,-3676.279464,10569.303459,10033.179370
1151.427771,-7352.558928,3982.636086,11182.016703
1151.428072,-10033.179370,-3599.690308,13249.923901
1151.428372,-10033.179370,-10033.179370,13862.637145
1151.428673,-6663.256528,-13249.923901,14322.172078
1151.428991,-3063.566220,-14858.296167,12713.799813
1151.429284,306.356622,-15930.544344,10799.070925
1151.429577,4748.527641,-13709.458834,11182.016703
1151.429870,11335.195014,-7505.737239,7735.504705
1151.430163,15624.187722,306.356622,5514.419196
1151.430456,10875.660081,5744.186662,7275.969772
1151.430749,6893.023995,11028.838392,8348.217949
1151.431043,153.178311,14245.582923,10722.481770
1151.431360,-4748.527641,15394.420255,10722.481770
1151.431659,-9497.055282,13020.156435,10262.946837
1151.431957,-9880.001059,10262.946837,10645.892614
1151.432256,-8118.450483,4288.992708,11335.195014
1151.432554,-7199.380617,-2374.263820,12407.443191
1151.432853,-7352.558928,-7812.093861,14934.885322
1151.433152,-4288.992708,-11718.140791,13403.102212
1151.433450,-536.124088,-14015.815456,10416.125148
1151.433750,-2450.852976,-16236.900966,11488.373325
1151.434047,919.069866,-14015.815456,10033.179370
1151.434345,5667.597507,-9650.233593,7812.093861
1151.434642,13556.280523,-2680.620442,5054.884263
1151.434940,15471.009411,3676.279464,6356.899906
1151.435237,10416.125148,8348.217949,9190.698660
1151.435534,4212.403552,12101.086569,9880.001059
1151.435832,-1302.015643,13939.226301,10033.179370
1151.436139,-7965.272172,12254.264880,10262.946837
1151.436441,-12101.086569,7735.504705,12177.675724
1151.436742,-12407.443191,2297.674665,11794.729947
1151.437044,-8271.628794,-3140.155375,13556.280523
1151.437346,-5591.008351,-10339.535992,14781.707011
1151.437647,-1761.550576,-13862.637145,13786.047990
1151.437949,2297.674665,-14551.939545,10875.660081
1151.438251,2833.798753,-15164.652789,8654.574571
1151.438496,4212.403552,-13709.458834,8807.752882
1151.438806,1991.318043,-10645.892614,10416.125148
1151.439116,7429.148083,-3446.511997,9420.466126
1151.439427,11182.016703,4595.349330,8195.039638
1151.439737,10416.125148,11947.908258,8195.039638
1151.440047,6893.023995,14628.528700,9573.644437
1151.440357,-229.767466,17232.559987,9343.876971
1151.440667,-2604.031287,17079.381676,8731.163727
1151.440986,-10186.357681,9803.411904,11182.016703
1151.441282,-16160.311810,306.356622,13786.047990
1151.441578,-15241.241944,-4901.705952,16849.614210
1151.441874,-9573.644437,-9190.698660,14628.528700
1151.442170,-3523.101153,-12790.388968,11641.551636
1151.442466,765.891555,-14322.172078,11182.016703
1151.442762,4671.938485,-12637.210657,9573.644437
1151.443058,10262.946837,-7812.093861,6969.613150
1151.443375,9956.590215,-3906.046930,6586.667373
1151.443669,7888.683016,-76.589155,8195.039638
1151.443964,6893.023995,5744.186662,10262.946837
1151.444258,3752.868619,9956.590215,10569.303459
1151.444553,2144.496354,13632.869679,9420.466126
1151.444847,-1914.728887,14628.528700,10875.660081
1151.445142,-3063.566220,12713.799813,9650.233593
1151.445436,-4135.814397,8960.931193,11411.784169
1151.445736,-6663.256528,1378.604799,11335.195014
1151.446035,-10492.714303,-6893.023995,13862.637145
1151.446335,-10186.357681,-11871.319102,15164.652789
1151.446634,-6356.899906,-14015.815456,13709.458834
1151.446933,-842.480710,-15777.366033,10799.070925
1151.447232,2297.674665,-14322.172078,9420.466126
1151.447531,7735.504705,-11411.784169,8884.342038
1151.447830,11641.551636,-6586.667373,6127.132440
1151.448144,12637.210657,-995.659021,6816.434839
1151.448443,9803.411904,4825.116796,9343.876971
1151.448741,2833.798753,7735.504705,11258.605858
1151.449040,1072.248177,12101.086569,8731.163727
1151.449339,-3369.922842,12101.086569,8960.931193
1151.449638,-7352.558928,8195.039638,11641.551636
1151.449936,-9037.520349,2450.852976,12560.621502
1151.450235,-7965.272172,-1148.837332,12790.388968
1151.450542,-3982.636086,-5514.419196,12407.443191
1151.450839,-4978.295107,-9726.822748,13862.637145
1151.451137,-3216.744531,-10339.535992,13249.923901
1151.451434,-995.659021,-9343.876971,9267.287815
1151.451731,1072.248177,-10186.357681,9650.233593
1151.452028,1072.248177,-8118.450483,11028.838392
1151.452325,7275.969772,-4671.938485,8348.217949
1151.452622,12024.497413,1838.139732,7275.969772
1151.452919,14015.815456,6969.613150,8348.217949
1151.453220,8041.861327,10109.768526,10569.303459
1151.453521,2374.263820,12713.799813,9956.590215
1151.453822,-2450.852976,13939.226301,8577.985416
1151.454124,-8731.163727,9267.287815,9880.001059
1151.454425,-13939.226301,1991.318043,13096.745590
1151.454726,-11718.140791,-2680.620442,14551.939545
1151.455027,-5744.186662,-5973.954129,12560.621502
1151.455322,-995.659021,-9037.520349,10875.660081
1151.455622,153.178311,-11411.784169,10722.481770
1151.455923,-2221.085509,-13096.745590,12560.621502
1151.456224,-536.124088,-11718.140791,10722.481770
1151.456525,1531.783110,-9037.520349,10109.768526
1151.456826,5820.775818,-3293.333686,7046.202306
1151.457127,8348.217949,612.713244,8041.861327
1151.457428,11028.838392,6203.721595,8654.574571
1151.457716,8654.574571,10262.946837,9037.520349
1151.458017,3599.690308,9803.411904,9267.287815
1151.458317,-2450.852976,8654.574571,11028.838392
1151.458618,-5897.364973,6816.434839,10416.125148
1151.458919,-7658.915550,2757.209598,9573.644437
1151.459220,-12101.086569,-3906.046930,12943.567279
1151.459521,-11105.427547,-8884.342038,14551.939545
1151.459821,-6203.721595,-10645.892614,14858.296167
1151.460130,-1148.837332,-10799.070925,12407.443191
1151.460429,1072.248177,-11718.140791,10569.303459
1151.460727,4212.403552,-9880.001059,10262.946837
1151.461026,7275.969772,-6280.310751,9114.109504
1151.461325,11182.016703,612.713244,6739.845684
1151.461623,9420.466126,4595.349330,8348.217949
1151.461922,5820.775818,8195.039638,9573.644437
1151.462220,2986.977064,11335.195014,11028.838392
1151.462527,-536.124088,13020.156435,9726.822748
1151.462827,-229.767466,12713.799813,7735.504705
1151.463127,-3982.636086,9114.109504,10109.768526
1151.463426,-6050.543284,1684.961421,12330.854035
1151.463726,-7352.558928,-3293.333686,13403.102212
1151.464025,-6816.434839,-6433.489062,14705.117856
1151.464325,-6663.256528,-10952.249236,14475.350389
1151.464625,-2757.209598,-11871.319102,11335.195014
1151.464921,1072.248177,-9880.001059,9114.109504
1151.465224,4059.225241,-8884.342038,7888.683016
1151.465527,3293.333686,-7352.558928,9497.055282
1151.465830,5973.954129,-689.302399,9803.411904
1151.466133,7582.326394,6050.543284,8271.628794
1151.466436,4748.527641,9650.233593,8654.574571
1151.466739,-1302.015643,11335.195014,9650.233593
1151.467041,-5131.473418,12101.086569,10109.768526
1151.467336,-4595.349330,10875.660081,9267.287815
1151.467636,-3523.101153,5437.830040,10875.660081
1151.467935,-3216.744531,-2680.620442,11871.319102
1151.468234,-2604.031287,-9880.001059,12560.621502
1151.468533,153.178311,-12177.675724,12790.388968
1151.468833,919.069866,-14168.993767,12254.264880
1151.469132,459.534933,-14858.296167,9803.411904
1151.469431,-536.124088,-11871.319102,8807.752882
1151.469719,-229.767466,-8577.985416,9573.644437
1151.470019,612.713244,-5054.884263,9420.466126
1151.470319,2680.620442,-382.945777,11182.016703
1151.470619,6280.310751,5131.473418,10033.179370
1151.470919,7582.326394,11028.838392,9114.109504
1151.471219,4748.527641,11641.551636,7888.683016
1151.471519,-1302.015643,11794.729947,9726.822748
1151.471819,-3216.744531,9650.233593,10569.303459
1151.472119,-8577.985416,4288.992708,11718.140791
1151.472419,-8118.450483,-1608.372265,11488.373325
1151.472719,-6816.434839,-6893.023995,13249.923901
1151.473019,-2757.209598,-10492.714303,14168.993767
1151.473319,-0.000000,-11258.605858,13096.745590
1151.473619,2680.620442,-9650.233593,9650.233593
1151.473919,3752.868619,-6893.023995,9650.233593
1151.474219,2986.977064,-5208.062574,10722.481770
1151.474526,2527.442131,306.356622,9650.233593
1151.474827,2833.798753,4825.116796,9650.233593
1151.475129,2680.620442,9650.233593,10109.768526
1151.475430,2986.977064,12560.621502,11028.838392
1151.475732,1838.139732,14628.528700,10262.946837
1151.476033,-536.124088,13939.226301,9573.644437
1151.476335,-689.302399,9420.466126,9573.644437
1151.476636,-3063.566220,2604.031287,10722.481770
1151.476871,-3063.566220,-2680.620442,11947.908258
1151.477177,-3369.922842,-8577.985416,11947.908258
1151.477482,-3369.922842,-13556.280523,12254.264880
1151.477787,-2910.387909,-15011.474478,13096.745590
1151.478093,-2450.852976,-14705.117856,12101.086569
1151.478398,1072.248177,-10033.179370,8501.396260
1151.478703,919.069866,-5820.775818,9267.287815
1151.479008,765.891555,-4212.403552,9267.287815
1151.479327,3140.155375,1684.961421,9956.590215
1151.479625,6433.489062,7888.683016,10109.768526
1151.479923,4059.225241,10722.481770,9190.698660
1151.480222,1684.961421,10416.125148,9573.644437
1151.480520,-2757.209598,9420.466126,10033.179370
1151.480818,-2604.031287,4748.527641,10416.125148
1151.481116,-4135.814397,-842.480710,10109.768526
1151.481415,-3676.279464,-6893.023995,10339.535992
1151.481728,-1914.728887,-11871.319102,11871.319102
1151.482026,-1455.193954,-15777.366033,12254.264880
1151.482324,765.891555,-14168.993767,11411.784169
1151.482623,1072.248177,-12943.567279,11564.962480
1151.482921,765.891555,-9037.520349,9573.644437
1151.483220,2527.442131,-4671.938485,9650.233593
1151.483518,3752.868619,1378.604799,8577.985416
1151.483817,4901.705952,6203.721595,9037.520349
1151.484116,3293.333686,10262.946837,9956.590215
1151.484416,1684.961421,13939.226301,11335.195014
1151.484716,306.356622,14398.761234,10109.768526
1151.485017,-3676.279464,11335.195014,10416.125148
1151.485317,-6510.078217,6663.256528,12407.443191
1151.485617,-5437.830040,1072.248177,11488.373325
1151.485917,-2910.387909,-3906.046930,10952.249236
1151.486217,-1302.015643,-8731.163727,12407.443191
1151.486524,-842.480710,-11564.962480,12790.388968
1151.486821,306.356622,-12637.210657,10875.660081
1151.487118,306.356622,-10339.535992,9803.411904
1151.487415,2680.620442,-6127.132440,9803.411904
1151.487711,1225.426488,-3140.155375,9956.590215
1151.488008,4212.403552,4135.814397,9420.466126
1151.488305,5667.597507,8960.931193,8807.752882
1151.488602,3293.333686,10569.303459,10109.768526
1151.488916,-536.124088,11488.373325,11411.784169
1151.489219,-1302.015643,12254.264880,9343.876971
1151.489522,-3216.744531,8654.574571,9114.109504
1151.489824,-4135.814397,2297.674665,9956.590215
1151.490127,-5744.186662,-4212.403552,11411.784169
1151.490430,-3829.457775,-9726.822748,11488.373325
1151.490733,-2067.907198,-13403.102212,12254.264880
1151.491035,-2757.209598,-17002.792521,13556.280523
1151.491308,-536.124088,-15011.474478,12177.675724
1151.491611,2297.674665,-9650.233593,9190.698660
1151.491914,6127.132440,-4212.403552,7582.326394
1151.492216,4748.527641,-1455.193954,7429.148083
1151.492519,4365.581863,3216.744531,9650.233593
1151.492822,3446.511997,6663.256528,10569.303459
1151.493124,1991.318043,8041.861327,10875.660081
1151.493427,-842.480710,8195.039638,10109.768526
1151.493744,-3523.101153,8041.861327,9650.233593
1151.494039,-2604.031287,6510.078217,9956.590215
1151.494335,-4825.116796,1991.318043,10262.946837
1151.494630,-2374.263820,-1148.837332,11182.016703
1151.494925,-2757.209598,-6280.310751,11335.195014
1151.495220,-2450.852976,-10339.535992,12330.854035
1151.495515,-2757.209598,-11564.962480,13249.923901
1151.495811,-229.767466,-10492.714303,9956.590215
1151.496134,1684.961421,-7965.272172,9956.590215
1151.496428,3599.690308,-5820.775818,11335.195014
1151.496722,5820.775818,612.713244,9343.876971
1151.497016,9497.055282,7122.791461,7429.148083
1151.497310,7122.791461,10262.946837,8731.163727
1151.497604,765.891555,11335.195014,11105.427547
1151.497899,-2910.387909,11488.373325,10262.946837
1151.498193,-6816.434839,10875.660081,10569.303459
1151.498523,-5591.008351,6816.434839,10416.125148
1151.498820,-5591.008351,-382.945777,11182.016703
1151.499117,-2374.263820,-2680.620442,11105.427547
1151.499414,-842.480710,-8424.807105,11028.838392
1151.499711,-689.302399,-12637.210657,12713.799813
1151.500007,-2221.085509,-14551.939545,13173.334746
1151.500304,-1761.550576,-11718.140791,9880.001059
1151.500601,-1914.728887,-10799.070925,9650.233593
1151.500909,-842.480710,-7812.093861,10339.535992
1151.501209,3140.155375,-3599.690308,9650.233593
1151.501509,5361.240885,3063.566220,10262.946837
1151.501809,8501.396260,8348.217949,9573.644437
1151.502108,6280.310751,12713.799813,9037.520349
1151.502408,3293.333686,13786.047990,7735.504705
1151.502708,-3216.744531,11641.551636,8348.217949
1151.503008,-7658.915550,6356.899906,11335.195014
1151.503291,-10799.070925,-1914.728887,12407.443191
1151.503594,-7352.558928,-7352.558928,12254.264880
1151.503897,-2450.852976,-10952.249236,11641.551636
1151.504200,1991.318043,-16083.722655,11718.140791
1151.504503,2680.620442,-16083.722655,12560.621502
1151.504806,5667.597507,-11258.605858,9420.466126
1151.505108,4518.760174,-8271.628794,9343.876971
1151.505411,919.069866,-4901.705952,10109.768526
1151.505693,919.069866,765.891555,8807.752882
1151.505995,2680.620442,9114.109504,8654.574571
1151.506297,3599.690308,12407.443191,9267.287815
1151.506599,-995.659021,12866.978124,11641.551636
1151.506901,-0.000000,14245.582923,10722.481770
1151.507203,306.356622,14781.707011,8041.861327
1151.507505,-689.302399,8960.931193,9497.055282
1151.507807,-5591.008351,919.069866,12713.799813
1151.508097,-4978.295107,-3752.868619,13096.745590
1151.508396,-1761.550576,-5973.954129,11028.838392
1151.508695,-3369.922842,-12177.675724,12560.621502
1151.508994,-3523.101153,-16236.900966,13249.923901
1151.509293,-842.480710,-14322.172078,12484.032346
1151.509592,5820.775818,-9343.876971,9420.466126
1151.509891,7888.683016,-4825.116796,6356.899906
1151.510190,7888.683016,1838.139732,6893.023995
1151.510500,5514.419196,6816.434839,9573.644437
1151.510798,3293.333686,11335.195014,9650.233593
1151.511097,-1455.193954,14398.761234,11335.195014
1151.511395,-4288.992708,14092.404612,10109.768526
1151.511694,-4825.116796,10416.125148,9343.876971
1151.511992,-7122.791461,4978.295107,11488.373325
1151.512291,-6816.434839,-2680.620442,11641.551636
1151.512589,-7505.737239,-10339.535992,13403.102212
1151.512896,-5131.473418,-14322.172078,13326.513057
1151.513196,-2604.031287,-16543.257588,12254.264880
1151.513496,459.534933,-18228.219009,10722.481770
1151.513796,1072.248177,-16083.722655,9880.001059
1151.514095,7275.969772,-12484.032346,7582.326394
1151.514395,7275.969772,-8271.628794,7735.504705
1151.514695,10416.125148,-382.945777,7735.504705
1151.514995,10109.768526,5131.473418,8654.574571
1151.515291,6893.023995,10722.481770,9573.644437
1151.515592,1531.783110,14092.404612,9726.822748
1151.515892,-2604.031287,15088.063633,9037.520349
1151.516192,-7352.558928,12254.264880,9803.411904
1151.516493,-11258.605858,6203.721595,11947.908258
1151.516793,-13326.513057,-1148.837332,13249.923901
1151.517093,-10799.070925,-6586.667373,14934.885322
1151.517394,-4135.814397,-10492.714303,13556.280523
1151.517688,-2450.852976,-13709.458834,12407.443191
1151.517989,2680.620442,-13096.745590,10262.946837
1151.518289,4518.760174,-10186.357681,8501.396260
1151.518589,5973.954129,-7352.558928,9803.411904
1151.518889,6433.489062,-3293.333686,9573.644437
1151.519189,10722.481770,3982.636086,8118.450483
1151.519489,13096.745590,10569.303459,6663.256528
1151.519790,8654.574571,13326.513057,8501.396260
1151.520078,-76.589155,13479.691368,11028.838392
1151.520379,-4442.171019,14092.404612,10262.946837
1151.520679,-5284.651729,13173.334746,10033.179370
1151.520980,-11718.140791,5591.008351,12330.854035
1151.521281,-13479.691368,-1761.550576,13249.923901
1151.521582,-10645.892614,-6280.310751,13709.458834
1151.521883,-5897.364973,-9726.822748,12407.443191
1151.522183,-4135.814397,-14168.993767,13862.637145
1151.522492,-1914.728887,-16390.079277,13096.745590
1151.522792,3906.046930,-11564.962480,10186.357681
1151.523091,8348.217949,-7352.558928,7352.558928
1151.523391,9267.287815,-2680.620442,6663.256528
1151.523690,8654.574571,1531.783110,8960.931193
1151.523989,9956.590215,8041.861327,8195.039638
1151.524289,6127.132440,12713.799813,8195.039638
1151.524588,1072.248177,11641.551636,8348.217949
1151.524895,-4978.295107,9650.233593,11335.195014
1151.525193,-4978.295107,6816.434839,11335.195014
1151.525492,-5284.651729,2450.852976,9803.411904
1151.525790,-8731.163727,-4825.116796,10416.125148
1151.526088,-11947.908258,-12484.032346,15700.776877
1151.526386,-9190.698660,-16236.900966,15853.955188
1151.526684,-3369.922842,-14551.939545,12101.086569
1151.526982,919.069866,-12637.210657,9114.109504
1151.527298,3906.046930,-11871.319102,8960.931193
1151.527597,7888.683016,-7046.202306,9650.233593
1151.527895,13403.102212,-1302.015643,6969.613150
1151.528194,13403.102212,4442.171019,7812.093861
1151.528492,9650.233593,7735.504705,9190.698660
1151.528791,2986.977064,10722.481770,10109.768526
1151.529089,1072.248177,13786.047990,9956.590215
1151.529388,-5284.651729,15700.776877,9650.233593
1151.529702,-8271.628794,11641.551636,10569.303459
1151.530000,-12560.621502,4825.116796,13403.102212
1151.530298,-10952.249236,-536.124088,14398.761234
1151.530596,-8731.163727,-6739.845684,13862.637145
1151.530895,-8884.342038,-11564.962480,14092.404612
1151.531193,-4595.349330,-14475.350389,12254.264880
1151.531491,2297.674665,-13709.458834,10569.303459
1151.531789,5361.240885,-10492.714303,9956.590215
1151.532077,8960.931193,-6586.667373,8041.861327
1151.532377,12943.567279,-1455.193954,7275.969772
1151.532677,15471.009411,5284.651729,6816.434839
1151.532977,13556.280523,9803.411904,7888.683016
1151.533277,5514.419196,13173.334746,8960.931193
1151.533577,153.178311,14934.885322,8195.039638
1151.533877,-6050.543284,14628.528700,9573.644437
1151.534177,-13326.513057,6816.434839,11182.016703
1151.534477,-19070.699719,-2067.907198,15547.598566
1151.534776,-17002.792521,-7199.380617,15853.955188
1151.535075,-10186.357681,-10799.070925,12790.388968
1151.535374,-4978.295107,-13862.637145,12713.799813
1151.535673,-536.124088,-15624.187722,11028.838392
1151.535973,3906.046930,-12943.567279,11028.838392
1151.536272,11641.551636,-9343.876971,6433.489062
1151.536571,11871.319102,-7812.093861,7046.202306
1151.536878,12943.567279,-4365.581863,7888.683016
1151.537177,15164.652789,2144.496354,6663.256528
1151.537477,10569.303459,8501.396260,7275.969772
1151.537776,3906.046930,11182.016703,9114.109504
1151.538075,-4978.295107,11028.838392,11794.729947
1151.538374,-10339.535992,12101.086569,12713.799813
1151.538674,-12101.086569,11335.195014,10262.946837
1151.538973,-15547.598566,4288.992708,12790.388968
1151.539293,-15853.955188,-2374.263820,16696.435899
1151.539594,-7965.272172,-6280.310751,15241.241944
1151.539894,-2450.852976,-9190.698660,13096.745590
1151.540194,3906.046930,-10952.249236,10492.714303
1151.540495,5820.775818,-12177.675724,12101.086569
1151.540795,11028.838392,-9650.233593,9803.411904
1151.541095,13709.458834,-3906.046930,4901.705952
1151.541396,13556.280523,1378.604799,4748.527641
1151.541634,8807.752882,3829.457775,8348.217949
1151.541940,4059.225241,7888.683016,12101.086569
1151.542247,459.534933,14475.350389,11182.016703
1151.542553,-1914.728887,17998.451542,7275.969772
1151.542860,-5591.008351,14781.707011,10109.768526
1151.543166,-13020.156435,6969.613150,13249.923901
1151.543473,-13786.047990,1072.248177,13479.691368
1151.543779,-14628.528700,-3906.046930,14475.350389
1151.544092,-11258.605858,-9880.001059,13939.226301
1151.544388,-7505.737239,-15471.009411,14092.404612
1151.544684,-995.659021,-15930.544344,11335.195014
1151.544980,6893.023995,-12943.567279,7735.504705
1151.545276,11182.016703,-12790.388968,6433.489062
1151.545572,11794.729947,-9650.233593,6663.256528
1151.545868,15011.474478,-2067.907198,7275.969772
1151.546164,12484.032346,4135.814397,7429.148083
1151.546464,7046.202306,8041.861327,8195.039638
1151.546764,1378.604799,11028.838392,8041.861327
1151.547065,-3216.744531,12713.799813,10186.357681
1151.547366,-5744.186662,12560.621502,10875.660081
1151.547667,-11564.962480,5897.364973,12943.567279
1151.547967,-14322.172078,-689.302399,14551.939545
1151.548268,-11871.319102,-6893.023995,15394.420255
1151.548569,-9190.698660,-10952.249236,15700.776877
1151.548876,-5897.364973,-13249.923901,12713.799813
1151.549173,-689.302399,-14475.350389,9267.287815
1151.549470,2986.977064,-13249.923901,9114.109504
1151.549767,7275.969772,-11258.605858,9267.287815
1151.550064,11794.729947,-6433.489062,8041.861327
1151.550361,16390.079277,1225.426488,5820.775818
1151.550657,16926.203365,8348.217949,7352.558928
1151.550954,9803.411904,11641.551636,9420.466126
1151.551263,3446.511997,15547.598566,10416.125148
1151.551561,-2221.085509,18151.629853,10416.125148
1151.551860,-6356.899906,14934.885322,9880.001059
1151.552159,-15547.598566,5591.008351,14015.815456
1151.552458,-17002.792521,-842.480710,15011.474478
1151.552757,-12866.978124,-4901.705952,14781.707011
1151.553056,-10186.357681,-10186.357681,14551.939545
1151.553355,-7122.791461,-13556.280523,13403.102212
1151.553672,-2221.085509,-12637.210657,11028.838392
1151.553970,6280.310751,-8118.450483,8654.574571
1151.554268,10875.660081,-6433.489062,5973.954129
1151.554567,12484.032346,-3293.333686,6510.078217
1151.554865,14168.993767,1838.139732,8041.861327
1151.555164,13709.458834,7122.791461,7352.558928
1151.555462,7429.148083,10109.768526,8577.985416
1151.555761,2144.496354,12866.978124,9726.822748
1151.556078,-2450.852976,11641.551636,9650.233593
1151.556376,-5284.651729,8501.396260,9956.590215
1151.556673,-10645.892614,2450.852976,11794.729947
1151.556971,-15547.598566,-5973.954129,13556.280523
1151.557269,-15241.241944,-11105.427547,16236.900966
1151.557567,-10033.179370,-14858.296167,14934.885322
1151.557865,-5284.651729,-14475.350389,12254.264880
1151.558162,-1761.550576,-13556.280523,10416.125148
1151.558462,5361.240885,-10952.249236,8960.931193
1151.558762,9650.233593,-6893.023995,8654.574571
1151.559062,15624.187722,-1914.728887,5820.775818
1151.559362,15624.187722,2910.387909,6280.310751
1151.559662,12790.388968,5744.186662,7582.326394
1151.559962,6739.845684,8654.574571,9267.287815
1151.560262,-229.767466,9650.233593,10109.768526
1151.560562,-5897.364973,9420.466126,10416.125148
1151.560893,-9726.822748,5131.473418,12713.799813
1151.561188,-13020.156435,1072.248177,13632.869679
1151.561484,-11411.784169,-1148.837332,13556.280523
1151.561779,-9343.876971,-4212.403552,14245.582923
1151.562075,-8118.450483,-8118.450483,13939.226301
1151.562370,-3523.101153,-9497.055282,11641.551636
1151.562666,306.356622,-8884.342038,10109.768526
1151.562961,5820.775818,-6127.132440,8807.752882
1151.563269,10416.125148,-5208.062574,7812.093861
1151.563566,13249.923901,-382.945777,7275.969772
1151.563863,16390.079277,5284.651729,7735.504705
1151.564160,12177.675724,8960.931193,8501.396260
1151.564458,4748.527641,10722.481770,10109.768526
1151.564755,-689.302399,11641.551636,8348.217949
1151.565052,-4825.116796,11794.729947,9190.698660
1151.565349,-10339.535992,5284.651729,11488.373325
1151.565646,-14092.404612,-1455.193954,12713.799813
1151.565947,-15547.598566,-7352.558928,17002.792521
1151.566248,-12254.264880,-9650.233593,15241.241944
1151.566549,-6356.899906,-9497.055282,12943.567279
1151.566850,-2221.085509,-9343.876971,11411.784169
1151.567151,1225.426488,-8118.450483,10262.946837
1151.567452,7582.326394,-6433.489062,8807.752882
1151.567753,11794.729947,-2067.907198,5208.062574
1151.568048,16083.722655,306.356622,6280.310751
1151.568349,13862.637145,1072.248177,8041.861327
1151.568650,8041.861327,3063.566220,10109.768526
1151.568951,2833.798753,5284.651729,10262.946837
1151.569252,-2604.031287,6663.256528,10109.768526
1151.569552,-5591.008351,5284.651729,11028.838392
1151.569853,-11564.962480,765.891555,11947.908258
1151.570154,-13326.513057,-2680.620442,13862.637145
1151.570442,-10186.357681,-5054.884263,12560.621502
1151.570742,-7965.272172,-7965.272172,14092.404612
1151.571042,-5744.186662,-10186.357681,14934.885322
1151.571343,-995.659021,-9650.233593,11182.016703
1151.571643,3906.046930,-5667.597507,9420.466126
1151.571943,8195.039638,-4671.938485,7735.504705
1151.572243,9114.109504,-3293.333686,7582.326394
1151.572543,10875.660081,2297.674665,7735.504705
1151.572875,10722.481770,7275.969772,8118.450483
1151.573173,5820.775818,9420.466126,9803.411904
1151.573471,1072.248177,10416.125148,10109.768526
1151.573769,-2221.085509,11794.729947,10109.768526
1151.574066,-3676.279464,10109.768526,9803.411904
1151.574364,-9037.520349,1991.318043,12254.264880
1151.574662,-9343.876971,-2986.977064,13096.745590
1151.574960,-8271.628794,-6127.132440,13249.923901
1151.575267,-5284.651729,-9726.822748,13556.280523
1151.575563,-4825.116796,-10799.070925,13556.280523
1151.575859,-995.659021,-10186.357681,11028.838392
1151.576156,3599.690308,-6433.489062,8807.752882
1151.576452,6893.023995,-3446.511997,7658.915550
1151.576748,8041.861327,-536.124088,7429.148083
1151.577045,10109.768526,4135.814397,7888.683016
1151.577341,9497.055282,7429.148083,9037.520349
1151.577638,3446.511997,9267.287815,10416.125148
1151.577940,-382.945777,9650.233593,9880.001059
1151.578243,-4825.116796,8041.861327,9267.287815
1151.578546,-6050.543284,3829.457775,11028.838392
1151.578849,-10033.179370,-2680.620442,12254.264880
1151.579152,-8884.342038,-7046.202306,12637.210657
1151.579455,-7505.737239,-10492.714303,13939.226301
1151.579758,-4135.814397,-12943.567279,13709.458834
1151.580052,-1455.193954,-11718.140791,12407.443191
1151.580353,1838.139732,-9497.055282,9803.411904
1151.580653,4901.705952,-7046.202306,8041.861327
1151.580953,5514.419196,-4901.705952,8501.396260
1151.581253,8807.752882,-2527.442131,7888.683016
1151.581553,6893.023995,1531.783110,10109.768526
1151.581853,8501.396260,5284.651729,9267.287815
1151.582154,3599.690308,8807.752882,9956.590215
1151.582442,2374.263820,11182.016703,8654.574571
1151.582742,-995.659021,10875.660081,9956.590215
1151.583042,-6356.899906,6356.899906,11794.729947
1151.583342,-9573.644437,1225.426488,12713.799813
1151.583642,-10799.070925,-3906.046930,13862.637145
1151.583942,-7122.791461,-8577.985416,14015.815456
1151.584242,-6203.721595,-11718.140791,14475.350389
1151.584542,-1455.193954,-9726.822748,10875.660081
1151.584897,1378.604799,-5973.954129,9420.466126
1151.585190,4212.403552,-2680.620442,8960.931193
1151.585483,4365.581863,-995.659021,10109.768526
1151.585776,6586.667373,4595.349330,9114.109504
1151.586069,8960.931193,8654.574571,7429.148083
1151.586361,6586.667373,11182.016703,9267.287815
1151.586654,3293.333686,10875.660081,9880.001059
1151.586947,1072.248177,11488.373325,9573.644437
1151.587254,1072.248177,8960.931193,9037.520349
1151.587552,-2604.031287,2297.674665,10262.946837
1151.587850,-5284.651729,-4059.225241,11641.551636
1151.588148,-5131.473418,-7965.272172,13403.102212
1151.588446,-4595.349330,-10645.892614,12713.799813
1151.588745,-4442.171019,-11105.427547,12254.264880
1151.589043,-4288.992708,-11258.605858,12101.086569
1151.589341,-4978.295107,-9343.876971,12101.086569
1151.589657,-536.124088,-5054.884263,9803.411904
1151.589954,1531.783110,-1608.372265,8348.217949
1151.590251,6433.489062,3829.457775,8041.861327
1151.590548,6127.132440,4288.992708,9267.287815
1151.590845,6280.310751,7429.148083,9650.233593
1151.591142,3446.511997,8195.039638,9573.644437
1151.591440,919.069866,6969.613150,8960.931193
1151.591737,-2374.263820,2297.674665,10875.660081
1151.592055,-4442.171019,-2067.907198,10416.125148
1151.592355,-3829.457775,-6127.132440,10109.768526
1151.592654,-3369.922842,-9880.001059,11794.729947
1151.592954,-2067.907198,-12637.210657,12866.978124
1151.593253,-2450.852976,-11564.962480,13249.923901
1151.593553,-689.302399,-8118.450483,10492.714303
1151.593852,-689.302399,-5054.884263,9650.233593
1151.594152,-76.589155,-2986.977064,9726.822748
1151.594440,1072.248177,1378.604799,9343.876971
1151.594740,5208.062574,6203.721595,9726.822748
1151.595040,7046.202306,10569.303459,9267.287815
1151.595340,7735.504705,12407.443191,9343.876971
1151.595640,4059.225241,11794.729947,9573.644437
1151.595940,-995.659021,9420.466126,10262.946837
1151.596240,-3676.279464,5591.008351,10722.481770
1151.596540,-7352.558928,-0.000000,10875.660081
1151.596828,-5131.473418,-4059.225241,9956.590215
1151.597129,-3982.636086,-9343.876971,12254.264880
1151.597431,-5131.473418,-13096.745590,13479.691368
1151.597732,-5284.651729,-12790.388968,14168.993767
1151.598034,-3063.566220,-9343.876971,10722.481770
1151.598336,612.713244,-2833.798753,9956.590215
1151.598637,1838.139732,-229.767466,9956.590215
1151.598939,3906.046930,4978.295107,7735.504705
1151.599246,7429.148083,9803.411904,9497.055282
1151.599543,8654.574571,12407.443191,8654.574571
1151.599840,5054.884263,9956.590215,9956.590215
1151.600137,-76.589155,8807.752882,10722.481770
1151.600433,-1455.193954,5437.830040,9803.411904
1151.600730,-1608.372265,1225.426488,10109.768526
1151.601027,-6050.543284,-6127.132440,10875.660081
1151.601324,-5437.830040,-9880.001059,12254.264880
1151.601638,-2757.209598,-11718.140791,12484.032346
1151.601938,-1608.372265,-12790.388968,11335.195014
1151.602239,-1455.193954,-12177.675724,12101.086569
1151.602539,-2910.387909,-9650.233593,11411.784169
1151.602839,1531.783110,-4901.705952,9420.466126
1151.603140,3140.155375,-1914.728887,9114.109504
1151.603440,3446.511997,153.178311,9573.644437
1151.603740,5820.775818,4978.295107,9956.590215
1151.604059,6739.845684,8501.396260,10339.535992
1151.604356,5667.597507,10109.768526,8195.039638
1151.604653,919.069866,9420.466126,9267.287815
1151.604950,-5284.651729,5437.830040,11335.195014
1151.605246,-6050.543284,1991.318043,11028.838392
1151.605543,-10033.179370,-2986.977064,11182.016703
1151.605840,-6203.721595,-6586.667373,11335.195014
1151.606137,-4442.171019,-9726.822748,13556.280523
1151.606454,-995.659021,-10952.249236,12713.799813
1151.606752,153.178311,-9343.876971,11641.551636
1151.607050,2144.496354,-4825.116796,9803.411904
1151.607348,4671.938485,-2221.085509,8960.931193
1151.607646,3906.046930,-842.480710,9880.001059
1151.607944,7046.202306,4288.992708,7122.791461
1151.608241,7429.148083,7582.326394,8654.574571
1151.608539,5973.954129,8807.752882,9956.590215
1151.608827,2144.496354,9114.109504,10416.125148
1151.609126,612.713244,9267.287815,10722.481770
1151.609424,-3063.566220,6816.434839,9267.287815
1151.609722,-6050.543284,765.891555,10416.125148
1151.610021,-9497.055282,-3599.690308,11488.373325
1151.610319,-8118.450483,-7658.915550,12484.032346
1151.610617,-6050.543284,-9037.520349,12713.799813
1151.610916,-5284.651729,-9880.001059,13249.923901
1151.611246,-2604.031287,-9190.698660,12254.264880
1151.611543,-0.000000,-6893.023995,10416.125148
1151.611840,6893.023995,-1914.728887,8731.163727
1151.612137,8195.039638,-689.302399,6663.256528
1151.612434,10262.946837,3676.279464,7429.148083
1151.612731,8348.217949,5744.186662,9037.520349
1151.613028,3752.868619,5131.473418,10569.303459
1151.613325,-1302.015643,6816.434839,10875.660081
1151.613633,-3063.566220,6510.078217,8960.931193
1151.613932,-3523.101153,3829.457775,9573.644437
1151.614232,-8424.807105,-2986.977064,11335.195014
1151.614532,-5284.651729,-6280.310751,11182.016703
1151.614832,-4748.527641,-9650.233593,12713.799813
1151.615132,-3829.457775,-12637.210657,14015.815456
1151.615431,-4288.992708,-12943.567279,14628.528700
1151.615731,-3523.101153,-8271.628794,11641.551636
1151.615979,-1148.837332,-3906.046930,10109.768526
1151.616289,2144.496354,-842.480710,9573.644437
1151.616599,4748.527641,2604.031287,9114.109504
1151.616909,11335.195014,9114.109504,6969.613150
1151.617219,11335.195014,11335.195014,7429.148083
1151.617528,6127.132440,11028.838392,10722.481770
1151.617838,919.069866,10416.125148,11182.016703
1151.618148,-2067.907198,9803.411904,9420.466126
1151.618385,-3063.566220,6816.434839,8654.574571
1151.618693,-8271.628794,-842.480710,11028.838392
1151.619001,-8271.628794,-7812.093861,12330.854035
1151.619309,-5284.651729,-12484.032346,14322.172078
1151.619617,-1302.015643,-13709.458834,13403.102212
1151.619926,-229.767466,-13709.458834,11335.195014
1151.620234,-536.124088,-10492.714303,10875.660081
1151.620542,306.356622,-5514.419196,11028.838392
1151.620820,2374.263820,153.178311,8960.931193
1151.621121,4059.225241,6203.721595,6663.256528
1151.621422,4671.938485,9650.233593,6739.845684
1151.621722,4518.760174,11488.373325,9956.590215
1151.622023,1838.139732,11028.838392,11028.838392
1151.622324,-229.767466,10875.660081,9573.644437
1151.622625,-2604.031287,7582.326394,9650.233593
1151.622926,-2604.031287,612.713244,10952.249236
1151.623212,-6356.899906,-6280.310751,12254.264880
1151.623511,-4748.527641,-10033.179370,10109.768526
1151.623810,-4135.814397,-13709.458834,12254.264880
1151.624110,-2604.031287,-15471.009411,13326.513057
1151.624409,-2374.263820,-15471.009411,12560.621502
1151.624708,-842.480710,-12790.388968,11335.195014
1151.625008,3293.333686,-7046.202306,9114.109504
1151.625307,4901.705952,-2221.085509,8654.574571
1151.625614,7429.148083,1072.248177,8577.985416
1151.625915,8348.217949,6356.899906,7735.504705
1151.626215,8348.217949,11182.016703,8960.931193
1151.626516,2986.977064,10722.481770,10799.070925
1151.626816,-1914.728887,10262.946837,11182.016703
1151.627117,-5131.473418,8195.039638,11488.373325
1151.627418,-3982.636086,4825.116796,9420.466126
1151.627718,-8118.450483,-2527.442131,10262.946837
1151.628015,-7199.380617,-8424.807105,11488.373325
1151.628315,-6510.078217,-12484.032346,13249.923901
1151.628615,-6510.078217,-16390.079277,15471.009411
1151.628916,-3063.566220,-13556.280523,13096.745590
1151.629216,765.891555,-8577.985416,9956.590215
1151.629516,6280.310751,-4365.581863,7812.093861
1151.629817,6433.489062,-0.000000,9267.287815
1151.630117,10416.125148,5897.364973,6663.256528
1151.630412,12484.032346,10109.768526,7352.558928
1151.630711,10569.303459,13020.156435,9650.233593
1151.631011,3752.868619,12101.086569,10569.303459
1151.631310,306.356622,12713.799813,9650.233593
1151.631610,-4748.527641,10109.768526,8654.574571
1151.631909,-9190.698660,3216.744531,11641.551636
1151.632209,-15088.063633,-4365.581863,15394.420255
1151.632508,-12254.264880,-6586.667373,13786.047990
1151.632820,-7199.380617,-9190.698660,12101.086569
1151.633117,-6663.256528,-12177.675724,14628.528700
1151.633415,-3982.636086,-11564.962480,13403.102212
1151.633712,1684.961421,-6433.489062,9956.590215
1151.634009,8501.396260,-1455.193954,6280.310751
1151.634307,10262.946837,-536.124088,6663.256528
1151.634604,12024.497413,612.713244,9343.876971
1151.634902,13249.923901,3523.101153,9114.109504
1151.635211,13096.745590,7275.969772,7352.558928
1151.635510,5514.419196,6816.434839,7735.504705
1151.635810,-3829.457775,3063.566220,11335.195014
1151.636109,-9880.001059,1072.248177,13403.102212
1151.636408,-12866.978124,-536.124088,12713.799813
1151.636708,-13939.226301,-2527.442131,11182.016703
1151.637007,-12866.978124,-7352.558928,13249.923901
1151.637307,-9880.001059,-9650.233593,14934.885322
1151.637614,-5284.651729,-9650.233593,13632.869679
1151.637912,-536.124088,-7352.558928,10416.125148
1151.638210,3293.333686,-7505.737239,8807.752882
1151.638508,8348.217949,-4671.938485,9037.520349
1151.638806,12177.675724,-1148.837332,7046.202306
1151.639104,16390.079277,4288.992708,4442.171019
1151.639403,14705.117856,6356.899906,6816.434839
1151.639701,8501.396260,6510.078217,9803.411904
1151.640017,2527.442131,8348.217949,10875.660081
1151.640315,-3216.744531,8960.931193,9803.411904
1151.640614,-9726.822748,6203.721595,10262.946837
1151.640912,-16313.490121,459.534933,12713.799813
1151.641211,-17155.970832,-3752.868619,14475.350389
1151.641509,-14245.582923,-7658.915550,15241.241944
1151.641808,-8731.163727,-8424.807105,14092.404612
1151.642106,-2604.031287,-7965.272172,12943.567279
1151.642420,5361.240885,-5667.597507,9573.644437
1151.642719,8960.931193,-2986.977064,7888.683016
1151.643018,15164.652789,153.178311,7122.791461
1151.643317,15317.831100,3676.279464,4901.705952
1151.643615,13403.102212,6050.543284,6280.310751
1151.643914,7046.202306,4978.295107,10569.303459
1151.644213,-689.302399,5131.473418,12943.567279
1151.644512,-4288.992708,7275.969772,11182.016703
1151.644800,-6816.434839,7275.969772,9650.233593
1151.645100,-10492.714303,2297.674665,10186.357681
1151.645400,-14628.528700,-3293.333686,14398.761234
1151.645700,-13020.156435,-5514.419196,13556.280523
1151.646000,-8424.807105,-8577.985416,12101.086569
1151.646300,-5591.008351,-11718.140791,14015.815456
1151.646599,-2067.907198,-13249.923901,12637.210657
1151.646899,3140.155375,-11105.427547,10416.125148
1151.647199,10262.946837,-5820.775818,7582.326394
1151.647498,12790.388968,-3446.511997,7275.969772
1151.647797,13862.637145,306.356622,7505.737239
1151.648097,14398.761234,4978.295107,7429.148083
1151.648396,10109.768526,8654.574571,7735.504705
1151.648695,459.534933,9114.109504,11105.427547
1151.648995,-7658.915550,8960.931193,12560.621502
1151.649294,-11411.784169,9267.287815,11794.729947
1151.649601,-11947.908258,6969.613150,11335.195014
1151.649901,-12560.621502,459.534933,11718.140791
1151.650201,-11258.605858,-5514.419196,13709.458834
1151.650501,-4825.116796,-9190.698660,13709.458834
1151.650801,459.534933,-9726.822748,11947.908258
1151.651101,1991.318043,-10339.535992,10033.179370
1151.651401,2297.674665,-10952.249236,11488.373325
1151.651701,4212.403552,-7046.202306,10109.768526
