#time,accel_x,accel_y,accel_z
1155.514141,-229.767466,-1148.837332,10569.303459
1155.514439,-76.589155,-842.480710,10416.125148
1155.514738,1838.139732,-382.945777,10416.125148
1155.515036,5208.062574,-229.767466,9726.822748
1155.515350,8807.752882,-229.767466,9573.644437
1155.515649,13249.923901,-229.767466,9114.109504
1155.515948,18151.629853,-76.589155,8807.752882
1155.516246,19760.002119,-0.000000,8960.931193
1155.516545,22746.979183,153.178311,8731.163727
1155.516844,21827.909317,919.069866,8960.931193
1155.517143,21138.606918,2450.852976,8884.342038
1155.517441,19147.288875,1225.426488,8501.396260
1155.517730,15011.474478,1225.426488,9803.411904
1155.518030,14398.761234,1072.248177,9956.590215
1155.518330,15471.009411,153.178311,9880.001059
1155.518630,19913.180430,612.713244,10033.179370
1155.518930,25580.777937,306.356622,9267.287815
1155.519230,27189.150202,-689.302399,8960.931193
1155.519530,22593.800872,-2986.977064,10569.303459
1155.519830,15777.366033,-4825.116796,15164.652789
1155.520130,10875.660081,-3906.046930,15853.955188
1155.520429,8807.752882,-229.767466,13939.226301
1155.520728,6433.489062,1378.604799,13556.280523
1155.521027,2527.442131,1225.426488,14628.528700
1155.521327,2374.263820,1838.139732,16236.900966
1155.521626,6739.845684,3523.101153,14781.707011
1155.521925,13249.923901,5131.473418,11794.729947
1155.522225,20066.358741,5744.186662,9956.590215
1155.522532,25274.421315,4442.171019,7812.093861
1155.522831,31018.607977,765.891555,6663.256528
1155.523130,32703.569398,-2680.620442,6356.899906
1155.523429,34158.763353,-6739.845684,6510.078217
1155.523729,33163.104331,-9880.001059,6050.543284
1155.524028,27342.328513,-10033.179370,8348.217949
1155.524327,18151.629853,-7658.915550,11794.729947
1155.524627,8501.396260,-4518.760174,13556.280523
1155.524930,-229.767466,-76.589155,15930.544344
1155.525230,-6969.613150,3523.101153,13709.458834
1155.525531,-18687.753942,4978.295107,13632.869679
1155.525831,-24431.940604,4135.814397,14781.707011
1155.526131,-21215.196073,459.534933,12790.388968
1155.526432,-8118.450483,-2986.977064,8960.931193
1155.526732,3293.333686,-2986.977064,5361.240885
1155.527032,12943.567279,-4518.760174,5131.473418
1155.527351,20066.358741,-4059.225241,7888.683016
1155.527649,26423.258647,1378.604799,9267.287815
1155.527947,28108.220068,6816.434839,7122.791461
1155.528246,20066.358741,7735.504705,9114.109504
1155.528544,7888.683016,3829.457775,10033.179370
1155.528842,-7199.380617,-1914.728887,12407.443191
1155.529140,-21368.374384,-7658.915550,15241.241944
1155.529439,-27725.274291,-14168.993767,14781.707011
1155.529752,-26653.026114,-18075.040698,14781.707011
1155.530048,-17462.327454,-15317.831100,14168.993767
1155.530344,-6356.899906,-5667.597507,12560.621502
1155.530640,7582.326394,5131.473418,11258.605858
1155.530936,22440.622561,14475.350389,8118.450483
1155.531232,32856.747709,17998.451542,5744.186662
1155.531528,35231.011530,18457.986475,5667.597507
1155.531824,30865.429666,12254.264880,5054.884263
1155.532123,20066.358741,4442.171019,7429.148083
1155.532424,7888.683016,-5054.884263,9114.109504
1155.532725,-7352.558928,-11718.140791,11335.195014
1155.533026,-22670.390028,-17002.792521,15547.598566
1155.533326,-33622.639264,-18687.753942,15930.544344
1155.533627,-35843.724774,-16236.900966,16696.435899
1155.533928,-32320.623621,-10186.357681,15700.776877
1155.534228,-19377.056341,-2680.620442,12790.388968
1155.534535,-2604.031287,4978.295107,9956.590215
1155.534832,12790.388968,12101.086569,7965.272172
1155.535129,23742.638205,15241.241944,4901.705952
1155.535426,26882.793580,15241.241944,2527.442131
1155.535723,22746.979183,10722.481770,4365.581863
1155.536020,12790.388968,919.069866,7046.202306
1155.536317,-382.945777,-7658.915550,9956.590215
1155.536614,-6050.543284,-9726.822748,10262.946837
1155.536928,-8118.450483,-10186.357681,8654.574571
1155.537231,-10952.249236,-10339.535992,9650.233593
1155.537533,-11718.140791,-9726.822748,13249.923901
1155.537836,-5897.364973,-6127.132440,12943.567279
1155.538139,1531.783110,306.356622,13556.280523
1155.538442,8195.039638,2604.031287,11488.373325
1155.538744,12330.854035,4748.527641,9650.233593
1155.539047,15011.474478,8041.861327,10339.535992
1155.539366,14705.117856,8960.931193,8960.931193
1155.539662,5361.240885,5131.473418,9880.001059
1155.539958,-2221.085509,1072.248177,12943.567279
1155.540254,-9726.822748,-1148.837332,14015.815456
1155.540550,-12407.443191,-1608.372265,12407.443191
1155.540846,-14781.707011,-1761.550576,13096.745590
1155.541142,-12713.799813,-2680.620442,14934.885322
1155.541438,-8577.985416,-689.302399,14322.172078
1155.541675,-1608.372265,2297.674665,12484.032346
1155.541981,4901.705952,2757.209598,10109.768526
1155.542287,8960.931193,1225.426488,9956.590215
1155.542593,12024.497413,612.713244,9420.466126
1155.542899,11641.551636,-536.124088,8195.039638
1155.543205,11335.195014,-995.659021,7735.504705
1155.543511,5820.775818,-1914.728887,8348.217949
1155.543817,-2604.031287,-3446.511997,9956.590215
1155.544117,-8731.163727,-3293.333686,10416.125148
1155.544417,-9343.876971,-995.659021,11182.016703
1155.544717,-8424.807105,-0.000000,10339.535992
1155.545017,-5897.364973,2144.496354,9803.411904
1155.545317,-3216.744531,4442.171019,9650.233593
1155.545617,2297.674665,7122.791461,8807.752882
1155.545917,3752.868619,5437.830040,8654.574571
1155.546217,2297.674665,153.178311,9114.109504
1155.546508,4901.705952,-3446.511997,8654.574571
1155.546810,5208.062574,-6127.132440,8807.752882
1155.547113,2374.263820,-8424.807105,8807.752882
1155.547415,-536.124088,-10033.179370,9803.411904
1155.547718,-4288.992708,-8884.342038,11641.551636
1155.548021,-6203.721595,-7965.272172,11335.195014
1155.548323,-11258.605858,-8118.450483,12790.388968
1155.548626,-10645.892614,-6127.132440,13556.280523
1155.548934,-6050.543284,-2374.263820,12713.799813
1155.549234,2374.263820,2910.387909,9573.644437
1155.549533,9114.109504,6510.078217,7275.969772
1155.549833,11641.551636,5744.186662,8348.217949
1155.550133,10722.481770,5744.186662,9956.590215
1155.550433,6127.132440,4442.171019,11182.016703
1155.550733,2374.263820,1378.604799,10569.303459
1155.551033,-2221.085509,-1455.193954,10952.249236
1155.551316,-6663.256528,-5514.419196,11794.729947
1155.551619,-9343.876971,-9497.055282,12713.799813
1155.551922,-11411.784169,-12637.210657,16390.079277
1155.552225,-9573.644437,-11871.319102,14934.885322
1155.552527,-4595.349330,-8118.450483,11488.373325
1155.552830,459.534933,-2833.798753,8654.574571
1155.553133,5667.597507,1838.139732,7735.504705
1155.553436,8041.861327,6510.078217,8195.039638
1155.553718,10262.946837,10416.125148,6356.899906
1155.554020,11335.195014,12101.086569,7275.969772
1155.554323,6739.845684,9114.109504,9114.109504
1155.554626,2527.442131,8348.217949,10109.768526
1155.554928,-2604.031287,6356.899906,10262.946837
1155.555231,-3982.636086,2604.031287,10569.303459
1155.555534,-8884.342038,-2221.085509,13096.745590
1155.555837,-10339.535992,-4212.403552,13249.923901
1155.556126,-7199.380617,-4825.116796,12560.621502
1155.556425,-5284.651729,-5667.597507,11335.195014
1155.556724,-536.124088,-5054.884263,9803.411904
1155.557022,-1608.372265,-5208.062574,11105.427547
1155.557321,3140.155375,-3293.333686,11028.838392
1155.557619,4748.527641,-536.124088,10569.303459
1155.557918,6586.667373,3982.636086,9267.287815
1155.558217,6893.023995,7429.148083,8960.931193
1155.558526,5054.884263,8501.396260,9343.876971
1155.558824,1991.318043,9956.590215,9573.644437
1155.559121,-3829.457775,7735.504705,11641.551636
1155.559419,-6356.899906,3063.566220,11641.551636
1155.559717,-7122.791461,-1608.372265,13096.745590
1155.560015,-3523.101153,-5820.775818,12254.264880
1155.560313,-689.302399,-10645.892614,10416.125148
1155.560610,2527.442131,-12484.032346,11794.729947
1155.560918,4748.527641,-12330.854035,11182.016703
1155.561218,3140.155375,-12637.210657,10569.303459
1155.561519,2144.496354,-9726.822748,9956.590215
1155.561819,-842.480710,-7812.093861,10569.303459
1155.562120,-1302.015643,-2680.620442,9420.466126
1155.562420,-1608.372265,3369.922842,8041.861327
1155.562721,-536.124088,7275.969772,8807.752882
1155.563021,-1761.550576,8041.861327,9267.287815
1155.563318,-3369.922842,9267.287815,10262.946837
1155.563617,-3063.566220,7582.326394,10109.768526
1155.563916,-2374.263820,3676.279464,11105.427547
1155.564214,919.069866,-0.000000,9726.822748
1155.564513,3140.155375,-4059.225241,9037.520349
1155.564812,5820.775818,-7965.272172,9343.876971
1155.565111,5361.240885,-11258.605858,10186.357681
1155.565410,4059.225241,-10952.249236,10416.125148
1155.565705,306.356622,-10339.535992,9726.822748
1155.566005,-1914.728887,-7812.093861,11794.729947
1155.566305,-3216.744531,-2986.977064,9803.411904
1155.566605,-3063.566220,5744.186662,9114.109504
1155.566905,-5284.651729,9956.590215,10569.303459
1155.567205,-7352.558928,11335.195014,14015.815456
1155.567505,-5591.008351,13786.047990,12713.799813
1155.567805,-1148.837332,15547.598566,11028.838392
1155.568094,3446.511997,12866.978124,8960.931193
1155.568394,3140.155375,5591.008351,10645.892614
1155.568695,4518.760174,-382.945777,11794.729947
1155.568996,6127.132440,-5054.884263,9956.590215
1155.569297,3140.155375,-10645.892614,11335.195014
1155.569598,-689.302399,-16236.900966,12101.086569
1155.569898,-5131.473418,-17615.505765,12254.264880
1155.570199,-4442.171019,-14858.296167,11335.195014
1155.570499,-4595.349330,-9726.822748,11411.784169
1155.570799,-2221.085509,-3599.690308,10875.660081
1155.571099,306.356622,5744.186662,9573.644437
1155.571399,4748.527641,12254.264880,9650.233593
1155.571699,3906.046930,16466.668432,9267.287815
1155.571999,1378.604799,16160.311810,10262.946837
1155.572299,-1148.837332,13326.513057,10262.946837
1155.572599,-1608.372265,6050.543284,10569.303459
1155.572906,-2221.085509,-1914.728887,10799.070925
1155.573204,-1914.728887,-8884.342038,11564.962480
1155.573502,612.713244,-14322.172078,10569.303459
1155.573800,1991.318043,-16543.257588,9956.590215
1155.574099,-0.000000,-17002.792521,9190.698660
1155.574397,-3523.101153,-16083.722655,10416.125148
1155.574695,-2910.387909,-11871.319102,11028.838392
1155.574993,919.069866,-5361.240885,9037.520349
1155.575309,3293.333686,2604.031287,7735.504705
1155.575608,5361.240885,8960.931193,7122.791461
1155.575906,4901.705952,13479.691368,10109.768526
1155.576205,3906.046930,15700.776877,9803.411904
1155.576503,1072.248177,16466.668432,10262.946837
1155.576802,-2910.387909,12866.978124,12407.443191
1155.577100,-6510.078217,5131.473418,12943.567279
1155.577398,-6816.434839,-995.659021,13020.156435
1155.577713,-3369.922842,-5361.240885,11488.373325
1155.578012,-2374.263820,-10645.892614,12407.443191
1155.578312,-1455.193954,-15624.187722,12101.086569
1155.578611,-76.589155,-14168.993767,12254.264880
1155.578911,3752.868619,-10186.357681,9956.590215
1155.579211,4365.581863,-4365.581863,9573.644437
1155.579510,2833.798753,153.178311,9497.055282
1155.579810,2374.263820,6510.078217,9114.109504
1155.580098,2680.620442,12407.443191,10416.125148
1155.580398,1225.426488,14934.885322,9420.466126
1155.580698,-1761.550576,13020.156435,9726.822748
1155.580998,-3369.922842,8960.931193,11947.908258
1155.581298,-3369.922842,3216.744531,12560.621502
1155.581598,-2067.907198,-1302.015643,11182.016703
1155.581897,-995.659021,-7352.558928,9650.233593
1155.582197,-0.000000,-11105.427547,9650.233593
1155.582497,-1608.372265,-15164.652789,11335.195014
1155.582796,-4135.814397,-17309.149143,11718.140791
1155.583095,-3369.922842,-16083.722655,9956.590215
1155.583394,-2067.907198,-12637.210657,10722.481770
1155.583694,2680.620442,-6893.023995,8348.217949
1155.583993,5514.419196,1838.139732,5820.775818
1155.584292,7888.683016,8960.931193,6969.613150
1155.584591,7275.969772,12560.621502,9114.109504
1155.584899,4901.705952,13939.226301,9956.590215
1155.585198,612.713244,11947.908258,9573.644437
1155.585497,-2374.263820,6050.543284,10416.125148
1155.585796,-6510.078217,-995.659021,12560.621502
1155.586096,-7352.558928,-6586.667373,13020.156435
1155.586395,-3216.744531,-9190.698660,11794.729947
1155.586694,-2067.907198,-9343.876971,13403.102212
1155.586993,-76.589155,-8271.628794,12177.675724
1155.587314,-1148.837332,-6586.667373,10875.660081
1155.587614,306.356622,-3446.511997,10875.660081
1155.587914,1531.783110,-1148.837332,10339.535992
1155.588215,1684.961421,3676.279464,9956.590215
1155.588515,4748.527641,8041.861327,9726.822748
1155.588816,5973.954129,10875.660081,10416.125148
1155.589116,5361.240885,12254.264880,9803.411904
1155.589416,1378.604799,11794.729947,9956.590215
1155.589735,-995.659021,8195.039638,10569.303459
1155.590029,-5897.364973,2144.496354,13096.745590
1155.590322,-6050.543284,-1914.728887,12560.621502
1155.590616,-7352.558928,-5514.419196,11641.551636
1155.590909,-4595.349330,-8577.985416,11335.195014
1155.591203,-3063.566220,-12484.032346,11641.551636
1155.591496,-3063.566220,-12024.497413,10722.481770
1155.591790,612.713244,-10339.535992,9267.287815
1155.592107,2297.674665,-7965.272172,10109.768526
1155.592402,7122.791461,-3446.511997,7582.326394
1155.592698,8501.396260,1684.961421,6127.132440
1155.592993,7888.683016,4748.527641,7352.558928
1155.593288,4365.581863,6203.721595,8195.039638
1155.593583,-0.000000,5131.473418,9573.644437
1155.593879,-5131.473418,3216.744531,10339.535992
1155.594174,-7505.737239,-1148.837332,12254.264880
1155.594474,-9037.520349,-3599.690308,12790.388968
1155.594775,-6050.543284,-5973.954129,11488.373325
1155.595075,-1608.372265,-6280.310751,10952.249236
1155.595376,765.891555,-7199.380617,10722.481770
1155.595677,1531.783110,-6586.667373,10033.179370
1155.595977,1072.248177,-7658.915550,10722.481770
1155.596278,2833.798753,-6280.310751,10492.714303
1155.596579,4059.225241,-5514.419196,9880.001059
1155.596886,4901.705952,-842.480710,9190.698660
1155.597187,7582.326394,5897.364973,8041.861327
1155.597488,5973.954129,9803.411904,9803.411904
1155.597789,919.069866,10569.303459,11488.373325
1155.598090,-4442.171019,9956.590215,13173.334746
1155.598391,-5591.008351,8654.574571,12407.443191
1155.598692,-5744.186662,5284.651729,12790.388968
1155.598993,-5284.651729,1531.783110,12254.264880
1155.599307,-2067.907198,-229.767466,10416.125148
1155.599607,1838.139732,-1914.728887,11488.373325
1155.599907,1531.783110,-5208.062574,11411.784169
1155.600208,-1914.728887,-8118.450483,11411.784169
1155.600508,-536.124088,-7046.202306,10569.303459
1155.600808,-76.589155,-5361.240885,9343.876971
1155.601108,1225.426488,-3599.690308,7812.093861
1155.601409,612.713244,919.069866,8041.861327
1155.601727,2680.620442,5437.830040,10109.768526
1155.602023,2297.674665,8195.039638,9190.698660
1155.602319,-1455.193954,8807.752882,9956.590215
1155.602615,-3369.922842,6816.434839,10262.946837
1155.602911,-3063.566220,3369.922842,11182.016703
1155.603207,-2757.209598,-689.302399,10799.070925
1155.603503,-1608.372265,-5973.954129,10416.125148
1155.603799,1072.248177,-9343.876971,11794.729947
1155.604117,2833.798753,-10186.357681,10416.125148
1155.604413,3293.333686,-10952.249236,9037.520349
1155.604710,-995.659021,-12177.675724,9880.001059
1155.605007,-2604.031287,-11411.784169,11488.373325
1155.605303,-995.659021,-6893.023995,10109.768526
1155.605600,2144.496354,-536.124088,7199.380617
1155.605897,4212.403552,3369.922842,8960.931193
1155.606194,3599.690308,6050.543284,11258.605858
1155.606483,3752.868619,8501.396260,10492.714303
1155.606783,2527.442131,10262.946837,9420.466126
1155.607082,-2450.852976,4825.116796,11794.729947
1155.607381,-6203.721595,-1302.015643,13939.226301
1155.607680,-5437.830040,-3599.690308,12713.799813
1155.607979,-1608.372265,-3906.046930,10416.125148
1155.608278,-229.767466,-6586.667373,11411.784169
1155.608577,-689.302399,-8884.342038,12407.443191
1155.608863,-995.659021,-7505.737239,11488.373325
1155.609166,1225.426488,-3293.333686,10416.125148
1155.609469,1684.961421,-229.767466,9343.876971
1155.609771,-842.480710,2604.031287,9573.644437
1155.610074,459.534933,6510.078217,9803.411904
1155.610377,2297.674665,11488.373325,8960.931193
1155.610680,2680.620442,12407.443191,9114.109504
1155.610982,-1608.372265,8807.752882,10186.357681
1155.611289,-2450.852976,6663.256528,10569.303459
1155.611587,-2221.085509,3676.279464,11182.016703
1155.611884,306.356622,-0.000000,9650.233593
1155.612181,-382.945777,-4901.705952,9267.287815
1155.612478,-1302.015643,-8884.342038,11182.016703
1155.612775,-3216.744531,-11871.319102,11641.551636
1155.613073,-4748.527641,-12330.854035,11794.729947
1155.613370,-3982.636086,-10186.357681,9573.644437
1155.613666,-1914.728887,-8577.985416,9343.876971
1155.613967,-1148.837332,-4212.403552,10722.481770
1155.614268,3293.333686,1838.139732,8654.574571
1155.614570,6739.845684,7122.791461,7965.272172
1155.614871,7122.791461,8960.931193,9114.109504
1155.615172,3906.046930,7888.683016,9803.411904
1155.615473,-689.302399,3829.457775,10033.179370
1155.615774,-2221.085509,-76.589155,11641.551636
1155.616069,-5131.473418,-5054.884263,12713.799813
1155.616370,-5437.830040,-9880.001059,12560.621502
1155.616670,-1761.550576,-10033.179370,12560.621502
1155.616971,-842.480710,-10339.535992,12407.443191
1155.617272,-1148.837332,-9037.520349,11335.195014
1155.617573,-2374.263820,-6739.845684,11335.195014
1155.617874,765.891555,-3293.333686,9650.233593
1155.618175,1684.961421,-76.589155,10416.125148
1155.618463,1378.604799,3216.744531,9726.822748
1155.618764,2297.674665,6510.078217,11028.838392
1155.619064,6586.667373,10569.303459,10952.249236
1155.619365,9650.233593,13632.869679,7505.737239
1155.619666,4518.760174,12866.978124,9420.466126
1155.619967,-536.124088,7122.791461,11028.838392
1155.620268,-6510.078217,3523.101153,13326.513057
1155.620569,-5897.364973,-536.124088,11947.908258
1155.620878,-6969.613150,-5973.954129,10186.357681
1155.621177,-7505.737239,-10339.535992,13096.745590
1155.621476,-6203.721595,-10952.249236,12713.799813
1155.621776,-3369.922842,-9037.520349,9880.001059
1155.622075,1072.248177,-5054.884263,8118.450483
1155.622374,3293.333686,-3293.333686,9114.109504
1155.622674,5208.062574,1531.783110,8424.807105
1155.622973,5820.775818,7275.969772,6663.256528
1155.623280,7735.504705,10109.768526,6739.845684
1155.623580,3906.046930,8195.039638,8654.574571
1155.623880,-842.480710,5437.830040,10722.481770
1155.624179,-4135.814397,1684.961421,11182.016703
1155.624479,-6356.899906,-2374.263820,12407.443191
1155.624779,-5897.364973,-6893.023995,12024.497413
1155.625078,-5897.364973,-9343.876971,12101.086569
1155.625378,-1914.728887,-10952.249236,12024.497413
1155.625674,1378.604799,-9190.698660,10722.481770
1155.625972,2986.977064,-9037.520349,9956.590215
1155.626269,1684.961421,-7812.093861,9956.590215
1155.626567,2833.798753,-5820.775818,10262.946837
1155.626864,4365.581863,-2833.798753,9880.001059
1155.627162,5820.775818,1838.139732,7735.504705
1155.627459,4059.225241,4748.527641,9267.287815
1155.627756,1378.604799,5744.186662,11641.551636
1155.628071,-3216.744531,5591.008351,11794.729947
1155.628369,-5591.008351,5744.186662,13020.156435
1155.628668,-4442.171019,3369.922842,10875.660081
1155.628967,-5131.473418,459.534933,11794.729947
1155.629266,-2757.209598,-2833.798753,11794.729947
1155.629564,-995.659021,-4671.938485,10416.125148
1155.629863,1838.139732,-6280.310751,11641.551636
1155.630162,2374.263820,-6586.667373,10952.249236
1155.630473,2144.496354,-6127.132440,10262.946837
1155.630770,3599.690308,-3752.868619,9267.287815
1155.631067,2986.977064,153.178311,9267.287815
1155.631363,3140.155375,2910.387909,8807.752882
1155.631660,2527.442131,8195.039638,8501.396260
1155.631957,3446.511997,10109.768526,9267.287815
1155.632253,-536.124088,10569.303459,10186.357681
1155.632550,-6663.256528,7888.683016,12713.799813
1155.632850,-7812.093861,6050.543284,11182.016703
1155.633152,-5744.186662,3829.457775,10799.070925
1155.633455,-4442.171019,-1148.837332,10722.481770
1155.633757,-3216.744531,-6127.132440,12254.264880
1155.634060,459.534933,-7352.558928,13556.280523
1155.634362,6586.667373,-6433.489062,9497.055282
1155.634665,7582.326394,-7965.272172,7735.504705
1155.634968,1684.961421,-10339.535992,9497.055282
1155.635275,-842.480710,-10645.892614,12101.086569
1155.635571,306.356622,-4518.760174,10645.892614
1155.635866,3140.155375,-382.945777,8654.574571
1155.636162,2986.977064,3829.457775,9267.287815
1155.636458,-1302.015643,6050.543284,12484.032346
1155.636754,-229.767466,9803.411904,11182.016703
1155.637050,-1455.193954,9956.590215,9650.233593
1155.637346,-4825.116796,5744.186662,11564.962480
1155.637667,-7505.737239,-2221.085509,13249.923901
1155.637964,-5284.651729,-5820.775818,13403.102212
1155.638261,459.534933,-8271.628794,11488.373325
1155.638558,2527.442131,-12177.675724,10722.481770
1155.638855,3293.333686,-14322.172078,10262.946837
1155.639152,3140.155375,-14015.815456,10416.125148
1155.639449,6893.023995,-9650.233593,8960.931193
1155.639746,6893.023995,-4059.225241,7582.326394
1155.640064,3599.690308,612.713244,7429.148083
1155.640363,1991.318043,5897.364973,8348.217949
1155.640661,2144.496354,11182.016703,9420.466126
1155.640959,612.713244,14628.528700,9420.466126
1155.641257,-5284.651729,13173.334746,11335.195014
1155.641556,-7352.558928,9956.590215,12484.032346
1155.641854,-6203.721595,8348.217949,12560.621502
1155.642152,-536.124088,4825.116796,9573.644437
1155.642465,-382.945777,-689.302399,9803.411904
1155.642764,-995.659021,-7352.558928,12101.086569
1155.643062,-2757.209598,-13096.745590,12713.799813
1155.643360,-3829.457775,-15624.187722,12943.567279
1155.643659,-995.659021,-13709.458834,9650.233593
1155.643957,3140.155375,-10645.892614,8195.039638
1155.644256,3906.046930,-4365.581863,8960.931193
1155.644554,4671.938485,3369.922842,7505.737239
1155.644854,6739.845684,11488.373325,7735.504705
1155.645155,2986.977064,15088.063633,9956.590215
1155.645455,-2374.263820,13786.047990,11488.373325
1155.645756,-6969.613150,11182.016703,12407.443191
1155.646057,-7199.380617,8501.396260,12560.621502
1155.646358,-6203.721595,1684.961421,12177.675724
1155.646659,-5897.364973,-6893.023995,14015.815456
1155.646959,-1148.837332,-12024.497413,13556.280523
1155.647266,3752.868619,-12637.210657,12407.443191
1155.647563,3599.690308,-14858.296167,10262.946837
1155.647860,-0.000000,-17462.327454,9573.644437
1155.648157,1378.604799,-13862.637145,10262.946837
1155.648454,3599.690308,-7658.915550,9420.466126
1155.648751,4365.581863,-1302.015643,7122.791461
1155.649048,5208.062574,5284.651729,8195.039638
1155.649344,4901.705952,10875.660081,10569.303459
1155.649659,6280.310751,14934.885322,9037.520349
1155.649958,2986.977064,16313.490121,7735.504705
1155.650258,-2067.907198,12866.978124,9573.644437
1155.650557,-10033.179370,4748.527641,13862.637145
1155.650857,-11105.427547,-1148.837332,14322.172078
1155.651156,-7505.737239,-6127.132440,11871.319102
1155.651456,-4978.295107,-11871.319102,12254.264880
1155.651755,-4288.992708,-16390.079277,12943.567279
1155.652074,-2910.387909,-16083.722655,11794.729947
1155.652369,3752.868619,-10952.249236,8577.985416
1155.652664,6739.845684,-6739.845684,8041.861327
1155.652959,7888.683016,-689.302399,7122.791461
1155.653255,8041.861327,6816.434839,6816.434839
1155.653550,8807.752882,12560.621502,7505.737239
1155.653845,5514.419196,15547.598566,8348.217949
1155.654140,-0.000000,15394.420255,9880.001059
1155.654457,-3982.636086,12101.086569,11794.729947
1155.654755,-5591.008351,7735.504705,11871.319102
1155.655053,-6816.434839,1684.961421,12484.032346
1155.655351,-10952.249236,-6739.845684,14168.993767
1155.655649,-9497.055282,-12790.388968,14934.885322
1155.655946,-4825.116796,-13556.280523,12943.567279
1155.656244,-382.945777,-13709.458834,10416.125148
1155.656542,-1608.372265,-14551.939545,11641.551636
1155.656842,1684.961421,-11564.962480,10875.660081
1155.657141,9420.466126,-4212.403552,8118.450483
1155.657441,12637.210657,3063.566220,5054.884263
1155.657740,11641.551636,5897.364973,5820.775818
1155.658040,6127.132440,10262.946837,9650.233593
1155.658339,3140.155375,11794.729947,9573.644437
1155.658639,-2757.209598,10722.481770,10875.660081
1155.658939,-5131.473418,7275.969772,10722.481770
1155.659229,-9573.644437,612.713244,12254.264880
1155.659532,-10186.357681,-5667.597507,13403.102212
1155.659834,-9497.055282,-10492.714303,12254.264880
1155.660137,-5437.830040,-12330.854035,12943.567279
1155.660439,-2450.852976,-14168.993767,12024.497413
1155.660742,-3829.457775,-14475.350389,11105.427547
1155.661044,2833.798753,-11258.605858,8960.931193
1155.661347,4748.527641,-6127.132440,8577.985416
1155.661655,8041.861327,-2374.263820,6663.256528
1155.661955,9420.466126,5131.473418,6280.310751
1155.662255,10109.768526,10569.303459,7888.683016
1155.662555,7429.148083,15088.063633,8884.342038
1155.662854,1225.426488,15700.776877,10952.249236
1155.663154,-2374.263820,15088.063633,10875.660081
1155.663454,-4135.814397,11488.373325,10416.125148
1155.663754,-7505.737239,5284.651729,12560.621502
1155.664002,-10492.714303,-4059.225241,14551.939545
1155.664310,-7965.272172,-8577.985416,14628.528700
1155.664618,-4825.116796,-10645.892614,14092.404612
1155.664926,-1302.015643,-12637.210657,11028.838392
1155.665234,-3523.101153,-13403.102212,11335.195014
1155.665541,-1608.372265,-10033.179370,12407.443191
1155.665849,3752.868619,-3752.868619,8960.931193
1155.666157,8195.039638,3982.636086,6356.899906
1155.666439,11028.838392,8960.931193,6663.256528
1155.666741,6893.023995,11794.729947,9267.287815
1155.667044,3752.868619,13479.691368,10109.768526
1155.667347,-0.000000,12407.443191,9803.411904
1155.667650,-3216.744531,8041.861327,9803.411904
1155.667952,-8271.628794,306.356622,12254.264880
1155.668255,-8884.342038,-6433.489062,12790.388968
1155.668558,-4748.527641,-9726.822748,12330.854035
1155.668847,-1148.837332,-13862.637145,12101.086569
1155.669146,459.534933,-17462.327454,10799.070925
1155.669445,-995.659021,-18075.040698,11794.729947
1155.669745,1991.318043,-14551.939545,9650.233593
1155.670044,2986.977064,-8271.628794,8501.396260
1155.670343,4212.403552,-4212.403552,7429.148083
1155.670642,2527.442131,1072.248177,8118.450483
1155.670941,3446.511997,7122.791461,9650.233593
1155.671227,3140.155375,13173.334746,8884.342038
1155.671529,612.713244,13939.226301,9037.520349
1155.671831,-2374.263820,10416.125148,10416.125148
1155.672133,-4825.116796,6969.613150,12713.799813
1155.672434,-3676.279464,2450.852976,12101.086569
1155.672736,-2221.085509,-3293.333686,11028.838392
1155.673038,459.534933,-7812.093861,12637.210657
1155.673340,765.891555,-12024.497413,12407.443191
1155.673647,2527.442131,-12637.210657,10875.660081
1155.673947,4901.705952,-10339.535992,9037.520349
1155.674247,4365.581863,-9037.520349,9114.109504
1155.674546,-382.945777,-5667.597507,10339.535992
1155.674846,-2450.852976,1531.783110,11794.729947
1155.675146,459.534933,10722.481770,10416.125148
1155.675446,612.713244,14934.885322,9420.466126
1155.675745,-3216.744531,16466.668432,11488.373325
1155.676042,-5131.473418,15700.776877,11641.551636
1155.676342,-2067.907198,14092.404612,9956.590215
1155.676641,-229.767466,7888.683016,9803.411904
1155.676941,-1914.728887,-1761.550576,11794.729947
1155.677240,-995.659021,-7352.558928,13556.280523
1155.677540,1072.248177,-10339.535992,11488.373325
1155.677840,3140.155375,-13096.745590,8577.985416
1155.678139,-1914.728887,-17309.149143,10722.481770
1155.678434,-3369.922842,-17462.327454,11641.551636
1155.678734,-229.767466,-11871.319102,11028.838392
1155.679034,2833.798753,-3599.690308,7888.683016
1155.679335,5361.240885,3369.922842,6586.667373
1155.679635,4059.225241,8348.217949,9956.590215
1155.679935,2680.620442,12713.799813,9956.590215
1155.680235,765.891555,14398.761234,10109.768526
1155.680535,-1914.728887,11794.729947,10262.946837
1155.680847,-5744.186662,6050.543284,11335.195014
1155.681144,-4978.295107,-229.767466,12254.264880
1155.681442,-3369.922842,-6739.845684,11105.427547
1155.681739,-1455.193954,-11871.319102,12254.264880
1155.682036,-995.659021,-15471.009411,11947.908258
1155.682334,-1148.837332,-17002.792521,10952.249236
1155.682631,2527.442131,-14858.296167,9803.411904
1155.682929,2833.798753,-11105.427547,9420.466126
1155.683193,3446.511997,-5208.062574,8960.931193
1155.683498,3752.868619,459.534933,8041.861327
1155.683803,5514.419196,7735.504705,9726.822748
1155.684108,4365.581863,13939.226301,10416.125148
1155.684413,1991.318043,17232.559987,10186.357681
1155.684719,-995.659021,17385.738298,10722.481770
1155.685024,-1608.372265,13939.226301,11182.016703
1155.685329,-2757.209598,7582.326394,11488.373325
1155.685636,-5897.364973,-76.589155,12407.443191
1155.685934,-4288.992708,-7046.202306,12254.264880
1155.686232,-3369.922842,-11258.605858,12713.799813
1155.686530,-1761.550576,-13096.745590,10875.660081
1155.686828,-2604.031287,-14858.296167,10109.768526
1155.687126,-382.945777,-12943.567279,10262.946837
1155.687424,153.178311,-9190.698660,10033.179370
1155.687722,1531.783110,-1914.728887,9114.109504
1155.688038,3599.690308,5437.830040,8501.396260
1155.688337,4671.938485,11641.551636,9726.822748
1155.688635,4212.403552,14475.350389,9573.644437
1155.688934,765.891555,14245.582923,9573.644437
1155.689232,-382.945777,11641.551636,9880.001059
1155.689531,-842.480710,5284.651729,9956.590215
1155.689829,-995.659021,-1914.728887,9880.001059
1155.690128,-2067.907198,-9726.822748,11488.373325
1155.690442,-536.124088,-13096.745590,12024.497413
1155.690741,1225.426488,-14322.172078,10109.768526
1155.691039,-382.945777,-15011.474478,9650.233593
1155.691338,-1455.193954,-13709.458834,10875.660081
1155.691637,-2067.907198,-9650.233593,11028.838392
1155.691935,-1608.372265,-4212.403552,8807.752882
1155.692234,-2067.907198,-229.767466,9803.411904
1155.692533,765.891555,5437.830040,11028.838392
1155.692844,1072.248177,11028.838392,11258.605858
1155.693141,2680.620442,12866.978124,9803.411904
1155.693437,765.891555,12560.621502,9573.644437
1155.693734,1072.248177,8348.217949,10416.125148
1155.694031,459.534933,2910.387909,10952.249236
1155.694327,-1761.550576,-3906.046930,11641.551636
1155.694624,-536.124088,-7965.272172,12560.621502
1155.694920,-229.767466,-10492.714303,11105.427547
1155.695220,-382.945777,-11564.962480,10645.892614
1155.695519,-2067.907198,-10645.892614,12484.032346
1155.695818,153.178311,-7352.558928,11641.551636
1155.696118,1378.604799,-842.480710,9114.109504
1155.696417,2527.442131,3982.636086,7735.504705
1155.696716,1991.318043,7429.148083,10262.946837
1155.697015,919.069866,11947.908258,11564.962480
1155.697315,1838.139732,14245.582923,9343.876971
1155.697622,-1455.193954,11947.908258,10416.125148
1155.697921,-2374.263820,7582.326394,11182.016703
1155.698220,-2910.387909,2910.387909,10722.481770
1155.698519,-2450.852976,-1914.728887,9726.822748
1155.698819,-2450.852976,-6739.845684,10262.946837
1155.699118,-3982.636086,-10952.249236,12177.675724
1155.699417,-3523.101153,-12637.210657,11488.373325
1155.699716,-2374.263820,-11718.140791,10416.125148
1155.700020,153.178311,-10799.070925,9880.001059
1155.700320,-76.589155,-9726.822748,10416.125148
1155.700621,3599.690308,-4671.938485,9267.287815
1155.700921,5973.954129,3369.922842,8041.861327
1155.701221,7275.969772,7888.683016,8654.574571
1155.701522,2680.620442,10262.946837,9420.466126
1155.701822,-1608.372265,9650.233593,10109.768526
1155.702122,-2604.031287,6816.434839,10416.125148
1155.702441,-3369.922842,2450.852976,10722.481770
1155.702739,-2450.852976,-2986.977064,11028.838392
1155.703037,-1761.550576,-7658.915550,11028.838392
1155.703335,1378.604799,-9650.233593,12407.443191
1155.703634,1378.604799,-10952.249236,11718.140791
1155.703932,-995.659021,-11411.784169,10569.303459
1155.704230,-2450.852976,-10033.179370,11028.838392
1155.704528,-1455.193954,-6739.845684,10262.946837
1155.704841,612.713244,-2680.620442,9650.233593
1155.705136,2144.496354,765.891555,8884.342038
1155.705432,4365.581863,6663.256528,9650.233593
1155.705727,4671.938485,10262.946837,10262.946837
1155.706022,3140.155375,12866.978124,10109.768526
1155.706318,-0.000000,11641.551636,10033.179370
1155.706613,-1761.550576,10109.768526,9190.698660
1155.706908,-2910.387909,4288.992708,10722.481770
1155.707208,-5897.364973,-2680.620442,11182.016703
1155.707509,-4595.349330,-8118.450483,12943.567279
1155.707809,-3369.922842,-10799.070925,13862.637145
1155.708110,459.534933,-11105.427547,9573.644437
1155.708411,-689.302399,-10492.714303,10722.481770
1155.708712,306.356622,-9037.520349,9573.644437
1155.709012,2374.263820,-3752.868619,9650.233593
1155.709313,1225.426488,-0.000000,9037.520349
1155.709620,612.713244,3829.457775,9803.411904
1155.709917,306.356622,8041.861327,11488.373325
1155.710214,2527.442131,13632.869679,8501.396260
1155.710511,153.178311,13786.047990,10416.125148
1155.710808,-1302.015643,8807.752882,9803.411904
1155.711105,-2221.085509,4595.349330,11028.838392
1155.711402,-1302.015643,-536.124088,10569.303459
1155.711699,-1608.372265,-6586.667373,10875.660081
1155.712007,-76.589155,-10645.892614,12407.443191
1155.712306,2680.620442,-11411.784169,10492.714303
1155.712605,1838.139732,-13556.280523,10416.125148
1155.712903,1225.426488,-13403.102212,10262.946837
1155.713202,459.534933,-9190.698660,9956.590215
1155.713501,1072.248177,-4518.760174,8654.574571
1155.713800,-1761.550576,-76.589155,9267.287815
1155.714099,-1455.193954,4442.171019,12560.621502
1155.714416,-1914.728887,8960.931193,12484.032346
1155.714714,153.178311,13020.156435,9803.411904
1155.715013,-1455.193954,11947.908258,8654.574571
1155.715311,-1914.728887,7275.969772,9803.411904
1155.715610,-3829.457775,459.534933,12254.264880
1155.715908,-689.302399,-3752.868619,10416.125148
1155.716206,3752.868619,-7965.272172,10569.303459
1155.716505,1225.426488,-13096.745590,12101.086569
1155.716850,153.178311,-12943.567279,12254.264880
1155.717145,459.534933,-10186.357681,10262.946837
1155.717439,2680.620442,-8118.450483,9573.644437
1155.717734,-382.945777,-5973.954129,10416.125148
1155.718028,-2604.031287,-76.589155,9573.644437
1155.718323,-689.302399,7582.326394,10109.768526
1155.718617,1531.783110,13173.334746,9420.466126
1155.718912,1531.783110,14781.707011,9956.590215
1155.719212,-2221.085509,12866.978124,10875.660081
1155.719508,-2221.085509,9573.644437,10109.768526
1155.719805,-1914.728887,4595.349330,11335.195014
1155.720102,-536.124088,-1455.193954,10262.946837
1155.720398,-995.659021,-8118.450483,11411.784169
1155.720695,612.713244,-10645.892614,12407.443191
1155.720992,2144.496354,-11564.962480,10109.768526
1155.721288,-0.000000,-11258.605858,9650.233593
1155.721602,-1148.837332,-11564.962480,10262.946837
1155.721901,-3216.744531,-7965.272172,12101.086569
1155.722200,-1302.015643,-2527.442131,9726.822748
1155.722498,153.178311,3676.279464,8960.931193
1155.722797,3752.868619,9114.109504,8577.985416
1155.723096,4059.225241,12254.264880,9573.644437
1155.723395,1991.318043,10722.481770,9420.466126
1155.723693,-1914.728887,6050.543284,10262.946837
1155.724000,-1455.193954,1225.426488,12484.032346
1155.724303,-536.124088,-3599.690308,10262.946837
1155.724607,-76.589155,-8424.807105,9880.001059
1155.724910,1838.139732,-11258.605858,11182.016703
1155.725213,-536.124088,-11411.784169,11641.551636
1155.725516,-1302.015643,-11105.427547,11335.195014
1155.725819,-3369.922842,-9880.001059,11028.838392
1155.726122,-4135.814397,-8118.450483,10875.660081
1155.726405,-2910.387909,-3906.046930,9956.590215
1155.726704,-842.480710,2450.852976,9880.001059
1155.727003,3293.333686,7888.683016,10262.946837
1155.727302,6739.845684,12407.443191,9420.466126
1155.727601,6586.667373,15241.241944,9650.233593
1155.727900,1378.604799,13479.691368,10262.946837
1155.728199,765.891555,9803.411904,10645.892614
1155.728498,-76.589155,5131.473418,10186.357681
1155.728790,-1455.193954,-1761.550576,9956.590215
1155.729091,-4595.349330,-8731.163727,13403.102212
1155.729392,-6663.256528,-12024.497413,15547.598566
1155.729693,-1761.550576,-9650.233593,10722.481770
1155.729994,-842.480710,-8271.628794,7888.683016
1155.730295,-1914.728887,-7046.202306,10109.768526
1155.730596,-3982.636086,-4518.760174,12407.443191
1155.730897,765.891555,3369.922842,9956.590215
1155.731185,7046.202306,9114.109504,7735.504705
1155.731486,7429.148083,9803.411904,9420.466126
1155.731787,2833.798753,10262.946837,10722.481770
1155.732087,612.713244,10722.481770,9420.466126
1155.732388,919.069866,7122.791461,8807.752882
1155.732689,-2450.852976,-1608.372265,10416.125148
1155.732990,-6050.543284,-9497.055282,12713.799813
1155.733291,-6050.543284,-12637.210657,13096.745590
1155.733600,-536.124088,-11564.962480,11335.195014
1155.733899,4059.225241,-10952.249236,9114.109504
1155.734199,-382.945777,-11718.140791,9956.590215
1155.734498,-2374.263820,-9190.698660,11335.195014
1155.734797,-1608.372265,-4825.116796,10569.303459
1155.735097,919.069866,-842.480710,8195.039638
1155.735396,1072.248177,1684.961421,8424.807105
1155.735695,1072.248177,3676.279464,10109.768526
1155.736002,1378.604799,6050.543284,10722.481770
1155.736302,2374.263820,7735.504705,9726.822748
1155.736602,-0.000000,6203.721595,9726.822748
1155.736901,-1302.015643,2604.031287,11335.195014
1155.737201,-1914.728887,-1302.015643,10339.535992
1155.737501,-1302.015643,-4059.225241,10109.768526
1155.737800,-536.124088,-7658.915550,10875.660081
1155.738100,153.178311,-9190.698660,12101.086569
1155.738397,612.713244,-9497.055282,11028.838392
1155.738694,-2374.263820,-8577.985416,12177.675724
1155.738991,-2374.263820,-4901.705952,11641.551636
1155.739289,-842.480710,-229.767466,10339.535992
1155.739586,2374.263820,5284.651729,8501.396260
1155.739884,3906.046930,9420.466126,8118.450483
1155.740181,1531.783110,11947.908258,10569.303459
1155.740478,1225.426488,12560.621502,9267.287815
1155.740793,153.178311,11641.551636,9803.411904
1155.741092,-995.659021,4135.814397,10569.303459
1155.741390,-4442.171019,-2833.798753,11258.605858
1155.741689,-2221.085509,-5973.954129,11488.373325
1155.741988,-1302.015643,-8424.807105,11258.605858
1155.742286,1531.783110,-10033.179370,11105.427547
1155.742585,1838.139732,-10339.535992,10799.070925
1155.742884,-1761.550576,-8577.985416,11488.373325
1155.743195,-689.302399,-4671.938485,9956.590215
1155.743492,-382.945777,-1455.193954,9803.411904
1155.743789,1225.426488,919.069866,8501.396260
1155.744085,1684.961421,4442.171019,9190.698660
1155.744382,2374.263820,8195.039638,10952.249236
1155.744679,2986.977064,10722.481770,9420.466126
1155.744975,2680.620442,10109.768526,9267.287815
1155.745272,-1761.550576,6663.256528,10339.535992
1155.745572,-4978.295107,306.356622,11794.729947
1155.745872,-4748.527641,-4212.403552,12407.443191
1155.746172,-1608.372265,-6586.667373,9650.233593
1155.746472,612.713244,-10952.249236,10799.070925
1155.746772,-1455.193954,-15317.831100,13173.334746
1155.747072,-2374.263820,-14168.993767,13020.156435
1155.747372,2144.496354,-9037.520349,10416.125148
1155.747672,4059.225241,-6586.667373,9267.287815
1155.747979,1531.783110,-3293.333686,9497.055282
1155.748281,1072.248177,2910.387909,9343.876971
1155.748583,2986.977064,9650.233593,8348.217949
1155.748886,3906.046930,13173.334746,8807.752882
1155.749188,-1302.015643,11794.729947,10492.714303
1155.749490,-4595.349330,10875.660081,11947.908258
1155.749792,-2450.852976,8807.752882,10722.481770
1155.750095,-2221.085509,3063.566220,10262.946837
1155.750411,-2450.852976,-4518.760174,12177.675724
1155.750705,-1761.550576,-9497.055282,12101.086569
1155.750998,612.713244,-11564.962480,11794.729947
1155.751292,1991.318043,-13709.458834,10875.660081
1155.751586,-1302.015643,-14015.815456,10722.481770
1155.751879,-76.589155,-11718.140791,10799.070925
1155.752173,-76.589155,-7352.558928,9803.411904
1155.752467,1531.783110,-536.124088,8960.931193
1155.752785,2144.496354,6663.256528,7735.504705
1155.753083,2144.496354,11028.838392,8960.931193
1155.753382,459.534933,14398.761234,10569.303459
1155.753680,-995.659021,15853.955188,9267.287815
1155.753978,-842.480710,14475.350389,9267.287815
1155.754276,-1148.837332,8654.574571,9420.466126
1155.754575,-1455.193954,-689.302399,10033.179370
1155.754873,-4442.171019,-10492.714303,13709.458834
1155.755186,-2910.387909,-17002.792521,14858.296167
1155.755484,-1761.550576,-18840.932253,12177.675724
1155.755783,2144.496354,-18534.575631,9573.644437
1155.756081,1838.139732,-15471.009411,9803.411904
1155.756380,-0.000000,-11871.319102,9956.590215
1155.756678,1072.248177,-2680.620442,8654.574571
1155.756977,2986.977064,4442.171019,7888.683016
1155.757275,1991.318043,8654.574571,9114.109504
1155.757575,-229.767466,12254.264880,11335.195014
1155.757875,-689.302399,15700.776877,9956.590215
1155.758175,612.713244,16773.025054,8654.574571
1155.758475,1225.426488,11641.551636,9650.233593
1155.758776,-1455.193954,4135.814397,12713.799813
1155.759076,-2067.907198,-1914.728887,12713.799813
1155.759376,-1455.193954,-5667.597507,12330.854035
1155.759676,-689.302399,-11871.319102,11794.729947
1155.759983,-1148.837332,-16236.900966,10952.249236
1155.760280,-2910.387909,-16543.257588,11488.373325
1155.760577,-2374.263820,-13403.102212,11641.551636
1155.760874,-1608.372265,-8884.342038,11105.427547
1155.761171,3752.868619,153.178311,8960.931193
1155.761468,6739.845684,8654.574571,7582.326394
1155.761765,5054.884263,13786.047990,9420.466126
1155.762061,1225.426488,16926.203365,10952.249236
1155.762376,-689.302399,18764.343097,9880.001059
1155.762679,-0.000000,16619.846743,9114.109504
1155.762983,-3523.101153,8654.574571,10799.070925
1155.763286,-6663.256528,-229.767466,12560.621502
1155.763590,-6510.078217,-6893.023995,12101.086569
1155.763894,-536.124088,-10339.535992,11564.962480
1155.764197,-1302.015643,-15930.544344,11794.729947
1155.764501,-3216.744531,-19300.467186,12254.264880
1155.764768,-229.767466,-16236.900966,10722.481770
1155.765069,2374.263820,-10645.892614,9267.287815
1155.765370,3906.046930,-7352.558928,8118.450483
1155.765671,2527.442131,-2527.442131,8654.574571
1155.765972,5667.597507,5744.186662,8807.752882
1155.766272,5054.884263,11028.838392,9420.466126
1155.766573,2144.496354,12560.621502,8501.396260
1155.766874,-1608.372265,13020.156435,10109.768526
1155.767192,-1761.550576,9956.590215,10722.481770
1155.767489,-4135.814397,4595.349330,10569.303459
1155.767787,-4748.527641,-2067.907198,11028.838392
1155.768085,-4825.116796,-9037.520349,12790.388968
1155.768383,-3676.279464,-14168.993767,14015.815456
1155.768681,-2374.263820,-16543.257588,11794.729947
1155.768978,-1608.372265,-16390.079277,11028.838392
1155.769276,1072.248177,-14551.939545,9803.411904
1155.769576,2986.977064,-9650.233593,9650.233593
1155.769873,5361.240885,-3906.046930,7735.504705
1155.770171,4518.760174,2604.031287,9420.466126
1155.770468,4212.403552,9267.287815,11105.427547
1155.770766,3906.046930,14628.528700,8807.752882
1155.771063,459.534933,17845.273231,10339.535992
1155.771361,153.178311,18304.808164,9803.411904
1155.771658,-2221.085509,14781.707011,9956.590215
1155.771988,-2450.852976,7735.504705,11028.838392
1155.772285,-5284.651729,-1455.193954,12560.621502
1155.772582,-6050.543284,-9343.876971,14475.350389
1155.772879,-3676.279464,-12943.567279,12713.799813
1155.773176,-4442.171019,-15930.544344,11947.908258
1155.773473,-382.945777,-16236.900966,11028.838392
1155.773770,2144.496354,-13403.102212,10186.357681
1155.774067,4365.581863,-6280.310751,8654.574571
1155.774375,5514.419196,1991.318043,7735.504705
1155.774674,7046.202306,9420.466126,8654.574571
1155.774974,5208.062574,14628.528700,8041.861327
1155.775274,612.713244,16160.311810,9267.287815
1155.775574,-4442.171019,15700.776877,10569.303459
1155.775874,-4978.295107,11794.729947,11794.729947
1155.776174,-5284.651729,4978.295107,11258.605858
1155.776474,-4135.814397,-2680.620442,10875.660081
1155.776757,-2910.387909,-8577.985416,12713.799813
1155.777060,-2604.031287,-15317.831100,12713.799813
1155.777363,-382.945777,-17462.327454,11488.373325
1155.777665,2374.263820,-16696.435899,10262.946837
1155.777968,3140.155375,-16849.614210,9803.411904
1155.778271,1991.318043,-13556.280523,9573.644437
1155.778574,2297.674665,-6127.132440,9803.411904
1155.778877,5208.062574,2757.209598,8118.450483
1155.779159,4671.938485,8654.574571,8807.752882
1155.779461,-1608.372265,12101.086569,11488.373325
1155.779762,-3982.636086,14781.707011,10799.070925
1155.780064,-1148.837332,17232.559987,9803.411904
1155.780366,-229.767466,12560.621502,9803.411904
1155.780668,-2604.031287,3676.279464,10416.125148
1155.780970,-2374.263820,-2221.085509,13096.745590
1155.781272,-995.659021,-9497.055282,13479.691368
1155.781562,612.713244,-15624.187722,11182.016703
1155.781861,-1761.550576,-18687.753942,11794.729947
1155.782160,-0.000000,-17615.505765,11488.373325
1155.782459,2374.263820,-13709.458834,9956.590215
1155.782759,3906.046930,-5208.062574,8195.039638
1155.783058,3599.690308,1684.961421,7735.504705
1155.783357,1531.783110,7275.969772,10109.768526
1155.783656,-229.767466,14092.404612,10569.303459
1155.783965,-2604.031287,18457.986475,9573.644437
1155.784264,-2757.209598,19453.645497,8195.039638
1155.784562,-1914.728887,16313.490121,9573.644437
1155.784861,-1761.550576,9267.287815,10262.946837
1155.785159,-3369.922842,-76.589155,11258.605858
1155.785458,-2374.263820,-7812.093861,14628.528700
1155.785756,-3216.744531,-15317.831100,13249.923901
1155.786055,-1148.837332,-18994.110564,10492.714303
1155.786362,306.356622,-19300.467186,9880.001059
1155.786661,1378.604799,-17768.684076,10416.125148
1155.786961,4748.527641,-12484.032346,8424.807105
1155.787261,4748.527641,-4518.760174,7505.737239
1155.787561,5667.597507,2910.387909,8960.931193
1155.787860,3293.333686,8960.931193,10109.768526
1155.788160,1225.426488,14245.582923,9880.001059
1155.788460,-1455.193954,17692.094920,9267.287815
1155.788757,-3523.101153,16313.490121,10262.946837
1155.789057,-5591.008351,11335.195014,12407.443191
1155.789357,-4748.527641,4442.171019,12407.443191
1155.789658,-3676.279464,-2374.263820,13173.334746
1155.789958,-2221.085509,-9343.876971,15241.241944
1155.790258,-536.124088,-14705.117856,10952.249236
1155.790558,-1455.193954,-17768.684076,9956.590215
1155.790859,1225.426488,-17615.505765,11105.427547
1155.791154,919.069866,-18228.219009,11488.373325
1155.791454,5973.954129,-10033.179370,8041.861327
1155.791754,7582.326394,-1148.837332,6663.256528
1155.792054,6586.667373,5897.364973,9267.287815
1155.792354,4059.225241,11947.908258,10186.357681
1155.792655,1378.604799,18304.808164,10033.179370
1155.792955,153.178311,20219.537052,9267.287815
1155.793255,-3216.744531,17538.916609,9956.590215
1155.793543,-4595.349330,11028.838392,11335.195014
1155.793844,-8731.163727,2910.387909,12713.799813
1155.794145,-5897.364973,-4059.225241,15317.831100
1155.794445,-6203.721595,-10799.070925,13096.745590
1155.794746,-4135.814397,-15471.009411,10416.125148
1155.795047,-1302.015643,-16236.900966,9803.411904
1155.795348,919.069866,-16083.722655,10416.125148
1155.795648,4059.225241,-13403.102212,8960.931193
1155.795957,6280.310751,-5973.954129,6663.256528
1155.796257,7275.969772,2604.031287,9267.287815
1155.796556,8041.861327,8960.931193,8348.217949
1155.796856,4059.225241,12713.799813,8041.861327
1155.797155,-1302.015643,15394.420255,9650.233593
1155.797455,-3369.922842,14245.582923,10952.249236
1155.797754,-4135.814397,8807.752882,11182.016703
1155.798053,-3369.922842,3829.457775,10109.768526
1155.798360,-4442.171019,-4518.760174,13862.637145
1155.798658,-5284.651729,-9726.822748,14628.528700
1155.798957,-3369.922842,-13403.102212,11488.373325
1155.799255,-3676.279464,-15777.366033,10109.768526
1155.799553,-2757.209598,-17002.792521,11182.016703
1155.799851,-536.124088,-15011.474478,10875.660081
1155.800149,4748.527641,-7965.272172,7275.969772
1155.800447,6586.667373,-1914.728887,7429.148083
1155.800763,5667.597507,2910.387909,10875.660081
1155.801062,4365.581863,6510.078217,10645.892614
1155.801360,3293.333686,12101.086569,9956.590215
1155.801659,2680.620442,13939.226301,8654.574571
1155.801957,-382.945777,11947.908258,9956.590215
1155.802256,-536.124088,7122.791461,10416.125148
1155.802554,-1608.372265,2144.496354,10722.481770
1155.802853,-3982.636086,-4518.760174,13709.458834
1155.803167,-5744.186662,-11411.784169,14168.993767
1155.803465,-7199.380617,-14322.172078,12637.210657
1155.803764,-4288.992708,-12637.210657,10875.660081
1155.804063,-1302.015643,-10492.714303,10722.481770
1155.804362,1072.248177,-6433.489062,9573.644437
1155.804660,4059.225241,1531.783110,9267.287815
1155.804959,7888.683016,9267.287815,9190.698660
1155.805258,6586.667373,13939.226301,8654.574571
1155.805546,2144.496354,14628.528700,9343.876971
1155.805845,-1608.372265,15394.420255,9573.644437
1155.806144,-2604.031287,11794.729947,11258.605858
1155.806443,-2604.031287,6663.256528,10262.946837
1155.806742,-2604.031287,459.534933,11182.016703
1155.807041,-2910.387909,-4671.938485,12254.264880
1155.807341,-4442.171019,-10952.249236,11641.551636
1155.807640,-2910.387909,-13556.280523,11947.908258
1155.807939,-3369.922842,-15317.831100,11488.373325
1155.808238,-689.302399,-15777.366033,11105.427547
1155.808538,1225.426488,-12177.675724,9956.590215
1155.808837,6280.310751,-5054.884263,7582.326394
1155.809136,8348.217949,459.534933,8195.039638
1155.809435,6280.310751,4825.116796,9726.822748
1155.809735,2833.798753,8348.217949,9650.233593
1155.810034,-3676.279464,8960.931193,10109.768526
1155.810341,-3523.101153,9956.590215,10109.768526
1155.810640,-4595.349330,8348.217949,10416.125148
1155.810939,-3982.636086,3216.744531,10416.125148
1155.811239,-3982.636086,-2221.085509,12024.497413
1155.811538,-3063.566220,-7658.915550,14168.993767
1155.811837,-536.124088,-13096.745590,11641.551636
1155.812136,-229.767466,-14551.939545,10262.946837
1155.812435,306.356622,-15471.009411,10262.946837
1155.812756,1378.604799,-13862.637145,10262.946837
1155.813055,5361.240885,-8577.985416,8654.574571
1155.813355,5973.954129,-1148.837332,8501.396260
1155.813654,4901.705952,3829.457775,10262.946837
1155.813954,3446.511997,11028.838392,9650.233593
1155.814253,459.534933,16926.203365,9420.466126
1155.814553,-2910.387909,17385.738298,10109.768526
1155.814852,-4135.814397,15700.776877,10952.249236
1155.815171,-3676.279464,11488.373325,11028.838392
1155.815465,-1761.550576,4978.295107,9650.233593
1155.815758,-2374.263820,-2833.798753,12560.621502
1155.816052,-4748.527641,-10492.714303,14934.885322
1155.816345,-4135.814397,-15317.831100,11182.016703
1155.816639,-1302.015643,-15930.544344,10722.481770
1155.816932,919.069866,-14858.296167,10262.946837
1155.817226,2144.496354,-10799.070925,9573.644437
1155.817543,2374.263820,-4059.225241,8731.163727
1155.817842,4901.705952,4595.349330,8118.450483
1155.818140,4059.225241,8348.217949,9573.644437
1155.818439,-76.589155,12866.978124,9803.411904
1155.818738,-3216.744531,14245.582923,9650.233593
1155.819036,-2374.263820,13939.226301,10416.125148
1155.819335,-1608.372265,8807.752882,10875.660081
1155.819633,306.356622,2910.387909,10109.768526
1155.819933,-229.767466,-3140.155375,12790.388968
1155.820234,-536.124088,-9497.055282,13632.869679
1155.820535,-76.589155,-14705.117856,12101.086569
1155.820835,-1455.193954,-15624.187722,10569.303459
1155.821136,-229.767466,-15624.187722,10109.768526
1155.821437,-1302.015643,-13709.458834,10262.946837
1155.821737,919.069866,-8118.450483,9267.287815
1155.822038,3906.046930,-0.000000,8884.342038
1155.822345,4518.760174,6050.543284,10109.768526
1155.822641,3293.333686,11794.729947,9803.411904
1155.822938,-382.945777,14398.761234,9956.590215
1155.823234,-2910.387909,14781.707011,10033.179370
1155.823530,-4135.814397,9803.411904,11182.016703
1155.823826,-2604.031287,4135.814397,11028.838392
1155.824123,-3523.101153,-2986.977064,11488.373325
1155.824419,1225.426488,-7658.915550,12101.086569
1155.824727,2680.620442,-11718.140791,11641.551636
1155.825026,1838.139732,-15317.831100,10875.660081
1155.825325,459.534933,-14551.939545,11488.373325
1155.825624,459.534933,-11718.140791,10262.946837
1155.825923,1225.426488,-5361.240885,7812.093861
1155.826221,-229.767466,153.178311,8195.039638
1155.826520,-842.480710,5744.186662,10569.303459
1155.826819,-76.589155,12101.086569,10722.481770
1155.827136,612.713244,16007.133499,9880.001059
1155.827434,-995.659021,16466.668432,9573.644437
1155.827733,-1302.015643,14092.404612,10492.714303
1155.828031,-382.945777,7735.504705,10875.660081
1155.828330,-1608.372265,306.356622,10339.535992
1155.828628,-2067.907198,-6586.667373,12101.086569
1155.828926,-2910.387909,-12637.210657,12407.443191
1155.829225,-1455.193954,-15164.652789,12484.032346
1155.829542,-536.124088,-15930.544344,11028.838392
1155.829840,1378.604799,-14015.815456,9956.590215
1155.830138,765.891555,-10799.070925,10109.768526
1155.830435,2833.798753,-2986.977064,8807.752882
1155.830733,5054.884263,4135.814397,8501.396260
1155.831031,1991.318043,8041.861327,9956.590215
1155.831329,-0.000000,9650.233593,10569.303459
1155.831627,-1302.015643,11641.551636,9573.644437
1155.831927,-229.767466,11641.551636,9573.644437
1155.832227,-1914.728887,6510.078217,10416.125148
1155.832527,-1914.728887,1378.604799,10799.070925
1155.832827,-1455.193954,-3906.046930,12943.567279
1155.833127,-76.589155,-9037.520349,12407.443191
1155.833427,612.713244,-12177.675724,10875.660081
1155.833727,-2757.209598,-15164.652789,10033.179370
1155.834027,-3982.636086,-14551.939545,11105.427547
1155.834317,-3523.101153,-12177.675724,12407.443191
1155.834618,2374.263820,-6280.310751,8348.217949
1155.834920,4365.581863,1684.961421,8654.574571
1155.835221,4671.938485,7735.504705,10339.535992
1155.835522,4212.403552,14398.761234,12024.497413
1155.835824,3906.046930,17232.559987,9956.590215
1155.836125,2833.798753,17538.916609,9114.109504
1155.836426,-2374.263820,12101.086569,12330.854035
1155.836733,-1914.728887,6356.899906,10722.481770
1155.837030,-1148.837332,1225.426488,9956.590215
1155.837328,-536.124088,-5820.775818,11182.016703
1155.837625,-4825.116796,-12484.032346,13249.923901
1155.837922,-5897.364973,-14322.172078,12637.210657
1155.838219,-3982.636086,-12024.497413,10339.535992
1155.838516,-689.302399,-10033.179370,9956.590215
1155.838813,306.356622,-5208.062574,9573.644437
1155.839110,1072.248177,612.713244,9420.466126
1155.839411,4212.403552,7275.969772,8348.217949
1155.839712,5361.240885,10262.946837,9650.233593
1155.840013,919.069866,9956.590215,10416.125148
1155.840314,-4135.814397,7735.504705,10875.660081
1155.840615,-2450.852976,7429.148083,10262.946837
1155.840917,-2374.263820,2297.674665,10262.946837
1155.841218,-1455.193954,-4518.760174,9956.590215
1155.841512,-2450.852976,-8731.163727,12254.264880
1155.841813,-689.302399,-10645.892614,12407.443191
1155.842114,2986.977064,-12943.567279,9956.590215
1155.842415,306.356622,-13249.923901,10109.768526
1155.842716,459.534933,-12484.032346,9880.001059
1155.843017,306.356622,-9190.698660,9650.233593
1155.843318,2144.496354,-4518.760174,9497.055282
1155.843618,3140.155375,1991.318043,9114.109504
1155.843930,3752.868619,6356.899906,10416.125148
1155.844227,1378.604799,10416.125148,11488.373325
1155.844524,-76.589155,11947.908258,9956.590215
1155.844820,-1455.193954,11641.551636,10109.768526
1155.845117,-3829.457775,7888.683016,10875.660081
1155.845414,-2910.387909,2144.496354,10262.946837
1155.845710,-4748.527641,-4059.225241,12101.086569
1155.846007,-3063.566220,-8884.342038,13709.458834
1155.846321,-1608.372265,-12177.675724,12943.567279
1155.846619,153.178311,-12790.388968,10186.357681
1155.846917,1991.318043,-10645.892614,10109.768526
1155.847214,4212.403552,-8118.450483,9650.233593
1155.847512,4059.225241,-1302.015643,8654.574571
1155.847810,4365.581863,4442.171019,9343.876971
1155.848108,2986.977064,9573.644437,9497.055282
1155.848406,612.713244,12713.799813,10722.481770
1155.848713,-1761.550576,14398.761234,9880.001059
1155.849013,-5437.830040,12713.799813,9956.590215
1155.849312,-5437.830040,8348.217949,11182.016703
1155.849612,-2910.387909,3676.279464,10569.303459
1155.849911,-76.589155,-1148.837332,10262.946837
1155.850211,-229.767466,-5973.954129,12254.264880
1155.850511,-0.000000,-10339.535992,13096.745590
1155.850810,2833.798753,-11258.605858,9650.233593
1155.851107,1072.248177,-12177.675724,9650.233593
1155.851410,-689.302399,-13249.923901,10109.768526
1155.851713,-3063.566220,-11258.605858,11641.551636
1155.852016,612.713244,-5667.597507,9420.466126
1155.852319,6586.667373,2297.674665,7735.504705
1155.852621,5208.062574,6816.434839,9956.590215
1155.852924,612.713244,10416.125148,10262.946837
1155.853227,-3063.566220,13173.334746,10109.768526
1155.853522,-3216.744531,13632.869679,9956.590215
1155.853822,-6203.721595,8501.396260,11258.605858
1155.854122,-8424.807105,-842.480710,12790.388968
1155.854422,-6816.434839,-4901.705952,12560.621502
1155.854723,2374.263820,-9037.520349,11794.729947
1155.855023,3906.046930,-15011.474478,11258.605858
1155.855323,-382.945777,-18534.575631,12943.567279
1155.855623,3140.155375,-15164.652789,10492.714303
1155.855911,7735.504705,-9726.822748,7735.504705
1155.856212,7275.969772,-4365.581863,7429.148083
1155.856513,2986.977064,153.178311,8654.574571
1155.856814,765.891555,7888.683016,10262.946837
1155.857114,2527.442131,13786.047990,9573.644437
1155.857415,-76.589155,14628.528700,9803.411904
1155.857716,-6356.899906,13939.226301,12254.264880
1155.858017,-6203.721595,12560.621502,10799.070925
1155.858326,-4595.349330,7735.504705,9803.411904
1155.858625,-4978.295107,-0.000000,12024.497413
1155.858924,-6050.543284,-7812.093861,14628.528700
1155.859223,-3369.922842,-11105.427547,13556.280523
1155.859521,765.891555,-12484.032346,11335.195014
1155.859820,3599.690308,-14168.993767,9726.822748
1155.860119,4748.527641,-13709.458834,9573.644437
1155.860418,4671.938485,-8577.985416,7965.272172
1155.860725,5361.240885,-2374.263820,7046.202306
1155.861023,3906.046930,4978.295107,6893.023995
1155.861320,612.713244,8501.396260,10722.481770
1155.861617,-1914.728887,12713.799813,10262.946837
1155.861915,-3523.101153,15241.241944,10339.535992
1155.862212,-1302.015643,14475.350389,10262.946837
1155.862510,-842.480710,9267.287815,9267.287815
1155.862807,-2450.852976,1684.961421,11335.195014
1155.863123,-3829.457775,-7352.558928,12943.567279
1155.863422,-4825.116796,-13709.458834,14475.350389
1155.863720,-2604.031287,-17462.327454,11794.729947
1155.864019,-3829.457775,-19989.769585,10109.768526
1155.864317,-2450.852976,-19530.234652,11335.195014
1155.864615,-0.000000,-14705.117856,11335.195014
1155.864914,6586.667373,-6739.845684,8041.861327
1155.865212,9114.109504,2757.209598,6816.434839
1155.865527,8195.039638,10109.768526,9956.590215
1155.865826,4901.705952,14934.885322,10262.946837
1155.866126,2680.620442,17845.273231,9497.055282
1155.866425,-689.302399,18151.629853,9573.644437
1155.866725,-6816.434839,11794.729947,13096.745590
1155.867025,-4825.116796,5284.651729,12254.264880
1155.867324,-3369.922842,-382.945777,12177.675724
1155.867624,-1302.015643,-6127.132440,12943.567279
1155.867912,-4978.295107,-14168.993767,13096.745590
1155.868209,-5591.008351,-15164.652789,12943.567279
1155.868507,-1761.550576,-14168.993767,10875.660081
1155.868804,-842.480710,-12943.567279,11028.838392
1155.869102,2297.674665,-7199.380617,9573.644437
1155.869399,4901.705952,459.534933,7122.791461
1155.869697,11182.016703,8041.861327,7046.202306
1155.869994,11028.838392,11488.373325,7582.326394
1155.870294,2986.977064,13632.869679,9573.644437
1155.870594,-3829.457775,14398.761234,10186.357681
1155.870894,-4595.349330,13632.869679,10109.768526
1155.871194,-4978.295107,8195.039638,10722.481770
1155.871494,-7965.272172,-382.945777,11028.838392
1155.871794,-10339.535992,-7658.915550,13862.637145
1155.872094,-4978.295107,-11105.427547,13403.102212
1155.872394,-0.000000,-14858.296167,10416.125148
1155.872701,-536.124088,-16696.435899,11028.838392
1155.873004,459.534933,-16390.079277,10262.946837
1155.873308,3446.511997,-10799.070925,9573.644437
1155.873611,7735.504705,-6127.132440,6816.434839
1155.873914,7888.683016,-382.945777,6663.256528
1155.874218,7888.683016,4748.527641,9956.590215
1155.874521,4901.705952,10875.660081,10109.768526
1155.874824,2527.442131,13173.334746,9573.644437
1155.875145,-536.124088,14245.582923,8041.861327
1155.875442,-5744.186662,11028.838392,10262.946837
1155.875739,-10033.179370,3829.457775,13556.280523
1155.876036,-12713.799813,-4059.225241,14168.993767
1155.876333,-10339.535992,-9343.876971,16466.668432
1155.876630,-5897.364973,-13249.923901,14092.404612
1155.876927,-382.945777,-14475.350389,10722.481770
1155.877224,4365.581863,-13709.458834,9803.411904
1155.877543,9114.109504,-11871.319102,9267.287815
1155.877836,10416.125148,-5361.240885,7658.915550
1155.878128,10569.303459,306.356622,6663.256528
1155.878421,7275.969772,5131.473418,9114.109504
1155.878714,4518.760174,11488.373325,10109.768526
1155.879007,2374.263820,16773.025054,9650.233593
1155.879300,-1608.372265,18457.986475,9803.411904
1155.879592,-6050.543284,15394.420255,11182.016703
1155.879910,-9497.055282,10109.768526,12790.388968
1155.880208,-10339.535992,3676.279464,13096.745590
1155.880507,-11411.784169,-2680.620442,15011.474478
1155.880805,-10645.892614,-8271.628794,15394.420255
1155.881104,-4442.171019,-11564.962480,10722.481770
1155.881402,1225.426488,-12177.675724,9190.698660
1155.881701,7046.202306,-14015.815456,10033.179370
1155.882000,9497.055282,-12637.210657,9190.698660
1155.882299,14551.939545,-5973.954129,6280.310751
1155.882597,14858.296167,765.891555,5514.419196
1155.882894,9650.233593,6663.256528,8041.861327
1155.883192,765.891555,10569.303459,9803.411904
1155.883489,-6050.543284,14628.528700,9956.590215
1155.883787,-9880.001059,14628.528700,11641.551636
1155.884084,-14322.172078,10109.768526,12713.799813
1155.884382,-11258.605858,4442.171019,12560.621502
1155.884712,-10799.070925,-2374.263820,13403.102212
1155.885009,-5437.830040,-7965.272172,15164.652789
1155.885306,-229.767466,-12484.032346,12407.443191
1155.885603,2144.496354,-15317.831100,10645.892614
1155.885900,5208.062574,-16083.722655,9573.644437
1155.886197,6739.845684,-16849.614210,9267.287815
1155.886494,9420.466126,-12484.032346,7122.791461
1155.886790,11335.195014,-6586.667373,5284.651729
1155.887098,9420.466126,-0.000000,7505.737239
1155.887398,5361.240885,6050.543284,9956.590215
1155.887698,-229.767466,11794.729947,9880.001059
1155.887998,-4442.171019,15700.776877,10033.179370
1155.888298,-9190.698660,15394.420255,12407.443191
1155.888598,-12407.443191,9803.411904,12790.388968
1155.888897,-11105.427547,3982.636086,13096.745590
1155.889197,-6969.613150,-689.302399,14168.993767
1155.889480,-2910.387909,-6127.132440,13249.923901
1155.889785,306.356622,-10799.070925,11794.729947
1155.890090,4748.527641,-12024.497413,9956.590215
1155.890395,9114.109504,-12177.675724,8424.807105
1155.890700,7582.326394,-11258.605858,8577.985416
1155.891004,6586.667373,-5667.597507,6969.613150
1155.891309,7275.969772,2297.674665,7275.969772
1155.891614,3906.046930,6356.899906,10339.535992
1155.891931,-0.000000,10416.125148,10875.660081
1155.892228,-3216.744531,15700.776877,9956.590215
1155.892525,-2450.852976,17538.916609,9114.109504
1155.892821,-4442.171019,13939.226301,9803.411904
1155.893118,-6356.899906,7888.683016,11182.016703
1155.893415,-8271.628794,-0.000000,13786.047990
1155.893711,-8271.628794,-6586.667373,15394.420255
1155.894008,-4748.527641,-11871.319102,12713.799813
1155.894298,-3523.101153,-15930.544344,11182.016703
1155.894597,-842.480710,-18228.219009,11794.729947
1155.894896,3140.155375,-17462.327454,9650.233593
1155.895195,7582.326394,-12024.497413,8271.628794
1155.895494,10109.768526,-4518.760174,5973.954129
1155.895793,10416.125148,3216.744531,7888.683016
1155.896093,8041.861327,9956.590215,8731.163727
1155.896392,4365.581863,14245.582923,8195.039638
1155.896678,-842.480710,15547.598566,9803.411904
1155.896977,-5284.651729,13326.513057,11794.729947
1155.897276,-8424.807105,7582.326394,12407.443191
1155.897576,-8731.163727,306.356622,12943.567279
1155.897875,-9190.698660,-5820.775818,15241.241944
1155.898174,-8424.807105,-11105.427547,13939.226301
1155.898474,-6969.613150,-14705.117856,12177.675724
1155.898773,-2450.852976,-15777.366033,10722.481770
1155.899080,2680.620442,-15471.009411,11028.838392
1155.899381,6280.310751,-13403.102212,9420.466126
1155.899681,10722.481770,-6127.132440,6127.132440
1155.899982,13556.280523,1684.961421,7735.504705
1155.900283,12177.675724,7275.969772,7582.326394
1155.900583,7046.202306,12713.799813,8960.931193
1155.900884,-382.945777,16466.668432,9803.411904
1155.901184,-3063.566220,18764.343097,9880.001059
1155.901481,-5131.473418,13939.226301,11182.016703
1155.901781,-7658.915550,7888.683016,11488.373325
1155.902081,-10492.714303,-536.124088,14168.993767
1155.902382,-11105.427547,-7046.202306,15853.955188
1155.902682,-6816.434839,-11564.962480,13403.102212
1155.902982,-3523.101153,-13249.923901,10416.125148
1155.903283,-1302.015643,-14015.815456,10262.946837
1155.903583,2144.496354,-12637.210657,9726.822748
1155.903878,7046.202306,-9037.520349,7275.969772
1155.904179,11335.195014,-2527.442131,6816.434839
1155.904480,10875.660081,3216.744531,7275.969772
1155.904781,5361.240885,7429.148083,9573.644437
1155.905081,1378.604799,11947.908258,10109.768526
1155.905382,612.713244,14245.582923,9573.644437
1155.905683,-2374.263820,12560.621502,10186.357681
1155.905984,-4595.349330,6356.899906,11182.016703
1155.906272,-7505.737239,-229.767466,11641.551636
1155.906573,-5284.651729,-6433.489062,13403.102212
1155.906874,-6663.256528,-13096.745590,14168.993767
1155.907175,-7505.737239,-16696.435899,12790.388968
1155.907475,-4288.992708,-16390.079277,11641.551636
1155.907776,1225.426488,-13862.637145,9650.233593
1155.908077,3752.868619,-10952.249236,8654.574571
1155.908378,4212.403552,-6586.667373,8807.752882
1155.908687,7046.202306,-229.767466,8960.931193
1155.908986,7429.148083,5284.651729,9573.644437
1155.909286,6893.023995,8960.931193,9267.287815
1155.909585,2986.977064,12560.621502,9573.644437
1155.909885,1684.961421,14092.404612,9343.876971
1155.910184,-536.124088,10416.125148,9803.411904
1155.910483,-3676.279464,4595.349330,10416.125148
1155.910783,-7199.380617,-1608.372265,13862.637145
1155.911090,-9573.644437,-6433.489062,15241.241944
1155.911389,-6969.613150,-10799.070925,11794.729947
1155.911689,-4978.295107,-11564.962480,11641.551636
1155.911989,-536.124088,-9880.001059,11182.016703
1155.912288,1991.318043,-9343.876971,10875.660081
1155.912588,5361.240885,-4518.760174,8271.628794
1155.912888,8041.861327,919.069866,8195.039638
1155.913187,7275.969772,7429.148083,10339.535992
1155.913484,4671.938485,10875.660081,8807.752882
1155.913781,765.891555,12866.978124,9420.466126
1155.914079,-229.767466,13326.513057,9420.466126
1155.914376,-1761.550576,12101.086569,11028.838392
1155.914673,-1914.728887,6969.613150,10033.179370
1155.914971,-4135.814397,2757.209598,10722.481770
1155.915268,-6510.078217,-4825.116796,13403.102212
1155.915566,-5284.651729,-9650.233593,12254.264880
1155.915845,-6969.613150,-13403.102212,12330.854035
1155.916149,-4825.116796,-14551.939545,11947.908258
1155.916452,-1455.193954,-14168.993767,11564.962480
1155.916756,3293.333686,-10645.892614,9267.287815
1155.917060,8654.574571,-5208.062574,7888.683016
1155.917363,10262.946837,919.069866,8041.861327
1155.917667,8195.039638,6050.543284,9037.520349
1155.917971,4518.760174,8654.574571,9114.109504
1155.918283,-0.000000,10569.303459,9803.411904
1155.918583,-2910.387909,9114.109504,9956.590215
1155.918882,-7122.791461,3982.636086,11258.605858
1155.919182,-7812.093861,-2986.977064,12101.086569
1155.919482,-5591.008351,-5054.884263,13020.156435
1155.919782,-4748.527641,-9726.822748,13556.280523
1155.920082,-2604.031287,-12637.210657,11335.195014
1155.920382,612.713244,-12484.032346,10952.249236
1155.920682,5667.597507,-10952.249236,9497.055282
1155.920981,7275.969772,-10339.535992,8577.985416
1155.921280,6893.023995,-4901.705952,6969.613150
1155.921579,6586.667373,612.713244,8960.931193
1155.921879,4059.225241,5897.364973,10416.125148
1155.922178,-1148.837332,9114.109504,11488.373325
1155.922477,-4442.171019,11947.908258,10569.303459
1155.922776,-2757.209598,14781.707011,8654.574571
1155.923084,-4288.992708,12101.086569,10262.946837
1155.923384,-4978.295107,5437.830040,10952.249236
1155.923685,-4595.349330,1072.248177,13556.280523
1155.923986,-536.124088,-4518.760174,13862.637145
1155.924286,1378.604799,-9726.822748,10109.768526
1155.924587,-76.589155,-14168.993767,10416.125148
1155.924888,306.356622,-14015.815456,9803.411904
1155.925189,2374.263820,-11718.140791,10416.125148
1155.925458,3293.333686,-9497.055282,8807.752882
1155.925759,765.891555,-2986.977064,9956.590215
1155.926059,459.534933,3982.636086,11335.195014
1155.926359,765.891555,10569.303459,10262.946837
1155.926660,-0.000000,13939.226301,9573.644437
1155.926960,-842.480710,16313.490121,9267.287815
1155.927260,-842.480710,13632.869679,10416.125148
1155.927561,-842.480710,8654.574571,10109.768526
1155.927908,612.713244,612.713244,11335.195014
1155.928203,-842.480710,-5208.062574,13709.458834
1155.928498,-842.480710,-11871.319102,13403.102212
1155.928793,-995.659021,-14322.172078,11182.016703
1155.929088,919.069866,-14322.172078,9650.233593
1155.929382,-382.945777,-14168.993767,9803.411904
1155.929677,-3829.457775,-13862.637145,10875.660081
1155.929972,-3216.744531,-8884.342038,10569.303459
1155.930285,1991.318043,-0.000000,9573.644437
1155.930581,2680.620442,4748.527641,10875.660081
1155.930877,2833.798753,9420.466126,9956.590215
1155.931174,3140.155375,13786.047990,9573.644437
1155.931470,5054.884263,15088.063633,8654.574571
1155.931766,4059.225241,10722.481770,8501.396260
1155.932062,-2221.085509,3829.457775,11028.838392
1155.932358,-2910.387909,-1914.728887,12254.264880
1155.932623,-4135.814397,-7352.558928,12713.799813
1155.932928,-2221.085509,-11871.319102,12101.086569
1155.933233,-3829.457775,-14858.296167,12101.086569
1155.933538,-995.659021,-12637.210657,10799.070925
1155.933843,1072.248177,-8118.450483,10109.768526
1155.934147,1991.318043,-4671.938485,8424.807105
1155.934452,1378.604799,-76.589155,9573.644437
1155.934757,1072.248177,6663.256528,10952.249236
1155.935065,1531.783110,10722.481770,9956.590215
1155.935365,-842.480710,12866.978124,8807.752882
1155.935665,-995.659021,12560.621502,9573.644437
1155.935965,153.178311,9114.109504,10722.481770
1155.936265,-0.000000,3523.101153,10722.481770
1155.936566,-229.767466,-1148.837332,11564.962480
1155.936866,153.178311,-5208.062574,11182.016703
1155.937166,-536.124088,-9190.698660,11335.195014
1155.937480,-2067.907198,-12790.388968,10799.070925
1155.937780,-3369.922842,-14015.815456,10416.125148
1155.938079,-3063.566220,-12637.210657,11335.195014
1155.938378,-1761.550576,-9190.698660,8884.342038
1155.938678,2297.674665,-3446.511997,8424.807105
1155.938977,4212.403552,3063.566220,10569.303459
1155.939277,4518.760174,8654.574571,10799.070925
1155.939576,3906.046930,12713.799813,9573.644437
1155.939924,1378.604799,13479.691368,9420.466126
1155.940216,-382.945777,9956.590215,9420.466126
1155.940509,-2910.387909,3829.457775,11182.016703
1155.940802,-4825.116796,-2221.085509,11028.838392
1155.941095,-2910.387909,-6433.489062,12024.497413
1155.941387,-2604.031287,-10492.714303,13326.513057
1155.941680,-1302.015643,-12790.388968,12101.086569
1155.941973,-1761.550576,-12637.210657,10569.303459
1155.942290,-1914.728887,-11718.140791,10875.660081
1155.942584,-842.480710,-8271.628794,9650.233593
1155.942879,-76.589155,-3752.868619,9037.520349
1155.943173,2680.620442,2757.209598,9497.055282
1155.943468,5208.062574,8501.396260,10416.125148
1155.943762,4748.527641,11028.838392,11641.551636
1155.944057,3293.333686,13020.156435,9956.590215
1155.944351,4671.938485,14092.404612,8271.628794
1155.944651,1378.604799,10416.125148,9650.233593
1155.944951,-2067.907198,2450.852976,11182.016703
1155.945251,-4748.527641,-2374.263820,12254.264880
1155.945551,-3523.101153,-5820.775818,13020.156435
1155.945851,-1914.728887,-9650.233593,11488.373325
1155.946151,-4442.171019,-11411.784169,11641.551636
1155.946451,-3216.744531,-10033.179370,12254.264880
1155.946751,-689.302399,-7812.093861,9573.644437
1155.947081,1072.248177,-4671.938485,9650.233593
1155.947378,1378.604799,459.534933,9573.644437
1155.947675,1991.318043,5131.473418,10262.946837
1155.947972,2680.620442,10262.946837,10262.946837
1155.948269,1991.318043,9650.233593,9650.233593
1155.948566,-842.480710,9267.287815,9726.822748
1155.948863,-382.945777,6510.078217,9573.644437
1155.949160,-1608.372265,1225.426488,8654.574571
1155.949468,-2604.031287,-5514.419196,10722.481770
1155.949768,-4442.171019,-10952.249236,12713.799813
1155.950068,-1302.015643,-12943.567279,12101.086569
1155.950367,-382.945777,-12637.210657,10569.303459
1155.950667,765.891555,-12943.567279,9573.644437
1155.950967,2833.798753,-10645.892614,10262.946837
1155.951267,4365.581863,-7352.558928,9420.466126
1155.951567,5054.884263,-3599.690308,7888.683016
1155.951848,4671.938485,1225.426488,9573.644437
1155.952152,2833.798753,6356.899906,10569.303459
1155.952456,-229.767466,9267.287815,10569.303459
1155.952761,-5744.186662,8960.931193,11488.373325
1155.953065,-5131.473418,8348.217949,10722.481770
1155.953369,-5744.186662,5284.651729,11641.551636
1155.953673,-3369.922842,-536.124088,10262.946837
1155.953977,-1914.728887,-4825.116796,10722.481770
1155.954294,-536.124088,-7505.737239,13403.102212
1155.954591,1378.604799,-9726.822748,11182.016703
1155.954889,1225.426488,-9650.233593,10722.481770
1155.955186,2986.977064,-7658.915550,9956.590215
1155.955484,3906.046930,-5054.884263,9803.411904
1155.955781,4901.705952,-2374.263820,8348.217949
1155.956078,4748.527641,3216.744531,8654.574571
1155.956376,3752.868619,6816.434839,11488.373325
1155.956666,1072.248177,10722.481770,11947.908258
1155.956962,-3216.744531,12713.799813,10722.481770
1155.957257,-4135.814397,13020.156435,9956.590215
1155.957553,-6356.899906,9573.644437,10645.892614
1155.957849,-6050.543284,3676.279464,11488.373325
1155.958145,-4825.116796,-995.659021,11564.962480
1155.958441,-536.124088,-4518.760174,12713.799813
1155.958736,1531.783110,-9343.876971,12024.497413
1155.959046,1838.139732,-10799.070925,11258.605858
1155.959347,1072.248177,-10952.249236,9956.590215
1155.959648,1531.783110,-8118.450483,9726.822748
1155.959950,2374.263820,-4901.705952,8501.396260
1155.960251,2144.496354,-842.480710,8041.861327
1155.960552,1072.248177,2757.209598,10109.768526
1155.960854,306.356622,6050.543284,10569.303459
1155.961155,-536.124088,9803.411904,11028.838392
1155.961462,-2910.387909,9267.287815,9573.644437
1155.961762,-1302.015643,8195.039638,9343.876971
1155.962062,-1608.372265,4442.171019,10416.125148
1155.962361,-842.480710,-1914.728887,9726.822748
1155.962661,153.178311,-6586.667373,11182.016703
1155.962961,765.891555,-10952.249236,12254.264880
1155.963261,1072.248177,-15011.474478,11258.605858
1155.963560,-76.589155,-16696.435899,10186.357681
1155.963855,-382.945777,-14322.172078,10262.946837
1155.964154,-229.767466,-10799.070925,10262.946837
1155.964453,-382.945777,-3599.690308,8807.752882
1155.964752,2297.674665,4135.814397,8654.574571
1155.965051,2144.496354,9114.109504,10262.946837
1155.965350,-842.480710,11182.016703,11488.373325
1155.965649,-1761.550576,14245.582923,10569.303459
1155.965949,153.178311,14245.582923,9573.644437
1155.966243,612.713244,12254.264880,10722.481770
1155.966544,306.356622,5437.830040,9650.233593
1155.966844,-3523.101153,-1761.550576,12024.497413
1155.967144,-2604.031287,-7812.093861,13556.280523
1155.967444,-2221.085509,-11411.784169,12790.388968
1155.967744,-3676.279464,-15471.009411,11947.908258
1155.968044,-842.480710,-14015.815456,9803.411904
1155.968344,1378.604799,-12177.675724,9803.411904
1155.968632,1991.318043,-7965.272172,11182.016703
1155.968933,1838.139732,-1302.015643,9803.411904
1155.969234,2144.496354,6510.078217,9956.590215
1155.969535,4518.760174,13632.869679,8654.574571
1155.969836,2297.674665,16313.490121,8348.217949
1155.970137,-1455.193954,16160.311810,9343.876971
1155.970437,-229.767466,14398.761234,9114.109504
1155.970738,-0.000000,6356.899906,10262.946837
1155.971048,-3829.457775,-3599.690308,11794.729947
1155.971347,-2604.031287,-10492.714303,13403.102212
1155.971646,-2374.263820,-14551.939545,12713.799813
1155.971946,-229.767466,-16696.435899,10109.768526
1155.972245,-3216.744531,-19147.288875,10722.481770
1155.972544,-2221.085509,-14858.296167,10186.357681
1155.972843,-382.945777,-9497.055282,9956.590215
1155.973143,-0.000000,-4212.403552,9573.644437
1155.973450,4671.938485,2757.209598,9267.287815
1155.973748,7275.969772,11182.016703,9573.644437
1155.974046,5667.597507,14245.582923,7965.272172
1155.974344,459.534933,15547.598566,9114.109504
1155.974642,-2604.031287,13020.156435,11411.784169
1155.974941,-2910.387909,9803.411904,11182.016703
1155.975239,-1455.193954,3829.457775,10416.125148
1155.975537,-4595.349330,-3140.155375,11641.551636
1155.975853,-3523.101153,-9726.822748,13249.923901
1155.976152,-1455.193954,-13096.745590,12790.388968
1155.976450,-689.302399,-15011.474478,11871.319102
1155.976748,-382.945777,-15164.652789,11182.016703
1155.977047,1378.604799,-9880.001059,9803.411904
1155.977345,4365.581863,-3599.690308,8195.039638
1155.977644,3752.868619,459.534933,8807.752882
1155.977942,1072.248177,6050.543284,11182.016703
1155.978256,612.713244,12407.443191,12024.497413
1155.978555,1838.139732,16007.133499,8807.752882
1155.978854,1378.604799,16926.203365,8501.396260
1155.979153,-2604.031287,12101.086569,9803.411904
1155.979451,-4748.527641,5744.186662,10109.768526
1155.979750,-6969.613150,-995.659021,12101.086569
1155.980049,-4825.116796,-8118.450483,12101.086569
1155.980347,-5591.008351,-14475.350389,13479.691368
1155.980636,-2757.209598,-15930.544344,12101.086569
1155.980935,919.069866,-16390.079277,9803.411904
1155.981235,4518.760174,-14551.939545,9114.109504
1155.981535,4518.760174,-11718.140791,9420.466126
1155.981835,4671.938485,-6586.667373,8348.217949
1155.982135,6739.845684,765.891555,8041.861327
1155.982435,6127.132440,5897.364973,9190.698660
1155.982735,2297.674665,9267.287815,9267.287815
1155.983035,-995.659021,11947.908258,8577.985416
1155.983334,-229.767466,12713.799813,8271.628794
1155.983633,-4978.295107,7888.683016,11028.838392
1155.983932,-7965.272172,-76.589155,12790.388968
1155.984231,-8424.807105,-4518.760174,13709.458834
1155.984531,-4595.349330,-8118.450483,13249.923901
1155.984830,-1761.550576,-13096.745590,11028.838392
1155.985129,-2757.209598,-16390.079277,12101.086569
1155.985436,2374.263820,-14858.296167,9956.590215
1155.985735,4748.527641,-13249.923901,8960.931193
1155.986035,7582.326394,-8731.163727,7582.326394
1155.986334,7275.969772,-2527.442131,8654.574571
1155.986633,5973.954129,4825.116796,10262.946837
1155.986932,3599.690308,12101.086569,11335.195014
1155.987232,306.356622,14781.707011,10799.070925
1155.987531,-1455.193954,17845.273231,10186.357681
1155.987852,-2450.852976,17232.559987,10033.179370
1155.988152,-3369.922842,10416.125148,9956.590215
1155.988452,-6203.721595,2604.031287,12177.675724
1155.988753,-6663.256528,-3293.333686,14628.528700
1155.989053,-4595.349330,-9650.233593,12943.567279
1155.989353,-4595.349330,-13709.458834,12637.210657
1155.989654,-1608.372265,-13403.102212,10722.481770
1155.989954,1072.248177,-13709.458834,11411.784169
1155.990273,4212.403552,-9726.822748,8960.931193
1155.990566,7275.969772,-5820.775818,8195.039638
1155.990860,7888.683016,765.891555,8960.931193
1155.991153,6739.845684,7735.504705,9420.466126
1155.991447,2680.620442,11947.908258,9114.109504
1155.991740,-2374.263820,13479.691368,8807.752882
1155.992034,-3216.744531,13326.513057,9650.233593
1155.992328,-4135.814397,11182.016703,9956.590215
1155.992645,-5897.364973,3676.279464,10339.535992
1155.992941,-6203.721595,-5208.062574,12790.388968
1155.993237,-4825.116796,-11564.962480,13096.745590
1155.993533,-2067.907198,-15930.544344,12024.497413
1155.993829,153.178311,-17768.684076,9650.233593
1155.994125,2297.674665,-17921.862387,10722.481770
1155.994421,3599.690308,-16390.079277,9956.590215
1155.994717,5361.240885,-10799.070925,8807.752882
1155.995016,7122.791461,-2680.620442,7735.504705
1155.995317,5973.954129,2450.852976,8807.752882
1155.995618,2144.496354,6510.078217,10569.303459
1155.995919,-842.480710,11488.373325,10722.481770
1155.996220,-1761.550576,14398.761234,9573.644437
1155.996520,-4135.814397,13173.334746,9573.644437
1155.996821,-5591.008351,8041.861327,11335.195014
1155.997122,-6203.721595,1991.318043,12560.621502
1155.997429,-4442.171019,-2833.798753,14168.993767
1155.997726,-2067.907198,-7658.915550,13556.280523
1155.998023,-0.000000,-12330.854035,11488.373325
1155.998320,2833.798753,-13403.102212,10186.357681
1155.998617,5054.884263,-14705.117856,10109.768526
1155.998914,4518.760174,-10492.714303,9420.466126
1155.999210,5208.062574,-5820.775818,9190.698660
1155.999507,5054.884263,919.069866,8960.931193
1155.999815,3446.511997,8501.396260,9956.590215
1156.000114,-76.589155,14398.761234,9573.644437
1156.000413,-2604.031287,17232.559987,8960.931193
1156.000712,-3523.101153,17385.738298,11182.016703
1156.001011,-4442.171019,14092.404612,10109.768526
1156.001310,-6203.721595,8654.574571,11411.784169
1156.001609,-8424.807105,-76.589155,12790.388968
1156.001908,-7199.380617,-7965.272172,14781.707011
1156.002225,-4825.116796,-14015.815456,13096.745590
1156.002524,-382.945777,-16696.435899,10109.768526
1156.002823,2986.977064,-15930.544344,8884.342038
1156.003122,6739.845684,-16083.722655,8041.861327
1156.003421,6127.132440,-12943.567279,8424.807105
1156.003721,8348.217949,-4212.403552,8041.861327
1156.004020,7122.791461,3369.922842,9114.109504
1156.004319,3140.155375,7888.683016,9726.822748
1156.004636,153.178311,13173.334746,9343.876971
1156.004934,-0.000000,16926.203365,9114.109504
1156.005232,-3523.101153,13173.334746,9497.055282
1156.005530,-7505.737239,5284.651729,12024.497413
1156.005827,-12254.264880,-2680.620442,16083.722655
1156.006125,-7965.272172,-5820.775818,15011.474478
1156.006423,-3369.922842,-9190.698660,13173.334746
1156.006721,-3676.279464,-14015.815456,11641.551636
1156.007021,459.534933,-15164.652789,10722.481770
1156.007320,2833.798753,-14475.350389,10416.125148
1156.007619,8654.574571,-9880.001059,8654.574571
1156.007918,9497.055282,-8271.628794,8807.752882
1156.008217,10569.303459,-76.589155,7888.683016
1156.008516,9956.590215,8195.039638,8041.861327
1156.008816,4518.760174,13173.334746,8884.342038
1156.009115,-2221.085509,15088.063633,11028.838392
1156.009429,-6816.434839,15394.420255,11794.729947
1156.009727,-7122.791461,12560.621502,10109.768526
1156.010026,-9573.644437,7122.791461,12560.621502
1156.010325,-10952.249236,-2067.907198,14551.939545
1156.010623,-8884.342038,-6739.845684,14781.707011
1156.010922,-3982.636086,-9037.520349,11947.908258
1156.011221,-1302.015643,-12177.675724,9803.411904
1156.011519,1531.783110,-13403.102212,10416.125148
1156.011826,4901.705952,-11258.605858,8960.931193
1156.012124,8654.574571,-6893.023995,7275.969772
1156.012421,10416.125148,-2221.085509,6816.434839
1156.012718,8348.217949,2757.209598,8960.931193
1156.013015,4518.760174,8041.861327,9420.466126
1156.013313,1838.139732,11488.373325,9114.109504
1156.013610,-229.767466,14092.404612,8654.574571
1156.013907,-4288.992708,11794.729947,10569.303459
1156.014204,-6356.899906,5744.186662,11335.195014
1156.014505,-9037.520349,-536.124088,12943.567279
1156.014806,-9880.001059,-6127.132440,15930.544344
1156.015107,-6969.613150,-10492.714303,14015.815456
1156.015408,-3829.457775,-11258.605858,11105.427547
1156.015709,1838.139732,-11718.140791,9037.520349
1156.016010,2986.977064,-13403.102212,9114.109504
1156.016311,3906.046930,-12484.032346,8960.931193
1156.016606,8654.574571,-6433.489062,7888.683016
1156.016907,11641.551636,306.356622,7888.683016
1156.017208,9114.109504,5744.186662,8807.752882
1156.017509,1225.426488,8041.861327,11947.908258
1156.017810,-382.945777,11947.908258,10722.481770
1156.018110,-2221.085509,12866.978124,9956.590215
1156.018411,-4748.527641,9573.644437,9956.590215
1156.018712,-7505.737239,3829.457775,11718.140791
1156.019000,-6663.256528,-229.767466,12943.567279
1156.019301,-4595.349330,-3140.155375,13403.102212
1156.019602,-5437.830040,-8118.450483,12790.388968
1156.019903,-4978.295107,-10339.535992,12790.388968
1156.020203,765.891555,-10339.535992,10569.303459
1156.020504,4901.705952,-7965.272172,8195.039638
1156.020805,5973.954129,-5667.597507,8195.039638
1156.021106,6893.023995,-995.659021,8884.342038
1156.021419,6586.667373,4978.295107,9497.055282
1156.021718,4901.705952,9420.466126,8654.574571
1156.022017,-229.767466,12866.978124,9803.411904
1156.022316,-3829.457775,12254.264880,10569.303459
1156.022614,-3829.457775,9650.233593,10109.768526
1156.022913,-3523.101153,6356.899906,10109.768526
1156.023212,-4595.349330,459.534933,11105.427547
1156.023511,-6510.078217,-5973.954129,14015.815456
1156.023818,-5284.651729,-10645.892614,13556.280523
1156.024117,-4825.116796,-12943.567279,12330.854035
1156.024417,306.356622,-12790.388968,10722.481770
1156.024717,3140.155375,-11411.784169,8195.039638
1156.025016,5361.240885,-9037.520349,7582.326394
1156.025316,7582.326394,-4825.116796,7735.504705
1156.025616,5514.419196,-229.767466,9956.590215
1156.025915,3293.333686,4288.992708,10262.946837
1156.026212,459.534933,8960.931193,9726.822748
1156.026509,-1455.193954,11794.729947,10262.946837
1156.026807,-3369.922842,11488.373325,10569.303459
1156.027104,-5897.364973,8654.574571,11028.838392
1156.027401,-7199.380617,2297.674665,12101.086569
1156.027699,-5131.473418,-2986.977064,13249.923901
1156.027996,-2910.387909,-9343.876971,13249.923901
1156.028294,-689.302399,-12024.497413,10875.660081
1156.028608,2833.798753,-13096.745590,9267.287815
1156.028906,3599.690308,-14858.296167,10875.660081
1156.029205,6586.667373,-11258.605858,9803.411904
1156.029504,7888.683016,-6127.132440,8348.217949
1156.029803,6586.667373,306.356622,7429.148083
1156.030101,2297.674665,5284.651729,10186.357681
1156.030400,-229.767466,10109.768526,11028.838392
1156.030699,-2067.907198,13632.869679,9573.644437
1156.031011,-1914.728887,14245.582923,10109.768526
1156.031307,-3676.279464,11794.729947,9956.590215
1156.031604,-4595.349330,6050.543284,12407.443191
1156.031900,-3369.922842,-1302.015643,13709.458834
1156.032197,-3216.744531,-5208.062574,13862.637145
1156.032494,306.356622,-8424.807105,10875.660081
1156.032790,2297.674665,-11564.962480,6663.256528
1156.033087,2680.620442,-12484.032346,8654.574571
1156.033387,1991.318043,-12943.567279,9267.287815
1156.033687,-1608.372265,-10645.892614,10569.303459
1156.033987,-689.302399,-4825.116796,12254.264880
1156.034287,1225.426488,3063.566220,9726.822748
1156.034587,459.534933,8501.396260,9956.590215
1156.034887,-842.480710,12866.978124,8348.217949
1156.035187,-1455.193954,13939.226301,8577.985416
1156.035487,-995.659021,13020.156435,11488.373325
1156.035794,-1761.550576,7429.148083,10722.481770
1156.036095,-3063.566220,919.069866,12101.086569
1156.036397,-689.302399,-4365.581863,12713.799813
1156.036698,-229.767466,-10645.892614,12866.978124
1156.037000,-229.767466,-12790.388968,11028.838392
1156.037301,919.069866,-13556.280523,9420.466126
1156.037603,1225.426488,-13862.637145,10186.357681
1156.037904,1531.783110,-11564.962480,9420.466126
1156.038221,153.178311,-5973.954129,12101.086569
1156.038519,2144.496354,306.356622,10109.768526
1156.038817,2527.442131,7122.791461,9037.520349
1156.039116,1684.961421,11028.838392,10645.892614
1156.039414,459.534933,14245.582923,9420.466126
1156.039713,-0.000000,12866.978124,10492.714303
1156.040011,-842.480710,10416.125148,9956.590215
1156.040310,-1148.837332,4748.527641,10416.125148
1156.040624,-3676.279464,-1455.193954,11947.908258
1156.040919,-3982.636086,-7352.558928,13556.280523
1156.041214,-3216.744531,-10033.179370,12484.032346
1156.041509,-2374.263820,-11718.140791,11105.427547
1156.041804,1531.783110,-10492.714303,10722.481770
1156.042098,2986.977064,-8271.628794,9037.520349
1156.042393,4518.760174,-3752.868619,7735.504705
1156.042688,3446.511997,1838.139732,7965.272172
1156.043001,1378.604799,5591.008351,10875.660081
1156.043300,-995.659021,8960.931193,11335.195014
1156.043598,-842.480710,11794.729947,8960.931193
1156.043897,-229.767466,10722.481770,10109.768526
1156.044195,-995.659021,7582.326394,10875.660081
1156.044494,-995.659021,3676.279464,11641.551636
1156.044792,612.713244,1838.139732,10186.357681
1156.045091,-2067.907198,-4825.116796,11335.195014
1156.045390,-4135.814397,-10799.070925,13249.923901
1156.045691,-6356.899906,-10952.249236,12254.264880
1156.045991,-2374.263820,-12024.497413,10109.768526
1156.046292,-1914.728887,-12024.497413,9956.590215
1156.046593,1378.604799,-9880.001059,10492.714303
1156.046894,5973.954129,-3752.868619,8960.931193
1156.047194,8348.217949,2450.852976,8960.931193
1156.047495,7735.504705,7429.148083,9573.644437
1156.047802,2374.263820,8960.931193,9114.109504
1156.048099,-1148.837332,10416.125148,9956.590215
1156.048396,-2450.852976,9267.287815,9650.233593
1156.048693,-4595.349330,2910.387909,9650.233593
1156.048990,-7812.093861,-3599.690308,13862.637145
1156.049287,-5437.830040,-8118.450483,13632.869679
1156.049583,-1455.193954,-9343.876971,11641.551636
1156.049880,-382.945777,-10492.714303,10722.481770
1156.050194,919.069866,-10645.892614,9956.590215
1156.050495,-0.000000,-9650.233593,10799.070925
1156.050795,2374.263820,-3752.868619,9267.287815
1156.051095,3446.511997,-689.302399,7888.683016
1156.051396,2527.442131,3523.101153,10109.768526
1156.051696,2680.620442,7122.791461,11488.373325
1156.051996,1378.604799,11182.016703,10799.070925
1156.052297,2680.620442,13939.226301,9114.109504
1156.052615,3446.511997,13326.513057,9267.287815
1156.052911,-382.945777,9114.109504,10186.357681
1156.053208,-3216.744531,4135.814397,10952.249236
1156.053504,-5284.651729,-689.302399,12790.388968
1156.053800,-4978.295107,-6280.310751,13709.458834
1156.054096,-4978.295107,-10492.714303,12407.443191
1156.054392,-3369.922842,-11105.427547,11488.373325
1156.054688,459.534933,-9190.698660,10722.481770
1156.055005,2527.442131,-6433.489062,10109.768526
1156.055304,5054.884263,-2221.085509,8041.861327
1156.055602,3906.046930,2604.031287,8501.396260
1156.055901,1378.604799,5591.008351,10645.892614
1156.056199,-689.302399,8501.396260,10492.714303
1156.056498,-2450.852976,10109.768526,9650.233593
1156.056797,-1608.372265,7888.683016,9650.233593
1156.057095,-3982.636086,3676.279464,10492.714303
1156.057372,-2067.907198,306.356622,10569.303459
1156.057672,-689.302399,-3906.046930,10033.179370
1156.057972,-1455.193954,-7352.558928,12407.443191
1156.058272,-1761.550576,-10952.249236,12560.621502
1156.058572,-2067.907198,-12637.210657,9956.590215
1156.058872,1531.783110,-10339.535992,8654.574571
1156.059172,2297.674665,-10033.179370,9420.466126
1156.059472,1225.426488,-9726.822748,10339.535992
1156.059802,2986.977064,-4825.116796,10416.125148
1156.060098,6433.489062,1684.961421,8654.574571
1156.060395,3599.690308,5437.830040,8501.396260
1156.060691,-1148.837332,7429.148083,9267.287815
1156.060987,-4595.349330,9267.287815,10722.481770
1156.061283,-3369.922842,9420.466126,9803.411904
1156.061579,-3216.744531,6510.078217,9956.590215
1156.061875,-5131.473418,1378.604799,12560.621502
1156.062149,-3216.744531,-4212.403552,13326.513057
1156.062453,-76.589155,-6433.489062,12943.567279
1156.062758,2144.496354,-8731.163727,9803.411904
1156.063063,2144.496354,-10186.357681,9803.411904
1156.063368,2833.798753,-9880.001059,9956.590215
1156.063672,2833.798753,-7199.380617,9956.590215
1156.063977,1838.139732,-2986.977064,11411.784169
1156.064282,1684.961421,2297.674665,11641.551636
1156.064599,2527.442131,8654.574571,10569.303459
1156.064899,3140.155375,13020.156435,8195.039638
1156.065200,-76.589155,14398.761234,8807.752882
1156.065501,-689.302399,12254.264880,10109.768526
1156.065801,-2221.085509,8807.752882,11411.784169
1156.066102,-3829.457775,1838.139732,11258.605858
1156.066403,-4825.116796,-4212.403552,12254.264880
1156.066703,-4825.116796,-8271.628794,14168.993767
1156.066985,-2604.031287,-11564.962480,11947.908258
1156.067288,-3369.922842,-12177.675724,11182.016703
1156.067590,-1608.372265,-12790.388968,11335.195014
1156.067893,1225.426488,-10799.070925,9803.411904
1156.068195,3140.155375,-5667.597507,8960.931193
1156.068498,4901.705952,-229.767466,8960.931193
1156.068801,5820.775818,4288.992708,9420.466126
1156.069103,3906.046930,8807.752882,9420.466126
1156.069393,1225.426488,10416.125148,8501.396260
1156.069689,-1148.837332,10875.660081,9573.644437
1156.069985,-2757.209598,8041.861327,10645.892614
1156.070281,-1302.015643,5131.473418,9650.233593
1156.070577,-2450.852976,-2067.907198,10416.125148
1156.070872,-3063.566220,-7658.915550,13020.156435
1156.071168,-2604.031287,-12484.032346,13249.923901
1156.071464,-2221.085509,-14168.993767,11794.729947
1156.071773,-689.302399,-13556.280523,9956.590215
1156.072072,1378.604799,-11718.140791,10186.357681
1156.072370,1531.783110,-6739.845684,9267.287815
1156.072669,4059.225241,-1148.837332,9650.233593
1156.072967,4518.760174,4978.295107,9114.109504
1156.073266,2680.620442,9956.590215,10416.125148
1156.073564,1531.783110,13020.156435,10416.125148
1156.073863,-689.302399,15547.598566,9726.822748
1156.074170,1225.426488,15547.598566,9573.644437
1156.074470,306.356622,10569.303459,9114.109504
1156.074771,-3676.279464,2144.496354,11182.016703
1156.075071,-6203.721595,-4825.116796,14245.582923
1156.075372,-4748.527641,-10952.249236,14628.528700
1156.075672,-4135.814397,-15317.831100,12943.567279
1156.075973,-1761.550576,-14551.939545,11335.195014
1156.076273,2527.442131,-14015.815456,9420.466126
1156.076570,2527.442131,-9880.001059,10416.125148
1156.076870,3140.155375,-3446.511997,8654.574571
1156.077169,4212.403552,2297.674665,8577.985416
1156.077469,3446.511997,8654.574571,9956.590215
1156.077768,2297.674665,12560.621502,9267.287815
1156.078068,-0.000000,15547.598566,8501.396260
1156.078367,-382.945777,14781.707011,8501.396260
1156.078667,-1914.728887,10722.481770,9573.644437
1156.078962,-4442.171019,2144.496354,12024.497413
1156.079262,-7658.915550,-6739.845684,12943.567279
1156.079562,-4978.295107,-11564.962480,12713.799813
1156.079862,-4595.349330,-16390.079277,12790.388968
1156.080162,-1761.550576,-18994.110564,11335.195014
1156.080462,1684.961421,-18381.397320,9573.644437
1156.080763,4748.527641,-14551.939545,8654.574571
1156.081063,5054.884263,-9650.233593,8807.752882
1156.081374,3599.690308,-4518.760174,10033.179370
1156.081672,5820.775818,4135.814397,9420.466126
1156.081969,5361.240885,10416.125148,8195.039638
1156.082267,2374.263820,14245.582923,8348.217949
1156.082564,-1608.372265,15241.241944,9956.590215
1156.082862,-2450.852976,14781.707011,9880.001059
1156.083159,-2374.263820,10569.303459,9956.590215
1156.083457,-6203.721595,3676.279464,12713.799813
1156.083766,-7965.272172,-5514.419196,15547.598566
1156.084065,-6356.899906,-9880.001059,15164.652789
1156.084365,-3523.101153,-11871.319102,11028.838392
1156.084664,-76.589155,-11871.319102,10416.125148
1156.084963,2297.674665,-12330.854035,11105.427547
1156.085263,4518.760174,-8424.807105,11488.373325
1156.085562,8501.396260,-2374.263820,8807.752882
1156.085861,9650.233593,5131.473418,6969.613150
1156.086168,7888.683016,9803.411904,8807.752882
1156.086467,2374.263820,12560.621502,10416.125148
1156.086765,-1302.015643,16160.311810,10109.768526
1156.087063,-2374.263820,15394.420255,9114.109504
1156.087361,-7352.558928,9803.411904,11335.195014
1156.087659,-11105.427547,1991.318043,14934.885322
1156.087957,-7965.272172,-2527.442131,13173.334746
1156.088256,-3829.457775,-5361.240885,10722.481770
1156.088572,-3982.636086,-11258.605858,11794.729947
1156.088870,-5131.473418,-16236.900966,12790.388968
1156.089169,153.178311,-14015.815456,9956.590215
1156.089467,6280.310751,-11718.140791,7275.969772
1156.089765,6739.845684,-11105.427547,7275.969772
1156.090064,4748.527641,-8577.985416,10262.946837
1156.090362,9114.109504,-1302.015643,9114.109504
1156.090661,9114.109504,7582.326394,7429.148083
1156.090975,5667.597507,10569.303459,6433.489062
1156.091274,-689.302399,11182.016703,8731.163727
1156.091572,-3982.636086,9650.233593,10645.892614
1156.091871,-6816.434839,6663.256528,9803.411904
1156.092170,-11718.140791,919.069866,11564.962480
1156.092469,-11947.908258,-7965.272172,15853.955188
1156.092767,-9343.876971,-12024.497413,15853.955188
1156.093066,-2067.907198,-12943.567279,11488.373325
1156.093354,3140.155375,-12330.854035,9114.109504
1156.093655,4748.527641,-13862.637145,8577.985416
1156.093956,6280.310751,-11105.427547,10109.768526
1156.094257,8041.861327,-6127.132440,8654.574571
1156.094557,6739.845684,-229.767466,10033.179370
1156.094858,5667.597507,5437.830040,10569.303459
1156.095159,5667.597507,12101.086569,9573.644437
1156.095460,3906.046930,17845.273231,8041.861327
1156.095759,3293.333686,17998.451542,8195.039638
1156.096059,-5284.651729,14628.528700,11105.427547
1156.096358,-8118.450483,8041.861327,13403.102212
1156.096657,-13326.513057,306.356622,15547.598566
1156.096956,-12713.799813,-4901.705952,15241.241944
1156.097256,-8271.628794,-8271.628794,12790.388968
1156.097555,-6356.899906,-13403.102212,11641.551636
1156.097854,919.069866,-14705.117856,11335.195014
1156.098161,6739.845684,-12943.567279,9190.698660
1156.098460,12484.032346,-7658.915550,6356.899906
1156.098760,13403.102212,-2527.442131,7582.326394
1156.099059,9803.411904,2910.387909,8960.931193
1156.099358,6280.310751,9650.233593,8884.342038
1156.099657,919.069866,15547.598566,8195.039638
1156.099957,-2221.085509,17232.559987,8348.217949
1156.100256,-6969.613150,13020.156435,11028.838392
1156.100576,-10339.535992,6510.078217,11794.729947
1156.100873,-10799.070925,-76.589155,12407.443191
1156.101170,-9726.822748,-7658.915550,13786.047990
1156.101467,-6816.434839,-14168.993767,14475.350389
1156.101764,-3216.744531,-15471.009411,12790.388968
1156.102061,1378.604799,-14858.296167,10262.946837
1156.102358,5973.954129,-13709.458834,9037.520349
1156.102655,7275.969772,-11718.140791,7735.504705
1156.102974,8654.574571,-7965.272172,7658.915550
1156.103272,12024.497413,-995.659021,7429.148083
1156.103571,8960.931193,3829.457775,7735.504705
1156.103869,3599.690308,7888.683016,10109.768526
1156.104167,-2067.907198,10875.660081,10416.125148
1156.104465,-3369.922842,13632.869679,10569.303459
1156.104764,-7199.380617,12101.086569,11028.838392
1156.105062,-11718.140791,5437.830040,12713.799813
1156.105375,-11718.140791,1225.426488,15241.241944
1156.105671,-6663.256528,-4518.760174,13862.637145
1156.105967,-3063.566220,-10186.357681,11947.908258
1156.106263,1225.426488,-12790.388968,11794.729947
1156.106559,5667.597507,-13096.745590,10722.481770
1156.106855,9497.055282,-11258.605858,8424.807105
1156.107151,9497.055282,-7352.558928,6969.613150
1156.107447,6893.023995,-2221.085509,8654.574571
1156.107746,4671.938485,3982.636086,10262.946837
1156.108047,2297.674665,9803.411904,9726.822748
1156.108348,765.891555,15394.420255,8195.039638
1156.108649,-0.000000,17385.738298,8424.807105
1156.108949,-3063.566220,14628.528700,9343.876971
1156.109250,-6663.256528,9573.644437,11105.427547
1156.109551,-11947.908258,612.713244,14628.528700
1156.109852,-12560.621502,-5361.240885,16236.900966
1156.110159,-9726.822748,-10186.357681,14168.993767
1156.110456,-5591.008351,-14475.350389,11488.373325
1156.110753,-0.000000,-14168.993767,10109.768526
1156.111049,5361.240885,-14322.172078,8807.752882
1156.111346,9803.411904,-11411.784169,7275.969772
1156.111643,11794.729947,-7352.558928,8195.039638
1156.111940,12330.854035,-1761.550576,8118.450483
1156.112237,9803.411904,5437.830040,7888.683016
1156.112545,4365.581863,9956.590215,8501.396260
1156.112844,-842.480710,12560.621502,10109.768526
1156.113143,-4748.527641,12713.799813,11335.195014
1156.113442,-7199.380617,9956.590215,10875.660081
1156.113741,-10645.892614,4288.992708,12254.264880
1156.114040,-12101.086569,-3140.155375,15930.544344
1156.114339,-11718.140791,-8424.807105,15930.544344
1156.114638,-7505.737239,-10339.535992,12713.799813
1156.114954,-2374.263820,-13249.923901,10722.481770
1156.115253,3140.155375,-14322.172078,10109.768526
1156.115551,7046.202306,-12790.388968,9420.466126
1156.115850,11641.551636,-8271.628794,7735.504705
1156.116148,17079.381676,306.356622,5361.240885
1156.116446,14168.993767,4748.527641,7658.915550
1156.116745,7888.683016,8195.039638,9267.287815
1156.117043,765.891555,13632.869679,9956.590215
1156.117361,-2374.263820,15394.420255,9573.644437
1156.117658,-7505.737239,13173.334746,11105.427547
1156.117956,-12713.799813,6663.256528,14628.528700
1156.118254,-13173.334746,612.713244,14475.350389
1156.118552,-10799.070925,-3752.868619,13862.637145
1156.118850,-8118.450483,-8424.807105,12713.799813
1156.119147,-6969.613150,-13709.458834,13096.745590
1156.119445,306.356622,-12484.032346,10569.303459
1156.119745,7888.683016,-9880.001059,6816.434839
1156.120045,9497.055282,-8884.342038,6510.078217
1156.120345,10416.125148,-6127.132440,8041.861327
1156.120645,12024.497413,612.713244,7888.683016
1156.120945,9650.233593,6510.078217,7582.326394
1156.121245,4518.760174,9573.644437,7888.683016
1156.121545,-1608.372265,11488.373325,9956.590215
1156.121845,-4288.992708,9573.644437,10875.660081
1156.122136,-8577.985416,6050.543284,12254.264880
1156.122435,-11564.962480,1072.248177,12713.799813
1156.122733,-11564.962480,-4825.116796,14475.350389
1156.123032,-9343.876971,-9343.876971,15930.544344
1156.123331,-5897.364973,-11564.962480,11411.784169
1156.123629,-2450.852976,-11718.140791,10645.892614
1156.123928,2833.798753,-10952.249236,7735.504705
1156.124227,7888.683016,-9726.822748,6816.434839
1156.124534,7122.791461,-7965.272172,9573.644437
1156.124839,8807.752882,-3906.046930,9267.287815
1156.125143,8501.396260,3369.922842,9650.233593
1156.125448,8348.217949,8348.217949,8501.396260
1156.125753,3906.046930,10569.303459,9267.287815
1156.126057,1072.248177,11794.729947,9650.233593
1156.126362,-1148.837332,10722.481770,8501.396260
1156.126667,-5131.473418,6356.899906,10262.946837
1156.126950,-10492.714303,-842.480710,15241.241944
1156.127246,-11947.908258,-5514.419196,17002.792521
1156.127543,-7352.558928,-7658.915550,12713.799813
1156.127839,-6510.078217,-9650.233593,11028.838392
1156.128135,-3369.922842,-11105.427547,12943.567279
1156.128432,153.178311,-9190.698660,10109.768526
1156.128728,7888.683016,-3140.155375,7275.969772
1156.129024,10722.481770,-76.589155,7275.969772
1156.129352,7582.326394,1072.248177,10416.125148
1156.129648,8041.861327,6816.434839,11335.195014
1156.129944,7429.148083,11488.373325,6280.310751
1156.130240,5820.775818,14245.582923,7275.969772
1156.130537,612.713244,10109.768526,10262.946837
1156.130833,-5591.008351,5284.651729,12024.497413
1156.131129,-7965.272172,1991.318043,12407.443191
1156.131425,-9190.698660,-2986.977064,12101.086569
1156.131737,-12866.978124,-9726.822748,15700.776877
1156.132037,-11718.140791,-12637.210657,14705.117856
1156.132337,-6510.078217,-10492.714303,11641.551636
1156.132637,919.069866,-7812.093861,9803.411904
1156.132936,4748.527641,-6280.310751,8501.396260
1156.133236,7888.683016,-4901.705952,9803.411904
1156.133536,12943.567279,153.178311,8501.396260
1156.133836,12637.210657,5284.651729,6356.899906
1156.134145,6586.667373,6050.543284,7735.504705
1156.134444,1225.426488,4595.349330,9650.233593
1156.134742,459.534933,5437.830040,9420.466126
1156.135041,-1148.837332,4595.349330,8960.931193
1156.135339,-6203.721595,-1761.550576,9880.001059
1156.135638,-10186.357681,-6586.667373,15164.652789
1156.135936,-10033.179370,-8884.342038,15853.955188
1156.136235,-7658.915550,-9650.233593,12790.388968
1156.136542,-7965.272172,-8884.342038,12101.086569
1156.136842,-2450.852976,-8884.342038,10722.481770
1156.137143,2297.674665,-7199.380617,10416.125148
1156.137444,8195.039638,-2067.907198,8118.450483
1156.137744,12637.210657,3523.101153,6510.078217
1156.138045,11794.729947,4595.349330,8731.163727
1156.138345,8654.574571,7735.504705,9267.287815
1156.138646,4671.938485,9956.590215,9267.287815
1156.138942,1838.139732,11488.373325,6969.613150
1156.139241,-2910.387909,9650.233593,8960.931193
1156.139540,-6663.256528,4595.349330,12101.086569
1156.139839,-10033.179370,-3140.155375,13403.102212
1156.140138,-10799.070925,-6893.023995,15700.776877
1156.140437,-6816.434839,-9037.520349,12560.621502
1156.140735,-5437.830040,-12024.497413,13096.745590
1156.141034,-1608.372265,-11718.140791,10875.660081
1156.141361,2144.496354,-7658.915550,9573.644437
1156.141657,4059.225241,-2067.907198,7888.683016
1156.141953,4901.705952,1072.248177,9573.644437
1156.142248,5361.240885,3829.457775,11488.373325
1156.142544,6739.845684,9573.644437,8654.574571
1156.142839,5820.775818,12866.978124,6969.613150
1156.143135,1531.783110,10569.303459,8807.752882
1156.143430,-2374.263820,6510.078217,11258.605858
1156.143718,-2450.852976,3216.744531,12254.264880
1156.144018,-3063.566220,-229.767466,9956.590215
1156.144318,-4442.171019,-6893.023995,12254.264880
1156.144618,-5437.830040,-11871.319102,14858.296167
1156.144918,-3829.457775,-12484.032346,12407.443191
1156.145218,-1302.015643,-11258.605858,9650.233593
1156.145518,765.891555,-10186.357681,10262.946837
1156.145818,306.356622,-10033.179370,11182.016703
1156.146118,2144.496354,-4212.403552,10875.660081
1156.146418,5667.597507,3216.744531,7046.202306
1156.146718,3293.333686,7122.791461,9267.287815
1156.147018,612.713244,9114.109504,10952.249236
1156.147318,-2221.085509,11028.838392,10875.660081
1156.147618,919.069866,12560.621502,9650.233593
1156.147918,1838.139732,9956.590215,8041.861327
1156.148218,-1148.837332,2144.496354,10339.535992
1156.148525,-2604.031287,-4901.705952,13096.745590
1156.148827,-1148.837332,-8271.628794,12790.388968
1156.149128,-1455.193954,-9880.001059,11718.140791
1156.149430,-4442.171019,-13862.637145,11641.551636
1156.149731,-842.480710,-11411.784169,11947.908258
1156.150032,1531.783110,-6739.845684,9573.644437
1156.150334,3599.690308,-842.480710,7275.969772
1156.150635,3293.333686,1684.961421,9420.466126
1156.150952,1991.318043,5897.364973,10875.660081
1156.151245,3140.155375,9803.411904,10569.303459
1156.151539,-842.480710,12101.086569,9573.644437
1156.151833,-1148.837332,12254.264880,8424.807105
1156.152127,-842.480710,8041.861327,9573.644437
1156.152420,-3829.457775,1531.783110,11794.729947
1156.152714,-4135.814397,-3752.868619,12254.264880
1156.153008,-2067.907198,-5820.775818,12407.443191
1156.153326,-689.302399,-9037.520349,12101.086569
1156.153624,-1761.550576,-11718.140791,11488.373325
1156.153923,-1608.372265,-10799.070925,11028.838392
1156.154221,765.891555,-6893.023995,8807.752882
1156.154519,2374.263820,-5054.884263,6663.256528
1156.154817,-689.302399,-5054.884263,11488.373325
1156.155115,1225.426488,-842.480710,11641.551636
1156.155414,5514.419196,6203.721595,9956.590215
1156.155727,6280.310751,10262.946837,6816.434839
1156.156025,3906.046930,9420.466126,8501.396260
1156.156324,-995.659021,6663.256528,12101.086569
1156.156622,-1148.837332,5131.473418,9880.001059
1156.156920,-1761.550576,1072.248177,8807.752882
1156.157219,-6816.434839,-7658.915550,13403.102212
1156.157517,-8577.985416,-13862.637145,15930.544344
1156.157816,-4748.527641,-12330.854035,11794.729947
1156.158115,-2450.852976,-8424.807105,10416.125148
1156.158415,-1608.372265,-8884.342038,11028.838392
1156.158715,-1148.837332,-5667.597507,9956.590215
1156.159015,3293.333686,306.356622,9114.109504
1156.159316,5973.954129,5131.473418,6739.845684
1156.159616,5054.884263,7429.148083,9803.411904
1156.159916,4059.225241,8501.396260,11947.908258
1156.160216,5208.062574,10722.481770,9650.233593
1156.160523,6433.489062,12866.978124,8654.574571
1156.160825,2986.977064,7582.326394,9650.233593
1156.161127,-3369.922842,919.069866,10875.660081
1156.161429,-6203.721595,-3906.046930,13096.745590
1156.161731,-7199.380617,-7046.202306,12101.086569
1156.162033,-8731.163727,-10645.892614,13096.745590
1156.162335,-8884.342038,-13096.745590,13326.513057
1156.162637,-3369.922842,-9726.822748,11488.373325
1156.162941,1225.426488,-5361.240885,9420.466126
1156.163238,4901.705952,-76.589155,7429.148083
1156.163535,6739.845684,3216.744531,9267.287815
1156.163832,6739.845684,5591.008351,9267.287815
1156.164129,5054.884263,8348.217949,9267.287815
1156.164426,153.178311,8654.574571,9956.590215
1156.164723,-2221.085509,7582.326394,9956.590215
1156.165020,-536.124088,5591.008351,9726.822748
1156.165339,-2221.085509,1072.248177,9650.233593
1156.165636,-3829.457775,-4212.403552,10416.125148
1156.165932,-4442.171019,-9343.876971,13556.280523
1156.166229,-3216.744531,-10952.249236,13020.156435
1156.166526,-2374.263820,-10799.070925,10569.303459
1156.166823,-2221.085509,-10339.535992,10186.357681
1156.167120,-0.000000,-8271.628794,10722.481770
1156.167417,2833.798753,-4825.116796,9880.001059
1156.167734,4059.225241,-1608.372265,9267.287815
1156.168032,4748.527641,1991.318043,8807.752882
1156.168330,4901.705952,4442.171019,9956.590215
1156.168627,1378.604799,6816.434839,10186.357681
1156.168925,-842.480710,9114.109504,9956.590215
1156.169223,-689.302399,8501.396260,9420.466126
1156.169521,-1608.372265,5591.008351,10109.768526
1156.169819,-3676.279464,306.356622,10569.303459
1156.170118,-5437.830040,-6280.310751,12637.210657
1156.170416,-3829.457775,-8118.450483,13632.869679
1156.170713,-382.945777,-9190.698660,12254.264880
1156.171011,-536.124088,-9343.876971,10416.125148
1156.171308,1531.783110,-7658.915550,10722.481770
1156.171605,2374.263820,-4518.760174,10722.481770
1156.171903,4212.403552,1225.426488,7352.558928
1156.172200,2986.977064,4595.349330,8577.985416
1156.172531,2527.442131,4595.349330,10416.125148
1156.172828,612.713244,6816.434839,12177.675724
1156.173124,-76.589155,10569.303459,9803.411904
1156.173421,-382.945777,10262.946837,8348.217949
1156.173718,-536.124088,6203.721595,9037.520349
1156.174015,-3216.744531,765.891555,11182.016703
1156.174312,-3369.922842,-2680.620442,11564.962480
1156.174609,-1608.372265,-5054.884263,11182.016703
1156.174951,-3982.636086,-10033.179370,13709.458834
1156.175245,-4135.814397,-12637.210657,12790.388968
1156.175539,-3216.744531,-10033.179370,12101.086569
1156.175833,3293.333686,-5208.062574,8731.163727
1156.176128,3446.511997,-2986.977064,7275.969772
1156.176422,1991.318043,-842.480710,10722.481770
1156.176716,4518.760174,3063.566220,10109.768526
1156.177010,6127.132440,9650.233593,9573.644437
1156.177293,5208.062574,11488.373325,7965.272172
1156.177598,-536.124088,9114.109504,8807.752882
1156.177903,-2757.209598,5897.364973,11488.373325
1156.178207,-3982.636086,3063.566220,11028.838392
1156.178512,-4442.171019,-2833.798753,10109.768526
1156.178817,-8118.450483,-9343.876971,12637.210657
1156.179122,-7122.791461,-14015.815456,15394.420255
1156.179426,-4442.171019,-13096.745590,13403.102212
1156.179727,-1455.193954,-9650.233593,10492.714303
1156.180026,2680.620442,-7658.915550,8807.752882
1156.180326,4671.938485,-4671.938485,9880.001059
1156.180626,7582.326394,153.178311,8960.931193
1156.180926,9803.411904,5744.186662,7582.326394
1156.181226,7582.326394,9114.109504,7888.683016
1156.181526,3906.046930,8807.752882,9650.233593
1156.181826,-1302.015643,10416.125148,10416.125148
1156.182115,-2450.852976,10416.125148,9114.109504
1156.182415,-5591.008351,5437.830040,10722.481770
1156.182714,-7505.737239,-995.659021,11335.195014
1156.183013,-7658.915550,-6586.667373,13096.745590
1156.183312,-4825.116796,-10339.535992,12943.567279
1156.183611,-2910.387909,-12637.210657,12637.210657
1156.183910,-1608.372265,-13403.102212,11488.373325
1156.184209,612.713244,-11411.784169,10875.660081
1156.184495,5973.954129,-6739.845684,9420.466126
1156.184797,7275.969772,-536.124088,6433.489062
1156.185099,7046.202306,3982.636086,6739.845684
1156.185401,4671.938485,6203.721595,9497.055282
1156.185702,1531.783110,8807.752882,12101.086569
1156.186004,-229.767466,12560.621502,9956.590215
1156.186306,-689.302399,13786.047990,8960.931193
1156.186608,-2374.263820,10262.946837,9573.644437
1156.186954,-4135.814397,3523.101153,10262.946837
1156.187247,-7505.737239,-4212.403552,11641.551636
1156.187540,-7812.093861,-10339.535992,14092.404612
1156.187834,-6050.543284,-14858.296167,15624.187722
1156.188127,-3216.744531,-16696.435899,12790.388968
1156.188420,-1455.193954,-13709.458834,9956.590215
1156.188714,765.891555,-11564.962480,10033.179370
1156.189007,2833.798753,-6893.023995,9114.109504
1156.189303,6127.132440,-0.000000,8348.217949
1156.189603,7429.148083,5437.830040,7582.326394
1156.189903,7735.504705,9267.287815,8807.752882
1156.190202,4901.705952,12560.621502,9803.411904
1156.190502,1225.426488,13173.334746,9573.644437
1156.190802,919.069866,12866.978124,9650.233593
1156.191102,-1608.372265,8960.931193,10262.946837
1156.191401,-4748.527641,1991.318043,10952.249236
1156.191696,-9037.520349,-6280.310751,14168.993767
1156.191997,-6050.543284,-10186.357681,14705.117856
1156.192298,-2450.852976,-11564.962480,10262.946837
1156.192599,-3829.457775,-13709.458834,10799.070925
1156.192899,-4135.814397,-13556.280523,12713.799813
1156.193200,306.356622,-8271.628794,10875.660081
1156.193501,6127.132440,-0.000000,7429.148083
1156.193802,7275.969772,4595.349330,7429.148083
1156.194114,6433.489062,6663.256528,9803.411904
1156.194411,6127.132440,11488.373325,10109.768526
1156.194709,5361.240885,15241.241944,8348.217949
1156.195006,306.356622,12866.978124,8501.396260
1156.195304,-2374.263820,8807.752882,9956.590215
1156.195601,-4442.171019,3829.457775,10952.249236
1156.195898,-8118.450483,-2680.620442,12254.264880
1156.196196,-9190.698660,-9037.520349,13403.102212
1156.196505,-9190.698660,-12637.210657,14705.117856
1156.196801,-6356.899906,-14168.993767,13096.745590
1156.197097,-2374.263820,-13403.102212,12943.567279
1156.197393,2144.496354,-9650.233593,8960.931193
1156.197689,5054.884263,-5514.419196,8348.217949
1156.197985,7429.148083,-2221.085509,7199.380617
1156.198281,7735.504705,1378.604799,9343.876971
1156.198577,9114.109504,6663.256528,9650.233593
1156.198884,7888.683016,9114.109504,7046.202306
1156.199183,1072.248177,8960.931193,9267.287815
1156.199482,612.713244,7429.148083,10722.481770
1156.199781,-1914.728887,5591.008351,9573.644437
1156.200080,-5131.473418,-0.000000,10262.946837
1156.200379,-9726.822748,-7046.202306,13249.923901
1156.200678,-11871.319102,-13249.923901,16236.900966
1156.200977,-9037.520349,-12484.032346,14168.993767
1156.201293,-7352.558928,-11718.140791,11641.551636
1156.201591,-2374.263820,-9650.233593,9573.644437
1156.201889,4059.225241,-6127.132440,9956.590215
1156.202186,9956.590215,-995.659021,7275.969772
1156.202484,11028.838392,3676.279464,8501.396260
1156.202782,11641.551636,7582.326394,8195.039638
1156.203080,9267.287815,10416.125148,9190.698660
1156.203377,6127.132440,13020.156435,8501.396260
1156.203692,612.713244,12560.621502,8960.931193
1156.203990,-5284.651729,9956.590215,9956.590215
1156.204289,-8577.985416,4978.295107,10645.892614
1156.204588,-12101.086569,-3140.155375,15088.063633
1156.204886,-13020.156435,-8731.163727,15547.598566
1156.205185,-9190.698660,-11411.784169,14475.350389
1156.205484,-5284.651729,-11718.140791,12254.264880
1156.205783,-229.767466,-11411.784169,10799.070925
1156.206094,6127.132440,-7046.202306,9803.411904
1156.206393,10722.481770,-1914.728887,7735.504705
1156.206692,12943.567279,2297.674665,6969.613150
1156.206992,13096.745590,5744.186662,8195.039638
1156.207291,8348.217949,9956.590215,10109.768526
1156.207590,1838.139732,10569.303459,9573.644437
1156.207889,-3063.566220,12407.443191,10416.125148
1156.208188,-5897.364973,10262.946837,9880.001059
1156.208488,-9497.055282,5591.008351,10109.768526
1156.208787,-12866.978124,-2527.442131,13096.745590
1156.209086,-12407.443191,-8118.450483,13862.637145
1156.209385,-8118.450483,-12943.567279,13862.637145
1156.209684,-4442.171019,-15471.009411,13862.637145
1156.209984,-76.589155,-15317.831100,10492.714303
1156.210283,6280.310751,-13862.637145,8960.931193
1156.210582,9956.590215,-9037.520349,7275.969772
1156.210889,11182.016703,-4671.938485,6663.256528
1156.211188,9267.287815,-995.659021,8348.217949
1156.211488,7735.504705,4288.992708,9114.109504
1156.211787,3752.868619,8654.574571,9956.590215
1156.212086,-382.945777,9956.590215,9420.466126
1156.212385,-3369.922842,11182.016703,9573.644437
1156.212685,-4978.295107,9956.590215,10569.303459
1156.212984,-6356.899906,5744.186662,10875.660081
1156.213288,-11258.605858,-1455.193954,13403.102212
1156.213588,-9343.876971,-7812.093861,13862.637145
1156.213888,-6203.721595,-11718.140791,13632.869679
1156.214188,-2604.031287,-13096.745590,11641.551636
1156.214489,612.713244,-13556.280523,10722.481770
1156.214789,5361.240885,-10339.535992,9880.001059
1156.215089,9803.411904,-5514.419196,7658.915550
1156.215390,9650.233593,-76.589155,7199.380617
1156.215708,9956.590215,3676.279464,7888.683016
1156.216006,6893.023995,8501.396260,9573.644437
1156.216305,3906.046930,13326.513057,9650.233593
1156.216603,-536.124088,15088.063633,9114.109504
1156.216901,-2067.907198,13786.047990,10799.070925
1156.217199,-6203.721595,9420.466126,11028.838392
1156.217498,-7965.272172,2604.031287,11488.373325
1156.217796,-10645.892614,-4518.760174,14015.815456
1156.218109,-11258.605858,-9190.698660,15853.955188
1156.218405,-8577.985416,-13556.280523,13862.637145
1156.218701,-5284.651729,-12024.497413,11794.729947
1156.218997,1378.604799,-10645.892614,10262.946837
1156.219293,5514.419196,-8424.807105,8501.396260
1156.219589,9267.287815,-3293.333686,7275.969772
1156.219885,11488.373325,1684.961421,6816.434839
1156.220181,11028.838392,4825.116796,8041.861327
1156.220481,8960.931193,8807.752882,9573.644437
1156.220778,4748.527641,11488.373325,8501.396260
1156.221075,-0.000000,9267.287815,9114.109504
1156.221373,-6969.613150,6203.721595,12101.086569
1156.221670,-10033.179370,1991.318043,12713.799813
1156.221968,-10033.179370,-2680.620442,13096.745590
1156.222265,-9190.698660,-7199.380617,13096.745590
1156.222563,-8731.163727,-12484.032346,14322.172078
1156.222870,-7505.737239,-13556.280523,14781.707011
1156.223171,153.178311,-9880.001059,10722.481770
1156.223473,6586.667373,-6586.667373,6816.434839
1156.223775,8195.039638,-4059.225241,7582.326394
1156.224076,6893.023995,-1148.837332,9267.287815
1156.224378,9650.233593,4595.349330,8041.861327
1156.224680,9497.055282,9650.233593,8501.396260
1156.224982,5973.954129,11488.373325,7888.683016
1156.225227,1378.604799,10109.768526,9956.590215
1156.225537,-2604.031287,8501.396260,11028.838392
1156.225847,-3829.457775,5591.008351,10109.768526
1156.226157,-10033.179370,-842.480710,12484.032346
1156.226467,-14475.350389,-8424.807105,14934.885322
1156.226778,-11718.140791,-12024.497413,16543.257588
1156.227088,-7505.737239,-11105.427547,12790.388968
1156.227398,-1608.372265,-8424.807105,9956.590215
1156.227716,2527.442131,-7352.558928,9803.411904
1156.228013,7275.969772,-3599.690308,8195.039638
1156.228309,12484.032346,1838.139732,7505.737239
1156.228605,10875.660081,6203.721595,6663.256528
1156.228901,5361.240885,7429.148083,9573.644437
1156.229197,1531.783110,8654.574571,10109.768526
1156.229493,-689.302399,9803.411904,9803.411904
1156.229789,612.713244,9573.644437,9114.109504
1156.230107,-3063.566220,3676.279464,9650.233593
1156.230401,-3369.922842,-1302.015643,11258.605858
1156.230695,-3982.636086,-6280.310751,11794.729947
1156.230990,-7122.791461,-11718.140791,12790.388968
1156.231284,-7812.093861,-13249.923901,14015.815456
1156.231579,-9880.001059,-13709.458834,12560.621502
1156.231873,-6050.543284,-11718.140791,11488.373325
1156.232168,-1302.015643,-8271.628794,10186.357681
1156.232467,4901.705952,-1914.728887,7965.272172
1156.232767,11028.838392,2604.031287,6969.613150
1156.233068,13403.102212,7582.326394,8654.574571
1156.233368,10875.660081,8654.574571,9420.466126
1156.233668,7735.504705,11947.908258,9114.109504
1156.233968,612.713244,10262.946837,9650.233593
1156.234268,-3676.279464,6510.078217,10875.660081
1156.234568,-7122.791461,765.891555,11182.016703
1156.234858,-9880.001059,-2680.620442,12177.675724
1156.235161,-7658.915550,-8271.628794,12790.388968
1156.235464,-6356.899906,-11411.784169,14322.172078
