#time,accel_x,accel_y,accel_z
1177.367087,-76.589155,-689.302399,10416.125148
1177.367378,-382.945777,-536.124088,10569.303459
1177.367669,765.891555,-382.945777,10492.714303
1177.367961,4671.938485,-382.945777,10109.768526
1177.368268,6739.845684,-0.000000,9956.590215
1177.368567,12330.854035,-0.000000,9190.698660
1177.368866,16236.900966,153.178311,9114.109504
1177.369165,19300.467186,153.178311,9573.644437
1177.369464,23359.692427,459.534933,8654.574571
1177.369763,22746.979183,1531.783110,9343.876971
1177.370062,23359.692427,2604.031287,8271.628794
1177.370361,19913.180430,1838.139732,9037.520349
1177.370679,16390.079277,1225.426488,10416.125148
1177.370977,14015.815456,1072.248177,10416.125148
1177.371276,12943.567279,459.534933,11335.195014
1177.371574,17692.094920,459.534933,10875.660081
1177.371872,23666.049049,1991.318043,9803.411904
1177.372171,28797.522468,1225.426488,8807.752882
1177.372469,26423.258647,-995.659021,8960.931193
1177.372768,20372.715363,-4518.760174,13096.745590
1177.373085,12637.210657,-5820.775818,16696.435899
1177.373383,8960.931193,-3599.690308,14628.528700
1177.373681,5820.775818,-1455.193954,14168.993767
1177.373979,1684.961421,-995.659021,13556.280523
1177.374276,-536.124088,-536.124088,15853.955188
1177.374574,2144.496354,1072.248177,17002.792521
1177.374872,10875.660081,4978.295107,12713.799813
1177.375170,20679.071985,8807.752882,8348.217949
1177.375468,26576.436958,7275.969772,6280.310751
1177.375768,29410.235712,919.069866,6663.256528
1177.376068,31171.786288,-2680.620442,7122.791461
1177.376368,33546.050109,-6586.667373,6510.078217
1177.376668,33546.050109,-9650.233593,6663.256528
1177.376968,31018.607977,-9497.055282,7965.272172
1177.377268,23512.870738,-9343.876971,12101.086569
1177.377568,19913.180430,-3446.511997,12560.621502
1177.377859,16390.079277,1838.139732,11335.195014
1177.378158,10109.768526,4978.295107,11794.729947
1177.378456,-536.124088,4595.349330,13096.745590
1177.378755,-9037.520349,3829.457775,15394.420255
1177.379054,-9726.822748,1991.318043,13020.156435
1177.379352,-6663.256528,-3752.868619,10569.303459
1177.379651,-7122.791461,-4518.760174,11182.016703
1177.379950,-2221.085509,-3140.155375,10569.303459
1177.380257,4212.403552,1225.426488,9650.233593
1177.380562,12790.388968,6356.899906,7429.148083
1177.380866,14858.296167,8041.861327,8501.396260
1177.381171,15317.831100,5284.651729,9650.233593
1177.381476,16619.846743,2144.496354,11028.838392
1177.381780,18151.629853,-2067.907198,9956.590215
1177.382085,15777.366033,-7658.915550,8041.861327
1177.382390,6893.023995,-10339.535992,10339.535992
1177.382706,-4595.349330,-11564.962480,11641.551636
1177.383000,-14322.172078,-10339.535992,13786.047990
1177.383293,-22517.211717,-5667.597507,13709.458834
1177.383586,-27112.561047,-842.480710,14781.707011
1177.383880,-20755.661140,4595.349330,15624.187722
1177.384173,-8271.628794,10875.660081,13862.637145
1177.384467,7582.326394,15241.241944,10033.179370
1177.384760,23895.816516,16466.668432,6663.256528
1177.385055,34005.585042,13020.156435,3982.636086
1177.385356,37452.097039,6050.543284,2680.620442
1177.385657,28414.576690,-3906.046930,5284.651729
1177.385957,17079.381676,-10645.892614,6280.310751
1177.386258,1991.318043,-16543.257588,8195.039638
1177.386559,-15394.420255,-21215.196073,13862.637145
1177.386860,-26499.847803,-19836.591274,15700.776877
1177.387161,-30405.894733,-12790.388968,14781.707011
1177.387449,-30405.894733,-4825.116796,15700.776877
1177.387749,-29640.003178,-4365.581863,18075.040698
1177.388049,-18381.397320,3063.566220,17155.970832
1177.388349,-995.659021,11794.729947,10262.946837
1177.388649,17845.273231,14475.350389,3293.333686
1177.388950,28797.522468,13939.226301,1148.837332
1177.389250,28261.398379,9267.287815,1302.015643
1177.389550,22593.800872,2604.031287,5054.884263
1177.389859,12330.854035,-3752.868619,8807.752882
1177.390157,765.891555,-8271.628794,9420.466126
1177.390456,-9343.876971,-14015.815456,12943.567279
1177.390754,-15088.063633,-13862.637145,15930.544344
1177.391053,-14628.528700,-10339.535992,14015.815456
1177.391351,-10186.357681,-6893.023995,14322.172078
1177.391650,-5131.473418,-3140.155375,14475.350389
1177.391948,3906.046930,3676.279464,10875.660081
1177.392255,8960.931193,8041.861327,8960.931193
1177.392554,11028.838392,10262.946837,8960.931193
1177.392853,14398.761234,12254.264880,6127.132440
1177.393152,10722.481770,12407.443191,9420.466126
1177.393451,5820.775818,8960.931193,12407.443191
1177.393750,1378.604799,10262.946837,10416.125148
1177.394049,-5897.364973,8195.039638,10875.660081
1177.394348,-12713.799813,1991.318043,15317.831100
1177.394645,-16619.846743,-2221.085509,15930.544344
1177.394947,-14322.172078,-3599.690308,15700.776877
1177.395250,-10645.892614,-7505.737239,14705.117856
1177.395553,-4825.116796,-10339.535992,13709.458834
1177.395856,4212.403552,-7965.272172,10262.946837
1177.396159,13249.923901,-5667.597507,6280.310751
1177.396462,19147.288875,-2067.907198,5208.062574
1177.396765,19147.288875,1378.604799,4442.171019
1177.397092,12943.567279,5591.008351,6356.899906
1177.397388,2374.263820,7275.969772,9573.644437
1177.397683,-6356.899906,9114.109504,9880.001059
1177.397978,-12713.799813,8960.931193,11641.551636
1177.398274,-16619.846743,3216.744531,14015.815456
1177.398569,-15241.241944,-1148.837332,14322.172078
1177.398865,-14245.582923,-5514.419196,15241.241944
1177.399160,-8577.985416,-11105.427547,12943.567279
1177.399472,3140.155375,-11718.140791,9573.644437
1177.399770,11641.551636,-13862.637145,6356.899906
1177.400067,15011.474478,-15930.544344,6280.310751
1177.400364,17385.738298,-12484.032346,6203.721595
1177.400662,16236.900966,-5973.954129,2374.263820
1177.400959,8195.039638,-3599.690308,6510.078217
1177.401257,-7505.737239,-4518.760174,13096.745590
1177.401554,-16619.846743,1991.318043,15241.241944
1177.401854,-19377.056341,5591.008351,13862.637145
1177.402154,-16466.668432,9650.233593,13403.102212
1177.402454,-10033.179370,10262.946837,12560.621502
1177.402754,-4825.116796,9267.287815,12254.264880
1177.403054,2527.442131,3216.744531,13249.923901
1177.403354,10875.660081,-1302.015643,10339.535992
1177.403654,17385.738298,-7352.558928,6586.667373
1177.403954,18457.986475,-14168.993767,6663.256528
1177.404261,16236.900966,-14322.172078,6663.256528
1177.404561,10875.660081,-11871.319102,6356.899906
1177.404862,3906.046930,-6127.132440,8807.752882
1177.405162,-7812.093861,459.534933,10722.481770
1177.405462,-18228.219009,7429.148083,12713.799813
1177.405762,-23129.924961,12560.621502,16696.435899
1177.406063,-23436.281583,16466.668432,16849.614210
1177.406363,-15547.598566,19223.878030,13862.637145
1177.406633,-7352.558928,15394.420255,13249.923901
1177.406933,612.713244,8041.861327,13403.102212
1177.407233,14168.993767,3523.101153,8654.574571
1177.407534,19453.645497,-4059.225241,6203.721595
1177.407834,21521.552695,-12177.675724,5744.186662
1177.408134,17538.916609,-16696.435899,5514.419196
1177.408435,8501.396260,-15624.187722,7429.148083
1177.408735,-1761.550576,-12943.567279,9267.287815
1177.409054,-12560.621502,-5514.419196,10799.070925
1177.409352,-20296.126207,153.178311,12713.799813
1177.409650,-22210.855095,4288.992708,15930.544344
1177.409948,-17768.684076,9267.287815,17462.327454
1177.410247,-8884.342038,13939.226301,14781.707011
1177.410545,3293.333686,13632.869679,12330.854035
1177.410843,12790.388968,8807.752882,11182.016703
1177.411141,19453.645497,3982.636086,7812.093861
1177.411454,20525.893674,-3140.155375,6356.899906
1177.411753,18994.110564,-10186.357681,4901.705952
1177.412051,9420.466126,-17002.792521,6127.132440
1177.412350,-2757.209598,-21062.017762,9267.287815
1177.412648,-12866.978124,-18075.040698,11794.729947
1177.412947,-16007.133499,-10186.357681,10722.481770
1177.413245,-19377.056341,-3599.690308,12713.799813
1177.413543,-18840.932253,2604.031287,15700.776877
1177.413843,-8731.163727,11794.729947,14628.528700
1177.414142,459.534933,18457.986475,10033.179370
1177.414442,11871.319102,16466.668432,8577.985416
1177.414741,13249.923901,8960.931193,9497.055282
1177.415040,12943.567279,-995.659021,10109.768526
1177.415339,14705.117856,-6280.310751,7658.915550
1177.415639,16619.846743,-9880.001059,3676.279464
1177.415938,8195.039638,-13862.637145,3982.636086
1177.416245,-3676.279464,-16696.435899,9420.466126
1177.416547,-14092.404612,-12024.497413,11641.551636
1177.416850,-17615.505765,-3446.511997,10645.892614
1177.417153,-19836.591274,-0.000000,12101.086569
1177.417455,-20602.482829,2297.674665,15930.544344
1177.417758,-13632.869679,6663.256528,15394.420255
1177.418060,-1302.015643,12407.443191,14168.993767
1177.418363,11335.195014,14245.582923,10262.946837
1177.418602,20832.250296,11794.729947,8041.861327
1177.418911,21368.374384,5131.473418,8041.861327
1177.419219,19913.180430,153.178311,6816.434839
1177.419528,12330.854035,-3599.690308,6586.667373
1177.419837,153.178311,-8271.628794,8348.217949
1177.420145,-10952.249236,-12484.032346,11641.551636
1177.420454,-18228.219009,-11105.427547,14015.815456
1177.420763,-21751.320162,-7046.202306,14781.707011
1177.421035,-20142.947896,-3140.155375,16083.722655
1177.421335,-11871.319102,4135.814397,15088.063633
1177.421634,-0.000000,11641.551636,12254.264880
1177.421933,11488.373325,14398.761234,9420.466126
1177.422233,17692.094920,13632.869679,9114.109504
1177.422532,20832.250296,9267.287815,7122.791461
1177.422831,18917.521408,612.713244,6356.899906
1177.423131,15011.474478,-7046.202306,6969.613150
1177.423448,5361.240885,-11105.427547,7735.504705
1177.423747,-4748.527641,-14858.296167,9420.466126
1177.424045,-15547.598566,-15317.831100,11947.908258
1177.424344,-20449.304518,-11718.140791,13096.745590
1177.424642,-23589.459894,-7046.202306,14628.528700
1177.424941,-20449.304518,-2374.263820,15394.420255
1177.425239,-9880.001059,4748.527641,12943.567279
1177.425538,2527.442131,8195.039638,9956.590215
1177.425838,14245.582923,7582.326394,8807.752882
1177.426135,22900.157494,7275.969772,5361.240885
1177.426433,26729.615269,4288.992708,3369.922842
1177.426730,18304.808164,-3599.690308,7582.326394
1177.427027,7582.326394,-10186.357681,9573.644437
1177.427325,-2221.085509,-10033.179370,10033.179370
1177.427622,-8884.342038,-9726.822748,10033.179370
1177.427920,-18840.932253,-10645.892614,11488.373325
1177.428250,-25963.723714,-7046.202306,15700.776877
1177.428547,-26346.669492,-4671.938485,18687.753942
1177.428844,-17155.970832,1072.248177,17615.505765
1177.429141,-2757.209598,7735.504705,11258.605858
1177.429438,9114.109504,11335.195014,8348.217949
1177.429735,17079.381676,10875.660081,7812.093861
1177.430032,25274.421315,11028.838392,6816.434839
1177.430329,26576.436958,8501.396260,4595.349330
1177.430637,18917.521408,919.069866,8041.861327
1177.430936,8348.217949,-2986.977064,9650.233593
1177.431236,-2221.085509,-8271.628794,10262.946837
1177.431536,-11564.962480,-9880.001059,12943.567279
1177.431836,-18994.110564,-8118.450483,12407.443191
1177.432136,-22517.211717,-4825.116796,14322.172078
1177.432435,-20602.482829,-2067.907198,16543.257588
1177.432735,-11564.962480,2757.209598,13709.458834
1177.433019,153.178311,10416.125148,9343.876971
1177.433323,11028.838392,11028.838392,6816.434839
1177.433628,16619.846743,9114.109504,8501.396260
1177.433933,18611.164786,6050.543284,7429.148083
1177.434238,18457.986475,3523.101153,7429.148083
1177.434543,13709.458834,-1148.837332,6356.899906
1177.434847,5054.884263,-8118.450483,7582.326394
1177.435152,-6816.434839,-11564.962480,9726.822748
1177.435452,-16160.311810,-14168.993767,12407.443191
1177.435750,-22210.855095,-12177.675724,14551.939545
1177.436048,-19836.591274,-8731.163727,12790.388968
1177.436345,-16160.311810,-5208.062574,14168.993767
1177.436643,-7505.737239,1072.248177,12024.497413
1177.436940,1838.139732,3829.457775,10109.768526
1177.437238,13096.745590,4825.116796,9267.287815
1177.437536,18611.164786,4595.349330,9037.520349
1177.437835,21521.552695,3982.636086,8195.039638
1177.438135,18304.808164,1531.783110,7582.326394
1177.438434,13249.923901,-1148.837332,8041.861327
1177.438733,2680.620442,-3599.690308,8731.163727
1177.439032,-12713.799813,-9726.822748,12713.799813
1177.439331,-21444.963540,-10492.714303,15853.955188
1177.439630,-23589.459894,-5820.775818,15088.063633
1177.439929,-20142.947896,-3140.155375,13709.458834
1177.440215,-13173.334746,612.713244,13249.923901
1177.440515,-995.659021,4595.349330,11641.551636
1177.440814,12177.675724,9420.466126,9956.590215
1177.441113,22440.622561,9114.109504,6127.132440
1177.441413,24048.994827,8807.752882,5744.186662
1177.441712,19913.180430,1991.318043,6816.434839
1177.442012,12024.497413,-2986.977064,9114.109504
1177.442311,5054.884263,-5361.240885,8807.752882
1177.442618,-5284.651729,-8118.450483,8501.396260
1177.442919,-14092.404612,-9650.233593,12101.086569
1177.443219,-21904.498473,-6739.845684,14781.707011
1177.443520,-21062.017762,-229.767466,12560.621502
1177.443820,-16160.311810,4978.295107,12407.443191
1177.444121,-10339.535992,7888.683016,12866.978124
1177.444421,-536.124088,7582.326394,10186.357681
1177.444722,7046.202306,5131.473418,10569.303459
1177.445019,16773.025054,3829.457775,8807.752882
1177.445319,23895.816516,1531.783110,4748.527641
1177.445619,21138.606918,-3599.690308,5437.830040
1177.445920,13096.745590,-7965.272172,8654.574571
1177.446220,2986.977064,-8884.342038,9803.411904
1177.446520,-9497.055282,-9343.876971,11182.016703
1177.446821,-17921.862387,-10339.535992,12713.799813
1177.447121,-25197.832159,-5973.954129,17002.792521
1177.447416,-20296.126207,-0.000000,13862.637145
1177.447717,-11871.319102,5131.473418,12943.567279
1177.448018,-1608.372265,8501.396260,12943.567279
1177.448318,6893.023995,8654.574571,11335.195014
1177.448619,13249.923901,7275.969772,10875.660081
1177.448920,19147.288875,6356.899906,9956.590215
1177.449221,20679.071985,2910.387909,5667.597507
1177.449522,15317.831100,-3599.690308,6280.310751
1177.449810,8807.752882,-7965.272172,9343.876971
1177.450111,153.178311,-9497.055282,8807.752882
1177.450412,-10339.535992,-11411.784169,10645.892614
1177.450713,-18228.219009,-9190.698660,13556.280523
1177.451013,-21904.498473,-4518.760174,15088.063633
1177.451314,-20142.947896,1072.248177,14168.993767
1177.451615,-10952.249236,6663.256528,12713.799813
1177.451916,-76.589155,10722.481770,11028.838392
1177.452225,7429.148083,8654.574571,8041.861327
1177.452524,15011.474478,4442.171019,8960.931193
1177.452824,20985.428607,3523.101153,6510.078217
1177.453123,21827.909317,459.534933,4135.814397
1177.453422,14015.815456,-5361.240885,5514.419196
1177.453722,2144.496354,-8424.807105,9343.876971
1177.454021,-7658.915550,-8271.628794,11335.195014
1177.454321,-13173.334746,-7658.915550,9190.698660
1177.454628,-20908.839451,-5361.240885,12101.086569
1177.454927,-24431.940604,-4671.938485,14628.528700
1177.455227,-23589.459894,-4059.225241,17462.327454
1177.455527,-9037.520349,4135.814397,14858.296167
1177.455826,4901.705952,7122.791461,10416.125148
1177.456126,13862.637145,6510.078217,8960.931193
1177.456426,19453.645497,5131.473418,9267.287815
1177.456725,24355.351449,4825.116796,5361.240885
1177.457022,21291.785229,-76.589155,4901.705952
1177.457319,11794.729947,-5361.240885,9420.466126
1177.457617,-0.000000,-8424.807105,10569.303459
1177.457914,-10645.892614,-9880.001059,12254.264880
1177.458211,-18994.110564,-9037.520349,15088.063633
1177.458509,-22823.568339,-4059.225241,15853.955188
1177.458806,-19989.769585,-689.302399,14168.993767
1177.459103,-14781.707011,4595.349330,15547.598566
1177.459418,-3063.566220,7429.148083,13862.637145
1177.459717,9420.466126,12560.621502,8577.985416
1177.460015,17232.559987,8501.396260,6050.543284
1177.460314,20525.893674,3216.744531,8501.396260
1177.460613,18611.164786,-1761.550576,7505.737239
1177.460911,16236.900966,-4825.116796,6433.489062
1177.461210,10416.125148,-4901.705952,4748.527641
1177.461509,-1302.015643,-9343.876971,8807.752882
1177.461797,-14092.404612,-10339.535992,13096.745590
1177.462099,-20296.126207,-6893.023995,13403.102212
1177.462402,-20908.839451,-382.945777,12790.388968
1177.462704,-18687.753942,2604.031287,11871.319102
1177.463007,-14092.404612,4825.116796,13403.102212
1177.463309,-2910.387909,8654.574571,11794.729947
1177.463612,7888.683016,8960.931193,8041.861327
1177.463914,16236.900966,3829.457775,7965.272172
1177.464214,19606.823808,-842.480710,6510.078217
1177.464513,18994.110564,-3599.690308,5820.775818
1177.464812,14551.939545,-7199.380617,6127.132440
1177.465111,4518.760174,-11564.962480,9114.109504
1177.465410,-7812.093861,-12790.388968,12866.978124
1177.465710,-19070.699719,-12790.388968,14322.172078
1177.466009,-24431.940604,-8577.985416,15853.955188
1177.466308,-20296.126207,-689.302399,14628.528700
1177.466615,-17002.792521,4595.349330,13556.280523
1177.466914,-4748.527641,10722.481770,13096.745590
1177.467214,9267.287815,14092.404612,9573.644437
1177.467513,18151.629853,12407.443191,7888.683016
1177.467812,20372.715363,6663.256528,8960.931193
1177.468111,20679.071985,3369.922842,7582.326394
1177.468411,16236.900966,-3599.690308,7582.326394
1177.468710,9803.411904,-7965.272172,10569.303459
1177.469030,1225.426488,-8271.628794,9573.644437
1177.469327,-9190.698660,-9190.698660,10569.303459
1177.469624,-17768.684076,-7965.272172,13632.869679
1177.469921,-23972.405671,-6280.310751,14475.350389
1177.470218,-23589.459894,-689.302399,14322.172078
1177.470515,-18228.219009,4825.116796,13556.280523
1177.470812,-6969.613150,8501.396260,11182.016703
1177.471109,5820.775818,9573.644437,8960.931193
1177.471428,13862.637145,6356.899906,7888.683016
1177.471727,24048.994827,5284.651729,7275.969772
1177.472025,26576.436958,1684.961421,3369.922842
1177.472323,21981.087628,-2833.798753,4135.814397
1177.472621,9497.055282,-8884.342038,8041.861327
1177.472919,-1148.837332,-9880.001059,9573.644437
1177.473218,-11564.962480,-11105.427547,10722.481770
1177.473516,-22517.211717,-13403.102212,13403.102212
1177.473829,-30405.894733,-10339.535992,16160.311810
1177.474125,-26959.382736,-3293.333686,16083.722655
1177.474421,-15853.955188,2604.031287,13403.102212
1177.474717,-1455.193954,8654.574571,11028.838392
1177.475013,8807.752882,9573.644437,10416.125148
1177.475309,17232.559987,8501.396260,9190.698660
1177.475605,24508.529760,6050.543284,7429.148083
1177.475901,26423.258647,3829.457775,4901.705952
1177.476201,18151.629853,-4671.938485,6739.845684
1177.476501,7046.202306,-9343.876971,10569.303459
1177.476802,-3216.744531,-8884.342038,11182.016703
1177.477103,-14475.350389,-9726.822748,12177.675724
1177.477404,-23129.924961,-8118.450483,15088.063633
1177.477704,-25963.723714,-2680.620442,16236.900966
1177.478005,-20908.839451,3829.457775,15011.474478
1177.478306,-10186.357681,7888.683016,14092.404612
1177.478613,919.069866,11488.373325,11564.962480
1177.478910,12024.497413,11641.551636,9573.644437
1177.479207,20219.537052,6510.078217,9114.109504
1177.479504,24661.708071,3523.101153,6816.434839
1177.479800,24202.173138,-382.945777,4901.705952
1177.480097,16543.257588,-5514.419196,6510.078217
1177.480394,4365.581863,-9497.055282,7275.969772
1177.480691,-6663.256528,-9726.822748,9420.466126
1177.481005,-17002.792521,-9497.055282,11182.016703
1177.481308,-24431.940604,-6433.489062,12254.264880
1177.481611,-25657.367092,-842.480710,13632.869679
1177.481913,-23589.459894,306.356622,15700.776877
1177.482216,-10645.892614,5284.651729,13632.869679
1177.482519,3906.046930,8348.217949,9956.590215
1177.482822,17079.381676,5897.364973,7888.683016
1177.483125,23742.638205,2297.674665,6280.310751
1177.483443,29410.235712,612.713244,3063.566220
1177.483739,23053.335805,-3752.868619,5208.062574
1177.484035,8501.396260,-12943.567279,9267.287815
1177.484331,-3829.457775,-12484.032346,9956.590215
1177.484627,-17615.505765,-12943.567279,12254.264880
1177.484924,-26806.204425,-11871.319102,14628.528700
1177.485220,-28491.165846,-5973.954129,17002.792521
1177.485516,-23819.227360,612.713244,15547.598566
1177.485788,-12101.086569,6510.078217,15241.241944
1177.486089,2680.620442,12101.086569,13862.637145
1177.486390,15011.474478,15088.063633,10262.946837
1177.486691,23512.870738,11794.729947,7429.148083
1177.486992,27189.150202,6356.899906,7275.969772
1177.487293,23206.514116,2450.852976,8041.861327
1177.487594,16543.257588,-6280.310751,7122.791461
1177.487894,6280.310751,-7658.915550,7429.148083
1177.488194,-2910.387909,-8884.342038,9267.287815
1177.488494,-18840.932253,-11258.605858,13939.226301
1177.488794,-26346.669492,-10645.892614,16619.846743
1177.489094,-26346.669492,-1148.837332,16083.722655
1177.489395,-19530.234652,4442.171019,12943.567279
1177.489695,-13020.156435,8348.217949,13020.156435
1177.489995,919.069866,12101.086569,10875.660081
1177.490295,16083.722655,12254.264880,6663.256528
1177.490625,25274.421315,7735.504705,6356.899906
1177.490918,27342.328513,1378.604799,4825.116796
1177.491211,23206.514116,-3293.333686,4901.705952
1177.491504,15011.474478,-6433.489062,5897.364973
1177.491797,4365.581863,-9726.822748,6586.667373
1177.492090,-11105.427547,-11411.784169,10109.768526
1177.492383,-23436.281583,-14322.172078,13403.102212
1177.492676,-29640.003178,-10339.535992,15164.652789
1177.492983,-27418.917669,-6586.667373,14934.885322
1177.493288,-23742.638205,-3752.868619,16083.722655
1177.493593,-9037.520349,3523.101153,14781.707011
1177.493897,8807.752882,9956.590215,9803.411904
1177.494202,23053.335805,11182.016703,6893.023995
1177.494506,28950.700779,9573.644437,6127.132440
1177.494811,29103.879090,5284.651729,4595.349330
1177.495116,18994.110564,-842.480710,8884.342038
1177.495399,9420.466126,-6586.667373,11488.373325
1177.495695,153.178311,-6433.489062,10262.946837
1177.495992,-11947.908258,-7812.093861,10339.535992
1177.496288,-22210.855095,-9650.233593,14322.172078
1177.496584,-29793.181489,-6280.310751,18534.575631
1177.496881,-26959.382736,-2527.442131,16083.722655
1177.497177,-19223.878030,3369.922842,15547.598566
1177.497473,-5591.008351,7888.683016,13249.923901
1177.497801,8041.861327,11028.838392,9650.233593
1177.498097,19913.180430,8807.752882,7658.915550
1177.498393,28261.398379,8195.039638,5820.775818
1177.498689,28491.165846,1991.318043,4212.403552
1177.498986,19147.288875,-4365.581863,6816.434839
1177.499282,9956.590215,-8577.985416,6663.256528
1177.499578,1531.783110,-8118.450483,7429.148083
1177.499874,-11411.784169,-9037.520349,10109.768526
1177.500186,-20755.661140,-11105.427547,10722.481770
1177.500486,-27572.095980,-5667.597507,14628.528700
1177.500786,-25351.010470,-536.124088,16007.133499
1177.501086,-19070.699719,2604.031287,14628.528700
1177.501386,-5284.651729,10569.303459,10262.946837
1177.501685,7275.969772,11182.016703,7275.969772
1177.501985,15011.474478,4825.116796,7888.683016
1177.502285,21138.606918,919.069866,9114.109504
1177.502560,24814.886382,-842.480710,6280.310751
1177.502863,22900.157494,-7505.737239,4978.295107
1177.503166,10569.303459,-10799.070925,8960.931193
1177.503470,-382.945777,-9650.233593,9956.590215
1177.503773,-13632.869679,-10186.357681,10875.660081
1177.504077,-23819.227360,-9037.520349,13479.691368
1177.504380,-27572.095980,-4518.760174,16236.900966
1177.504684,-26193.491181,1378.604799,17615.505765
1177.504991,-12713.799813,9956.590215,14245.582923
1177.505291,1225.426488,14245.582923,11794.729947
1177.505591,9956.590215,13479.691368,11488.373325
1177.505891,20679.071985,9650.233593,11028.838392
1177.506191,25427.599626,7582.326394,7735.504705
1177.506491,22440.622561,1378.604799,7199.380617
1177.506791,14551.939545,-6893.023995,9650.233593
1177.507091,4365.581863,-9650.233593,8195.039638
1177.507388,-4288.992708,-12024.497413,9190.698660
1177.507687,-15853.955188,-14475.350389,12560.621502
1177.507986,-25351.010470,-10492.714303,14934.885322
1177.508284,-21368.374384,-2680.620442,13403.102212
1177.508583,-16696.435899,2604.031287,10952.249236
1177.508882,-6969.613150,8041.861327,10033.179370
1177.509181,3293.333686,10416.125148,9573.644437
1177.509480,12484.032346,8041.861327,8654.574571
1177.509775,20525.893674,4825.116796,8041.861327
1177.510075,25274.421315,2604.031287,5208.062574
1177.510375,20985.428607,-1608.372265,5361.240885
1177.510675,12024.497413,-7199.380617,7122.791461
1177.510975,1531.783110,-10033.179370,7812.093861
1177.511275,-12101.086569,-13709.458834,10799.070925
1177.511575,-22057.676784,-15777.366033,12560.621502
1177.511876,-28184.809224,-12790.388968,13939.226301
1177.512164,-26806.204425,-6893.023995,13786.047990
1177.512464,-17921.862387,1225.426488,15241.241944
1177.512764,-2604.031287,9803.411904,11488.373325
1177.513064,9420.466126,13939.226301,10109.768526
1177.513364,14705.117856,12407.443191,9956.590215
1177.513664,21138.606918,11794.729947,9267.287815
1177.513964,23666.049049,10722.481770,8041.861327
1177.514264,18304.808164,2604.031287,9573.644437
1177.514564,10109.768526,-2986.977064,11182.016703
1177.514863,3599.690308,-2680.620442,9803.411904
1177.515163,-7505.737239,-5667.597507,10339.535992
1177.515463,-18687.753942,-9880.001059,14015.815456
1177.515763,-25351.010470,-7658.915550,15547.598566
1177.516063,-24891.475537,-3140.155375,16696.435899
1177.516362,-16160.311810,459.534933,14168.993767
1177.516662,-6356.899906,6356.899906,11335.195014
1177.516969,7122.791461,9956.590215,7429.148083
1177.517272,15164.652789,6969.613150,8807.752882
1177.517574,17845.273231,2757.209598,10416.125148
1177.517876,20985.428607,-382.945777,7888.683016
1177.518179,19453.645497,-1148.837332,6663.256528
1177.518481,13249.923901,-5054.884263,5437.830040
1177.518783,1991.318043,-7199.380617,5820.775818
1177.519085,-8577.985416,-9726.822748,10033.179370
1177.519402,-16849.614210,-10033.179370,10875.660081
1177.519695,-19377.056341,-8424.807105,11182.016703
1177.519989,-22670.390028,-8271.628794,12713.799813
1177.520283,-16696.435899,-3599.690308,12943.567279
1177.520576,-4748.527641,1378.604799,11335.195014
1177.520870,6586.667373,3829.457775,9420.466126
1177.521164,13096.745590,2604.031287,9956.590215
1177.521457,18151.629853,4135.814397,8424.807105
1177.521776,18457.986475,4135.814397,6816.434839
1177.522074,14398.761234,612.713244,8884.342038
1177.522373,6280.310751,-0.000000,8731.163727
1177.522671,-4288.992708,-2374.263820,9956.590215
1177.522969,-13020.156435,-4825.116796,12713.799813
1177.523267,-18840.932253,-3599.690308,13326.513057
1177.523566,-19070.699719,-1914.728887,13862.637145
1177.523864,-14475.350389,765.891555,14934.885322
1177.524177,-6969.613150,3829.457775,15241.241944
1177.524475,2297.674665,8041.861327,12866.978124
1177.524774,9114.109504,8195.039638,10875.660081
1177.525072,15624.187722,6969.613150,9420.466126
1177.525371,16390.079277,4442.171019,8807.752882
1177.525669,14245.582923,-689.302399,9420.466126
1177.525968,10722.481770,-1914.728887,7888.683016
1177.526266,6893.023995,-3140.155375,6663.256528
1177.526566,-3523.101153,-7965.272172,9956.590215
1177.526865,-15853.955188,-12177.675724,13249.923901
1177.527164,-19223.878030,-7199.380617,13403.102212
1177.527464,-17309.149143,-3446.511997,12866.978124
1177.527763,-12407.443191,-1148.837332,12101.086569
1177.528062,-3676.279464,3982.636086,11182.016703
1177.528361,5973.954129,7429.148083,6969.613150
1177.528660,14551.939545,6969.613150,7582.326394
1177.528968,17845.273231,3523.101153,6816.434839
1177.529270,18611.164786,1838.139732,6663.256528
1177.529573,12637.210657,-2527.442131,9573.644437
1177.529875,7429.148083,-7812.093861,10033.179370
1177.530178,919.069866,-5820.775818,8424.807105
1177.530480,-7965.272172,-9497.055282,9497.055282
1177.530783,-20142.947896,-12330.854035,12790.388968
1177.531086,-23972.405671,-6739.845684,14092.404612
1177.531325,-22364.033406,-2986.977064,15394.420255
1177.531633,-13020.156435,4825.116796,13556.280523
1177.531942,-1455.193954,10262.946837,10875.660081
1177.532251,4365.581863,14475.350389,11105.427547
1177.532559,12637.210657,13939.226301,10416.125148
1177.532868,18917.521408,13939.226301,7888.683016
1177.533177,16236.900966,6356.899906,9420.466126
1177.533485,12024.497413,-2833.798753,11411.784169
1177.533723,8501.396260,-5208.062574,10109.768526
1177.534029,1838.139732,-7352.558928,9190.698660
1177.534334,-6203.721595,-12637.210657,11182.016703
1177.534639,-16696.435899,-14168.993767,15088.063633
1177.534944,-17002.792521,-9497.055282,13403.102212
1177.535249,-15853.955188,-5667.597507,12713.799813
1177.535554,-10645.892614,-536.124088,12637.210657
1177.535859,-2221.085509,5591.008351,9650.233593
1177.536176,7275.969772,6663.256528,9114.109504
1177.536475,15624.187722,7888.683016,8195.039638
1177.536773,20066.358741,5437.830040,6816.434839
1177.537072,18611.164786,919.069866,7352.558928
1177.537370,14398.761234,-3599.690308,7735.504705
1177.537669,10262.946837,-4212.403552,6969.613150
1177.537968,-995.659021,-9497.055282,8960.931193
1177.538266,-13326.513057,-14551.939545,11182.016703
1177.538566,-20755.661140,-13096.745590,12560.621502
1177.538863,-20602.482829,-10339.535992,11182.016703
1177.539161,-18687.753942,-8271.628794,12407.443191
1177.539458,-10339.535992,-382.945777,12101.086569
1177.539756,-689.302399,5591.008351,10262.946837
1177.540053,8195.039638,8041.861327,10569.303459
1177.540351,14705.117856,9420.466126,10109.768526
1177.540648,18304.808164,10416.125148,7352.558928
1177.540955,15471.009411,7122.791461,8807.752882
1177.541257,10875.660081,5591.008351,9190.698660
1177.541558,4671.938485,4288.992708,8960.931193
1177.541860,-6050.543284,-842.480710,12713.799813
1177.542162,-14092.404612,-3446.511997,12713.799813
1177.542464,-18075.040698,-3599.690308,13862.637145
1177.542765,-18075.040698,-3446.511997,15853.955188
1177.543067,-12713.799813,-2527.442131,14628.528700
1177.543347,-1608.372265,3063.566220,12254.264880
1177.543647,8654.574571,5131.473418,8960.931193
1177.543947,14398.761234,3216.744531,8807.752882
1177.544247,15777.366033,2757.209598,9803.411904
1177.544547,16619.846743,612.713244,8195.039638
1177.544846,14245.582923,459.534933,9114.109504
1177.545146,9420.466126,-842.480710,7582.326394
1177.545446,-1914.728887,-3446.511997,9650.233593
1177.545763,-10492.714303,-5973.954129,11028.838392
1177.546062,-17615.505765,-7199.380617,12101.086569
1177.546361,-17921.862387,-6280.310751,12407.443191
1177.546660,-18381.397320,-8577.985416,12560.621502
1177.546960,-11947.908258,-5208.062574,13709.458834
1177.547259,1072.248177,-76.589155,9880.001059
1177.547558,9956.590215,459.534933,8041.861327
1177.547857,15777.366033,-842.480710,8501.396260
1177.548174,16619.846743,-229.767466,8041.861327
1177.548472,15317.831100,459.534933,7505.737239
1177.548770,10416.125148,-995.659021,7582.326394
1177.549068,2680.620442,-0.000000,7275.969772
1177.549365,-7352.558928,-2067.907198,10109.768526
1177.549663,-13939.226301,-3752.868619,12407.443191
1177.549961,-16849.614210,-1148.837332,14322.172078
1177.550259,-17002.792521,-995.659021,14781.707011
1177.550558,-12254.264880,919.069866,14168.993767
1177.550858,-2910.387909,5437.830040,10875.660081
1177.551157,5667.597507,7888.683016,9420.466126
1177.551456,7046.202306,2144.496354,10875.660081
1177.551755,10109.768526,-382.945777,12407.443191
1177.552054,14245.582923,612.713244,9114.109504
1177.552354,15011.474478,-3446.511997,6510.078217
1177.552653,11488.373325,-2067.907198,8348.217949
1177.552966,6280.310751,-1148.837332,8348.217949
1177.553265,-3216.744531,-1302.015643,7888.683016
1177.553564,-11947.908258,-3140.155375,11641.551636
1177.553862,-20449.304518,-4518.760174,14781.707011
1177.554161,-20755.661140,-4671.938485,14322.172078
1177.554460,-14628.528700,-3599.690308,14015.815456
1177.554759,-3216.744531,-229.767466,12560.621502
1177.555057,7429.148083,612.713244,9420.466126
1177.555364,16083.722655,2604.031287,8041.861327
1177.555662,19300.467186,4135.814397,6586.667373
1177.555959,17845.273231,-76.589155,5973.954129
1177.556256,10722.481770,-2833.798753,9803.411904
1177.556553,5973.954129,-3293.333686,8807.752882
1177.556850,-0.000000,-3906.046930,8195.039638
1177.557148,-9037.520349,-6433.489062,10875.660081
1177.557445,-16849.614210,-7199.380617,12713.799813
1177.557707,-17921.862387,-2221.085509,13403.102212
1177.558013,-18075.040698,-382.945777,14781.707011
1177.558319,-11105.427547,5284.651729,13403.102212
1177.558625,-0.000000,11028.838392,10492.714303
1177.558931,5667.597507,12560.621502,9803.411904
1177.559237,12177.675724,9650.233593,9956.590215
1177.559543,15624.187722,6663.256528,8654.574571
1177.559849,15011.474478,2450.852976,7735.504705
1177.560144,9803.411904,-3906.046930,9803.411904
1177.560445,4212.403552,-5667.597507,9267.287815
1177.560745,-4288.992708,-7352.558928,8960.931193
1177.561046,-10952.249236,-10033.179370,10569.303459
1177.561347,-17155.970832,-9497.055282,13096.745590
1177.561648,-17768.684076,-6433.489062,14628.528700
1177.561949,-13173.334746,-3446.511997,13479.691368
1177.562250,-3216.744531,1684.961421,12254.264880
1177.562538,5667.597507,4748.527641,9037.520349
1177.562839,11641.551636,3676.279464,8118.450483
1177.563139,14705.117856,2297.674665,8960.931193
1177.563440,16926.203365,1838.139732,6816.434839
1177.563741,12330.854035,-4212.403552,7965.272172
1177.564042,6127.132440,-7658.915550,9956.590215
1177.564343,2297.674665,-6586.667373,8577.985416
1177.564644,-5437.830040,-7812.093861,8501.396260
1177.564976,-12866.978124,-10492.714303,10875.660081
1177.565271,-18534.575631,-9650.233593,13786.047990
1177.565567,-19530.234652,-7199.380617,14398.761234
1177.565862,-16619.846743,-4518.760174,15624.187722
1177.566157,-5437.830040,3369.922842,11947.908258
1177.566453,7735.504705,9956.590215,9803.411904
1177.566748,14245.582923,12407.443191,8041.861327
1177.567043,19147.288875,13326.513057,6739.845684
1177.567384,18457.986475,11335.195014,7735.504705
1177.567679,12790.388968,4442.171019,9114.109504
1177.567974,3906.046930,-1148.837332,9880.001059
1177.568269,-2604.031287,-2986.977064,9803.411904
1177.568563,-10186.357681,-5667.597507,10875.660081
1177.568858,-14781.707011,-6127.132440,11411.784169
1177.569153,-18381.397320,-3906.046930,12943.567279
1177.569448,-15394.420255,-689.302399,14628.528700
1177.569745,-7658.915550,3829.457775,13709.458834
1177.570042,2527.442131,8195.039638,11028.838392
1177.570339,10416.125148,9114.109504,8424.807105
1177.570637,16236.900966,5591.008351,6816.434839
1177.570934,15317.831100,459.534933,7582.326394
1177.571232,11794.729947,-4365.581863,9420.466126
1177.571529,7429.148083,-9190.698660,10875.660081
1177.571827,2986.977064,-6893.023995,9267.287815
1177.572141,-3369.922842,-8271.628794,8195.039638
1177.572440,-13020.156435,-8577.985416,11718.140791
1177.572738,-17155.970832,-5208.062574,13096.745590
1177.573037,-16619.846743,-2374.263820,11335.195014
1177.573336,-15241.241944,-2374.263820,13403.102212
1177.573634,-10799.070925,-1302.015643,15853.955188
1177.573933,1838.139732,3676.279464,12560.621502
1177.574232,9956.590215,2757.209598,9803.411904
1177.574543,15011.474478,612.713244,9267.287815
1177.574843,17232.559987,-1148.837332,8960.931193
1177.575143,14398.761234,-2221.085509,10416.125148
1177.575443,12177.675724,-1148.837332,8041.861327
1177.575743,7046.202306,459.534933,6433.489062
1177.576043,-3063.566220,306.356622,8118.450483
1177.576343,-11105.427547,-4059.225241,10569.303459
1177.576643,-16619.846743,-1914.728887,13096.745590
1177.576976,-17309.149143,-229.767466,14934.885322
1177.577270,-13632.869679,1378.604799,13096.745590
1177.577565,-6510.078217,4442.171019,12790.388968
1177.577859,3599.690308,6816.434839,11182.016703
1177.578154,9650.233593,6356.899906,9190.698660
1177.578448,12790.388968,3523.101153,9880.001059
1177.578743,13556.280523,765.891555,8501.396260
1177.579038,10416.125148,-4212.403552,7275.969772
1177.579345,5667.597507,-6127.132440,7199.380617
1177.579645,-842.480710,-6433.489062,6969.613150
1177.579946,-12101.086569,-11258.605858,10722.481770
1177.580247,-18228.219009,-10339.535992,12943.567279
1177.580548,-15700.776877,-4518.760174,12790.388968
1177.580848,-10799.070925,459.534933,11411.784169
1177.581149,-3829.457775,2910.387909,11641.551636
1177.581450,4518.760174,6356.899906,10799.070925
1177.581720,10722.481770,6203.721595,9114.109504
1177.582020,13556.280523,3676.279464,10109.768526
1177.582320,11641.551636,-842.480710,10416.125148
1177.582621,9267.287815,-4825.116796,9420.466126
1177.582921,7046.202306,-7965.272172,9803.411904
1177.583221,2374.263820,-6586.667373,9803.411904
1177.583522,-1914.728887,-4518.760174,8424.807105
1177.583822,-8884.342038,-2527.442131,10875.660081
1177.584141,-13939.226301,-1608.372265,13632.869679
1177.584439,-12713.799813,3829.457775,13249.923901
1177.584737,-12713.799813,6050.543284,14398.761234
1177.585035,-6663.256528,8960.931193,13556.280523
1177.585333,2833.798753,9803.411904,10722.481770
1177.585632,4748.527641,6510.078217,12713.799813
1177.585930,11794.729947,3216.744531,10109.768526
1177.586228,15777.366033,2910.387909,6816.434839
1177.586541,13709.458834,-1608.372265,6663.256528
1177.586840,9420.466126,-8424.807105,7888.683016
1177.587138,459.534933,-8118.450483,9650.233593
1177.587436,-4748.527641,-7046.202306,7429.148083
1177.587735,-11411.784169,-9880.001059,9880.001059
1177.588033,-16160.311810,-6586.667373,12637.210657
1177.588332,-16466.668432,-2374.263820,10875.660081
1177.588630,-11411.784169,1072.248177,12407.443191
1177.588918,-4442.171019,3982.636086,12713.799813
1177.589220,3293.333686,6050.543284,11718.140791
1177.589522,9420.466126,4748.527641,9880.001059
1177.589825,12024.497413,2910.387909,8577.985416
1177.590127,14858.296167,-229.767466,7505.737239
1177.590429,8348.217949,-8118.450483,10262.946837
1177.590731,4901.705952,-9497.055282,10875.660081
1177.591033,2986.977064,-7812.093861,8501.396260
1177.591340,-5437.830040,-8884.342038,9573.644437
1177.591637,-10952.249236,-8118.450483,11182.016703
1177.591934,-13939.226301,-3599.690308,13249.923901
1177.592231,-13786.047990,1378.604799,13862.637145
1177.592528,-9880.001059,6050.543284,14934.885322
1177.592825,-1914.728887,11028.838392,12713.799813
1177.593121,6739.845684,14628.528700,9573.644437
1177.593418,11871.319102,10722.481770,9803.411904
1177.593732,10262.946837,4442.171019,11564.962480
1177.594032,12177.675724,-689.302399,9267.287815
1177.594331,11028.838392,-5973.954129,8960.931193
1177.594631,6739.845684,-10952.249236,7658.915550
1177.594930,2297.674665,-10339.535992,7888.683016
1177.595229,-5131.473418,-11105.427547,8884.342038
1177.595529,-12866.978124,-8577.985416,10416.125148
1177.595828,-14322.172078,-3446.511997,10799.070925
1177.596147,-15394.420255,306.356622,12713.799813
1177.596442,-12101.086569,4978.295107,13862.637145
1177.596737,-1608.372265,11028.838392,10262.946837
1177.597033,3293.333686,11794.729947,9114.109504
1177.597328,11028.838392,6663.256528,9497.055282
1177.597623,15011.474478,4748.527641,8960.931193
1177.597918,13403.102212,306.356622,9573.644437
1177.598214,11794.729947,-5973.954129,8807.752882
1177.598531,5667.597507,-8424.807105,8041.861327
1177.598829,-2604.031287,-10033.179370,8807.752882
1177.599126,-11718.140791,-13403.102212,11028.838392
1177.599424,-17615.505765,-10186.357681,12943.567279
1177.599722,-18840.932253,-4901.705952,13096.745590
1177.600020,-13786.047990,765.891555,14015.815456
1177.600317,-7965.272172,6663.256528,15624.187722
1177.600615,4748.527641,14398.761234,11488.373325
1177.600915,12484.032346,15700.776877,8807.752882
1177.601215,13709.458834,11488.373325,11028.838392
1177.601515,14858.296167,6050.543284,10262.946837
1177.601815,13862.637145,-689.302399,8577.985416
1177.602115,11641.551636,-6586.667373,8807.752882
1177.602415,2986.977064,-11718.140791,8654.574571
1177.602716,-6203.721595,-12024.497413,8807.752882
1177.603016,-12101.086569,-12177.675724,11105.427547
1177.603306,-16160.311810,-8424.807105,12484.032346
1177.603609,-16696.435899,-4059.225241,12790.388968
1177.603911,-13326.513057,1378.604799,13556.280523
1177.604214,-5591.008351,7582.326394,11335.195014
1177.604516,5054.884263,11335.195014,9573.644437
1177.604819,11335.195014,9956.590215,8041.861327
1177.605122,14245.582923,4825.116796,8960.931193
1177.605424,15164.652789,1378.604799,8884.342038
1177.605732,11641.551636,-3906.046930,9114.109504
1177.606032,5667.597507,-9726.822748,8807.752882
1177.606331,-2221.085509,-10645.892614,8807.752882
1177.606630,-8118.450483,-11411.784169,8501.396260
1177.606929,-14245.582923,-9726.822748,10262.946837
1177.607229,-17462.327454,-6433.489062,12024.497413
1177.607528,-17002.792521,-536.124088,13403.102212
1177.607827,-11564.962480,4288.992708,14475.350389
1177.608111,459.534933,11028.838392,10722.481770
1177.608414,5208.062574,12101.086569,10416.125148
1177.608716,12943.567279,11028.838392,10109.768526
1177.609019,16390.079277,8348.217949,9267.287815
1177.609322,16390.079277,3063.566220,9573.644437
1177.609625,11028.838392,-4901.705952,9803.411904
1177.609928,2986.977064,-8118.450483,11488.373325
1177.610231,-2450.852976,-9497.055282,9650.233593
1177.610518,-8884.342038,-9497.055282,9267.287815
1177.610815,-15853.955188,-9037.520349,12254.264880
1177.611113,-16160.311810,-4059.225241,12713.799813
1177.611410,-14245.582923,919.069866,12560.621502
1177.611708,-7965.272172,5437.830040,13709.458834
1177.612005,1072.248177,9114.109504,12254.264880
1177.612302,7735.504705,9114.109504,10569.303459
1177.612600,14015.815456,6356.899906,8654.574571
1177.612912,16926.203365,3982.636086,6739.845684
1177.613211,13249.923901,-2527.442131,8654.574571
1177.613510,8654.574571,-7812.093861,9650.233593
1177.613809,4748.527641,-8577.985416,8195.039638
1177.614108,-2757.209598,-9037.520349,6969.613150
1177.614407,-9573.644437,-11411.784169,8577.985416
1177.614706,-17002.792521,-9497.055282,12637.210657
1177.615006,-17002.792521,-4365.581863,12790.388968
1177.615319,-13632.869679,-842.480710,13096.745590
1177.615617,-8884.342038,3676.279464,15547.598566
1177.615915,-0.000000,8348.217949,13249.923901
1177.616213,9267.287815,10262.946837,9573.644437
1177.616511,15471.009411,10262.946837,8960.931193
1177.616809,17845.273231,8041.861327,7429.148083
1177.617107,12484.032346,1378.604799,8807.752882
1177.617404,8807.752882,153.178311,8960.931193
1177.617712,2297.674665,-1302.015643,8884.342038
1177.618011,-8118.450483,-6280.310751,10416.125148
1177.618311,-14092.404612,-8424.807105,11335.195014
1177.618611,-16466.668432,-6586.667373,13249.923901
1177.618910,-15853.955188,-4901.705952,13709.458834
1177.619210,-10492.714303,-1608.372265,14551.939545
1177.619510,-1148.837332,4442.171019,12254.264880
1177.619810,5973.954129,6203.721595,9650.233593
1177.620106,9956.590215,3982.636086,9573.644437
1177.620406,11641.551636,2604.031287,8501.396260
1177.620705,9956.590215,-1761.550576,8807.752882
1177.621005,8501.396260,-6433.489062,9114.109504
1177.621305,5667.597507,-8884.342038,8960.931193
1177.621604,1531.783110,-8118.450483,7429.148083
1177.621904,-4595.349330,-10645.892614,8195.039638
1177.622203,-10186.357681,-8731.163727,11488.373325
1177.622531,-9343.876971,-3599.690308,11641.551636
1177.622826,-9573.644437,-536.124088,10952.249236
1177.623122,-8884.342038,1225.426488,13326.513057
1177.623417,-1608.372265,4748.527641,12254.264880
1177.623713,2680.620442,5897.364973,9880.001059
1177.624008,9497.055282,4288.992708,9267.287815
1177.624304,11488.373325,4135.814397,9420.466126
1177.624599,9956.590215,2910.387909,10875.660081
1177.624911,8501.396260,612.713244,8501.396260
1177.625208,4901.705952,2144.496354,9573.644437
1177.625506,-3982.636086,-76.589155,11028.838392
1177.625803,-10645.892614,-3752.868619,12024.497413
1177.626101,-11258.605858,-995.659021,11794.729947
1177.626398,-10492.714303,1072.248177,10109.768526
1177.626695,-8884.342038,306.356622,13249.923901
1177.626993,-4978.295107,3216.744531,14015.815456
1177.627292,3752.868619,8654.574571,10262.946837
1177.627593,7429.148083,6510.078217,9956.590215
1177.627893,6586.667373,2757.209598,10875.660081
1177.628193,8195.039638,1072.248177,9956.590215
1177.628493,7429.148083,-3906.046930,8118.450483
1177.628793,6586.667373,-7658.915550,9267.287815
1177.629093,1991.318043,-10339.535992,10262.946837
1177.629393,-5131.473418,-10033.179370,9650.233593
1177.629700,-7505.737239,-9650.233593,10722.481770
1177.629998,-10339.535992,-5973.954129,11641.551636
1177.630296,-10186.357681,-3140.155375,11335.195014
1177.630594,-7965.272172,306.356622,12024.497413
1177.630892,-1608.372265,4595.349330,10492.714303
1177.631191,3752.868619,6203.721595,9956.590215
1177.631489,7582.326394,2910.387909,9726.822748
1177.631787,10722.481770,1225.426488,9267.287815
1177.632103,11871.319102,-1148.837332,9650.233593
1177.632404,9497.055282,-6127.132440,11028.838392
1177.632705,5514.419196,-7046.202306,9650.233593
1177.633006,3446.511997,-5361.240885,8654.574571
1177.633307,-3523.101153,-5361.240885,9267.287815
1177.633608,-10186.357681,-3599.690308,11947.908258
1177.633909,-13173.334746,919.069866,11564.962480
1177.634210,-11718.140791,5591.008351,12790.388968
1177.634525,-9037.520349,7275.969772,14322.172078
1177.634821,-2910.387909,10875.660081,10569.303459
1177.635117,2527.442131,10722.481770,10109.768526
1177.635413,6893.023995,7582.326394,9956.590215
1177.635710,9650.233593,3523.101153,9420.466126
1177.636006,9267.287815,-2680.620442,9267.287815
1177.636302,5667.597507,-7352.558928,9420.466126
1177.636599,1684.961421,-9037.520349,10109.768526
1177.636887,-1455.193954,-9190.698660,9114.109504
1177.637187,-5284.651729,-9497.055282,9267.287815
1177.637486,-9190.698660,-5973.954129,10799.070925
1177.637786,-8118.450483,-2374.263820,10875.660081
1177.638086,-7122.791461,153.178311,11411.784169
1177.638386,-2910.387909,3982.636086,12713.799813
1177.638686,2833.798753,5744.186662,11028.838392
1177.638986,7275.969772,5591.008351,9573.644437
1177.639286,9956.590215,3523.101153,9343.876971
1177.639585,11182.016703,1072.248177,8501.396260
1177.639884,7275.969772,-4059.225241,10722.481770
1177.640183,2680.620442,-7658.915550,11488.373325
1177.640483,-1302.015643,-6586.667373,11411.784169
1177.640782,-5744.186662,-6280.310751,9956.590215
1177.641081,-8118.450483,-6586.667373,10416.125148
1177.641380,-10186.357681,-2527.442131,12560.621502
1177.641687,-8884.342038,1072.248177,10875.660081
1177.641987,-5897.364973,3063.566220,12713.799813
1177.642287,-382.945777,4825.116796,13096.745590
1177.642587,5667.597507,6663.256528,10569.303459
1177.642887,10722.481770,5591.008351,8654.574571
1177.643188,10722.481770,4748.527641,9497.055282
1177.643488,8195.039638,919.069866,9956.590215
1177.643788,4518.760174,-2221.085509,9650.233593
1177.644108,1684.961421,-842.480710,9650.233593
1177.644409,-1914.728887,-2833.798753,8424.807105
1177.644709,-9726.822748,-6586.667373,10033.179370
1177.645009,-11871.319102,-5514.419196,12254.264880
1177.645309,-10033.179370,-1761.550576,10722.481770
1177.645610,-9497.055282,-2986.977064,11564.962480
1177.645910,-7505.737239,-2221.085509,13709.458834
1177.646210,-842.480710,2450.852976,12101.086569
1177.646529,6893.023995,3982.636086,8348.217949
1177.646823,9803.411904,2910.387909,8731.163727
1177.647116,9803.411904,-842.480710,9803.411904
1177.647410,7735.504705,-3140.155375,9267.287815
1177.647703,5820.775818,-4825.116796,9573.644437
1177.647997,3599.690308,-5973.954129,10109.768526
1177.648290,-536.124088,-5208.062574,9037.520349
1177.648584,-5897.364973,-5514.419196,8960.931193
1177.648901,-8884.342038,-2680.620442,12713.799813
1177.649200,-8118.450483,-842.480710,12407.443191
1177.649498,-6969.613150,-76.589155,11258.605858
1177.649797,-4748.527641,1991.318043,14168.993767
1177.650096,1225.426488,4825.116796,11794.729947
1177.650394,5208.062574,6356.899906,10416.125148
1177.650693,9497.055282,4288.992708,9573.644437
1177.650991,9420.466126,3523.101153,9726.822748
1177.651291,7735.504705,2297.674665,9114.109504
1177.651589,4518.760174,-382.945777,9267.287815
1177.651886,2297.674665,-536.124088,9420.466126
1177.652183,-3216.744531,-3599.690308,9114.109504
1177.652481,-10339.535992,-6280.310751,12790.388968
1177.652778,-10492.714303,-3293.333686,12713.799813
1177.653076,-8424.807105,-0.000000,9420.466126
1177.653373,-7199.380617,-1302.015643,12254.264880
1177.653680,-5744.186662,-76.589155,13403.102212
1177.653982,-76.589155,3063.566220,11182.016703
1177.654283,7735.504705,4135.814397,7275.969772
1177.654585,9803.411904,2297.674665,6663.256528
1177.654887,9267.287815,153.178311,9650.233593
1177.655189,7275.969772,-995.659021,8501.396260
1177.655490,4901.705952,-2833.798753,9650.233593
1177.655792,-382.945777,-4901.705952,11182.016703
1177.656072,-6356.899906,-4671.938485,10875.660081
1177.656377,-9343.876971,-4059.225241,10875.660081
1177.656682,-9573.644437,-842.480710,11028.838392
1177.656988,-10033.179370,-2067.907198,12254.264880
1177.657293,-7658.915550,-536.124088,14781.707011
1177.657598,-689.302399,3829.457775,10952.249236
1177.657903,4365.581863,4288.992708,9880.001059
1177.658208,6739.845684,1531.783110,10262.946837
1177.658475,9420.466126,1378.604799,10339.535992
1177.658776,11335.195014,1991.318043,8271.628794
1177.659077,7122.791461,-3446.511997,9190.698660
1177.659378,3752.868619,-3446.511997,11028.838392
1177.659678,-0.000000,-2374.263820,9573.644437
1177.659979,-3063.566220,-3752.868619,8731.163727
1177.660280,-7658.915550,-3293.333686,10722.481770
1177.660581,-11564.962480,-2221.085509,11947.908258
1177.660881,-12866.978124,-2986.977064,13249.923901
1177.661182,-7965.272172,-1761.550576,13096.745590
1177.661483,-1914.728887,765.891555,12790.388968
1177.661784,4365.581863,2297.674665,9267.287815
1177.662085,9803.411904,765.891555,6816.434839
1177.662386,14168.993767,4595.349330,7582.326394
1177.662687,11871.319102,306.356622,7888.683016
1177.662988,4901.705952,-3752.868619,10109.768526
1177.663230,-995.659021,-4671.938485,11335.195014
1177.663535,-5897.364973,-4212.403552,9880.001059
1177.663840,-10492.714303,-5973.954129,10569.303459
1177.664145,-11718.140791,-3293.333686,12101.086569
1177.664450,-8424.807105,-76.589155,11028.838392
1177.664755,-5744.186662,1072.248177,12713.799813
1177.665060,-842.480710,5131.473418,13020.156435
1177.665364,4748.527641,6510.078217,9650.233593
1177.665678,7122.791461,4978.295107,9956.590215
1177.665977,9497.055282,2297.674665,9803.411904
1177.666276,11182.016703,1991.318043,9573.644437
1177.666574,11028.838392,-1148.837332,9114.109504
1177.666873,8041.861327,-5054.884263,8577.985416
1177.667172,153.178311,-6586.667373,11564.962480
1177.667471,-7658.915550,-5514.419196,12790.388968
1177.667769,-11871.319102,-5208.062574,9880.001059
1177.668076,-16007.133499,-2527.442131,11641.551636
1177.668380,-15700.776877,306.356622,11794.729947
1177.668683,-11411.784169,2297.674665,12943.567279
1177.668986,-4135.814397,3523.101153,11028.838392
1177.669289,5514.419196,3829.457775,9343.876971
1177.669592,10722.481770,-995.659021,10952.249236
1177.669895,15930.544344,-3140.155375,9420.466126
1177.670198,18611.164786,-3293.333686,7199.380617
1177.670515,15624.187722,-7199.380617,7429.148083
1177.670809,8654.574571,-6280.310751,9267.287815
1177.671103,1531.783110,-5208.062574,7735.504705
1177.671397,-6356.899906,-5054.884263,9114.109504
1177.671691,-13632.869679,-4212.403552,10722.481770
1177.671985,-16160.311810,-382.945777,11335.195014
1177.672279,-16696.435899,1225.426488,13403.102212
1177.672573,-13939.226301,2450.852976,15547.598566
1177.672901,-6969.613150,6663.256528,13939.226301
1177.673197,3293.333686,8960.931193,12024.497413
1177.673493,9956.590215,6356.899906,9650.233593
1177.673789,15930.544344,4595.349330,7735.504705
1177.674086,15164.652789,3063.566220,9037.520349
1177.674382,13249.923901,-2527.442131,8271.628794
1177.674678,6893.023995,-5667.597507,9497.055282
1177.674974,-2067.907198,-6433.489062,10109.768526
1177.675262,-7658.915550,-7199.380617,9573.644437
1177.675563,-12254.264880,-3906.046930,9267.287815
1177.675864,-13020.156435,-995.659021,11641.551636
1177.676165,-15241.241944,-1455.193954,14015.815456
1177.676466,-10186.357681,2910.387909,14628.528700
1177.676766,-76.589155,5131.473418,11488.373325
1177.677067,3599.690308,1531.783110,10875.660081
1177.677368,8501.396260,-995.659021,12254.264880
1177.677677,14858.296167,2910.387909,7582.326394
1177.677976,16390.079277,-995.659021,6663.256528
1177.678276,11335.195014,-7658.915550,8960.931193
1177.678575,5208.062574,-4059.225241,9726.822748
1177.678874,-2604.031287,-4518.760174,8348.217949
1177.679174,-7965.272172,-6893.023995,8118.450483
1177.679473,-16007.133499,-5820.775818,12713.799813
1177.679773,-16619.846743,-3293.333686,12713.799813
1177.680080,-10645.892614,-0.000000,12407.443191
1177.680379,-4825.116796,3982.636086,13096.745590
1177.680679,2374.263820,4825.116796,13249.923901
1177.680979,8501.396260,4978.295107,11258.605858
1177.681278,15624.187722,8654.574571,8195.039638
1177.681578,18994.110564,7429.148083,7582.326394
1177.681878,11794.729947,-382.945777,9420.466126
1177.682177,5820.775818,-689.302399,9803.411904
1177.682474,919.069866,-995.659021,7429.148083
1177.682773,-10492.714303,-5054.884263,9650.233593
1177.683072,-17768.684076,-8271.628794,13403.102212
1177.683371,-20449.304518,-2986.977064,12713.799813
1177.683669,-15853.955188,-0.000000,13096.745590
1177.683968,-10645.892614,1991.318043,14168.993767
1177.684267,-1914.728887,6050.543284,13096.745590
1177.684566,8041.861327,8501.396260,10569.303459
1177.684861,14015.815456,4978.295107,6969.613150
1177.685160,15777.366033,153.178311,8960.931193
1177.685459,16236.900966,-2833.798753,8195.039638
1177.685758,13403.102212,-8271.628794,6433.489062
1177.686058,7046.202306,-10186.357681,8807.752882
1177.686357,-229.767466,-8731.163727,9420.466126
1177.686656,-8884.342038,-10492.714303,9573.644437
1177.686955,-14475.350389,-6739.845684,9956.590215
1177.687267,-17002.792521,-2527.442131,12254.264880
1177.687567,-20296.126207,-1914.728887,14781.707011
1177.687867,-16466.668432,306.356622,16543.257588
1177.688167,-3216.744531,7735.504705,12560.621502
1177.688467,6280.310751,7122.791461,10109.768526
1177.688767,16236.900966,4748.527641,8041.861327
1177.689067,22134.265939,5437.830040,6203.721595
1177.689367,22287.444250,1531.783110,8041.861327
1177.689667,17385.738298,-5514.419196,7965.272172
1177.689966,8960.931193,-5208.062574,8960.931193
1177.690265,-2067.907198,-6893.023995,9650.233593
1177.690564,-13939.226301,-8271.628794,10875.660081
1177.690864,-19223.878030,-4825.116796,13862.637145
1177.691163,-21368.374384,153.178311,13556.280523
1177.691462,-18840.932253,3216.744531,13862.637145
1177.691761,-13326.513057,10722.481770,14628.528700
1177.692068,-2374.263820,13939.226301,11335.195014
1177.692369,7046.202306,12407.443191,8577.985416
1177.692670,13556.280523,7735.504705,10569.303459
1177.692971,19453.645497,3216.744531,8041.861327
1177.693271,20525.893674,-3599.690308,7275.969772
1177.693572,15930.544344,-8424.807105,6510.078217
1177.693873,7582.326394,-11871.319102,7582.326394
1177.694174,-7812.093861,-14322.172078,11182.016703
1177.694490,-14781.707011,-12024.497413,11028.838392
1177.694783,-19683.412963,-6586.667373,11335.195014
1177.695077,-20449.304518,-2067.907198,13249.923901
1177.695371,-17768.684076,1225.426488,15394.420255
1177.695665,-8118.450483,6816.434839,14168.993767
1177.695958,4518.760174,11488.373325,10569.303459
1177.696252,10569.303459,4748.527641,10262.946837
1177.696546,15777.366033,4595.349330,9650.233593
1177.696864,22440.622561,3829.457775,6663.256528
1177.697163,18151.629853,-2680.620442,6816.434839
1177.697461,9267.287815,-7352.558928,10262.946837
1177.697759,1991.318043,-6739.845684,10262.946837
1177.698057,-6356.899906,-8884.342038,9343.876971
1177.698355,-12254.264880,-8118.450483,11488.373325
1177.698654,-17309.149143,-5054.884263,13096.745590
1177.698952,-17921.862387,-1148.837332,13556.280523
1177.699265,-10799.070925,3216.744531,12484.032346
1177.699563,-3676.279464,9573.644437,12560.621502
1177.699862,1684.961421,8041.861327,13249.923901
1177.700160,11335.195014,7735.504705,9803.411904
1177.700459,18151.629853,9573.644437,5820.775818
1177.700757,17538.916609,1838.139732,7429.148083
1177.701056,10416.125148,-4671.938485,10492.714303
1177.701354,5667.597507,-6586.667373,9573.644437
1177.701654,-1302.015643,-5973.954129,7888.683016
1177.701954,-8424.807105,-8884.342038,8501.396260
1177.702254,-16466.668432,-7046.202306,11718.140791
1177.702554,-18075.040698,-3293.333686,11335.195014
1177.702854,-15547.598566,-382.945777,12254.264880
1177.703154,-13173.334746,1991.318043,14015.815456
1177.703454,-4825.116796,5437.830040,12254.264880
1177.703754,2680.620442,4748.527641,12254.264880
1177.704061,10875.660081,3063.566220,9573.644437
1177.704358,18994.110564,4288.992708,8654.574571
1177.704655,19606.823808,-0.000000,8807.752882
1177.704952,15624.187722,-3446.511997,8960.931193
1177.705248,9650.233593,-1148.837332,9573.644437
1177.705545,-536.124088,-3906.046930,8501.396260
1177.705842,-9573.644437,-5514.419196,9420.466126
1177.706139,-16313.490121,-4901.705952,12943.567279
1177.706454,-20755.661140,-2986.977064,13479.691368
1177.706756,-17615.505765,-536.124088,13632.869679
1177.707058,-12101.086569,2144.496354,13556.280523
1177.707360,-3982.636086,4135.814397,12790.388968
1177.707663,4748.527641,3523.101153,12407.443191
1177.707965,14398.761234,5437.830040,8654.574571
1177.708267,22900.157494,4135.814397,6433.489062
1177.708569,19300.467186,-3906.046930,8654.574571
1177.708888,15777.366033,-3906.046930,8041.861327
1177.709184,11182.016703,-4518.760174,5820.775818
1177.709480,-2910.387909,-7658.915550,8041.861327
1177.709776,-10645.892614,-9497.055282,11488.373325
1177.710072,-18381.397320,-4671.938485,11182.016703
1177.710368,-18994.110564,-1608.372265,12713.799813
1177.710664,-21062.017762,-536.124088,15930.544344
1177.710960,-14245.582923,4825.116796,15088.063633
1177.711278,-3216.744531,8348.217949,12101.086569
1177.711573,5820.775818,8041.861327,9650.233593
1177.711868,13096.745590,5897.364973,9267.287815
1177.712164,18304.808164,4288.992708,8960.931193
1177.712459,20219.537052,459.534933,6663.256528
1177.712754,16543.257588,-2833.798753,7275.969772
1177.713050,3906.046930,-5054.884263,9650.233593
1177.713345,-4748.527641,-9190.698660,10722.481770
1177.713645,-9573.644437,-5361.240885,9267.287815
1177.713945,-13173.334746,-2680.620442,10799.070925
1177.714245,-18687.753942,-3599.690308,13862.637145
1177.714545,-19070.699719,-1914.728887,15853.955188
1177.714845,-7122.791461,6356.899906,12713.799813
1177.715145,-2450.852976,3829.457775,11488.373325
1177.715445,3906.046930,3216.744531,12560.621502
1177.715745,14551.939545,6663.256528,7735.504705
1177.716052,17998.451542,3676.279464,6280.310751
1177.716352,17845.273231,-4365.581863,7275.969772
1177.716652,10569.303459,-5973.954129,8807.752882
1177.716953,2833.798753,-7965.272172,8118.450483
1177.717253,-5897.364973,-9880.001059,9420.466126
1177.717553,-13479.691368,-11105.427547,11718.140791
1177.717853,-16849.614210,-7658.915550,13173.334746
1177.718153,-16696.435899,-4901.705952,14934.885322
1177.718393,-11947.908258,1991.318043,13096.745590
1177.718699,-4135.814397,7582.326394,11947.908258
1177.719005,4365.581863,9114.109504,11182.016703
1177.719312,11335.195014,9650.233593,8960.931193
1177.719618,15471.009411,9803.411904,8807.752882
1177.719924,16390.079277,4825.116796,8807.752882
1177.720231,14705.117856,1225.426488,7582.326394
1177.720537,8195.039638,-995.659021,7812.093861
1177.720854,-2450.852976,-5667.597507,9267.287815
1177.721155,-11105.427547,-9650.233593,11947.908258
1177.721455,-14628.528700,-5973.954129,12407.443191
1177.721756,-15547.598566,-3906.046930,11335.195014
1177.722056,-15394.420255,-2833.798753,14628.528700
1177.722357,-11718.140791,2757.209598,13556.280523
1177.722657,-2221.085509,7275.969772,10109.768526
1177.722958,2833.798753,6050.543284,10799.070925
1177.723238,8195.039638,3829.457775,9573.644437
1177.723540,14705.117856,3369.922842,8195.039638
1177.723842,14551.939545,-1302.015643,8118.450483
1177.724145,12790.388968,-5514.419196,9420.466126
1177.724447,5973.954129,-7046.202306,9420.466126
1177.724749,-1455.193954,-9650.233593,8960.931193
1177.725051,-6969.613150,-9037.520349,9573.644437
1177.725354,-12254.264880,-8271.628794,10645.892614
1177.725666,-17309.149143,-6127.132440,14015.815456
1177.725962,-11411.784169,-3293.333686,14168.993767
1177.726258,-5437.830040,4442.171019,11488.373325
1177.726554,-0.000000,5744.186662,10722.481770
1177.726850,6739.845684,4825.116796,11411.784169
1177.727146,13403.102212,5591.008351,8960.931193
1177.727442,18151.629853,2450.852976,8195.039638
1177.727737,14858.296167,-3293.333686,8501.396260
1177.727988,7888.683016,-4901.705952,10875.660081
1177.728293,3599.690308,-4671.938485,8960.931193
1177.728597,-4978.295107,-6127.132440,9726.822748
1177.728901,-14245.582923,-4901.705952,12407.443191
1177.729206,-15394.420255,-229.767466,10569.303459
1177.729510,-14934.885322,1072.248177,12943.567279
1177.729814,-10186.357681,4135.814397,12254.264880
1177.730119,-5131.473418,5591.008351,10799.070925
1177.730426,-1302.015643,4595.349330,10875.660081
1177.730726,4671.938485,1991.318043,10722.481770
1177.731027,10722.481770,-0.000000,9114.109504
1177.731328,13096.745590,-1608.372265,9420.466126
1177.731628,12024.497413,-5208.062574,8195.039638
1177.731929,9650.233593,-2527.442131,7582.326394
1177.732229,2833.798753,-3140.155375,7888.683016
1177.732530,-4135.814397,-5054.884263,8960.931193
1177.732826,-10033.179370,-5054.884263,11794.729947
1177.733126,-12866.978124,-2680.620442,12560.621502
1177.733425,-9190.698660,-689.302399,11488.373325
1177.733725,-6816.434839,1225.426488,12024.497413
1177.734025,-3369.922842,3369.922842,11718.140791
1177.734324,1378.604799,1225.426488,12713.799813
1177.734624,6586.667373,3216.744531,11028.838392
1177.734923,11488.373325,2450.852976,8807.752882
1177.735218,9956.590215,-1148.837332,10262.946837
1177.735518,9956.590215,-995.659021,10109.768526
1177.735818,6893.023995,-689.302399,5897.364973
1177.736119,-1914.728887,-4671.938485,9267.287815
1177.736419,-10645.892614,-7965.272172,12713.799813
1177.736719,-13173.334746,-5820.775818,12101.086569
1177.737019,-11947.908258,-3446.511997,12560.621502
1177.737319,-7965.272172,-1914.728887,11335.195014
1177.737631,-5131.473418,919.069866,12254.264880
1177.737928,2144.496354,2144.496354,12560.621502
1177.738226,8960.931193,4288.992708,8807.752882
1177.738523,12943.567279,2757.209598,8271.628794
1177.738820,14015.815456,612.713244,7888.683016
1177.739118,10569.303459,-2527.442131,7888.683016
1177.739415,7275.969772,-3140.155375,8960.931193
1177.739713,-1608.372265,-3752.868619,9037.520349
1177.740022,-10033.179370,-7352.558928,11335.195014
1177.740321,-13786.047990,-4212.403552,12024.497413
1177.740621,-10033.179370,-0.000000,9803.411904
1177.740920,-8424.807105,1684.961421,11335.195014
1177.741219,-9343.876971,2604.031287,14934.885322
1177.741519,-2067.907198,4825.116796,14168.993767
1177.741818,1225.426488,4135.814397,11641.551636
1177.742118,6893.023995,3216.744531,10722.481770
1177.742425,8654.574571,1838.139732,9420.466126
1177.742723,9803.411904,919.069866,8501.396260
1177.743021,10569.303459,306.356622,8041.861327
1177.743319,6280.310751,612.713244,8577.985416
1177.743617,-3216.744531,-3599.690308,9650.233593
1177.743915,-7199.380617,-4671.938485,11028.838392
1177.744214,-9343.876971,-5361.240885,11641.551636
1177.744512,-10186.357681,-3906.046930,12024.497413
1177.744828,-8118.450483,-4518.760174,12407.443191
1177.745126,-3676.279464,-229.767466,12560.621502
1177.745425,3906.046930,1684.961421,9726.822748
1177.745723,7046.202306,1072.248177,9956.590215
1177.746022,9114.109504,765.891555,9343.876971
1177.746320,10262.946837,153.178311,7582.326394
1177.746619,5208.062574,-4518.760174,10569.303459
1177.746917,2680.620442,-4365.581863,10109.768526
1177.747231,765.891555,-4059.225241,9037.520349
1177.747530,-3676.279464,-2680.620442,8654.574571
1177.747829,-7965.272172,-4365.581863,10722.481770
1177.748127,-9037.520349,-382.945777,11718.140791
1177.748426,-7965.272172,1225.426488,11641.551636
1177.748725,-5131.473418,765.891555,13096.745590
1177.749023,-2221.085509,2910.387909,12407.443191
1177.749322,4059.225241,8041.861327,10569.303459
1177.749610,7046.202306,5591.008351,8654.574571
1177.749910,6739.845684,3063.566220,10262.946837
1177.750210,5667.597507,-382.945777,10875.660081
1177.750510,3293.333686,-4059.225241,10416.125148
1177.750810,3140.155375,-4212.403552,10875.660081
1177.751110,-1302.015643,-4825.116796,9803.411904
1177.751410,-5591.008351,-6739.845684,10875.660081
1177.751710,-8271.628794,-4212.403552,10416.125148
1177.752010,-8118.450483,-536.124088,11335.195014
1177.752309,-7352.558928,-536.124088,11488.373325
1177.752608,-4748.527641,153.178311,12943.567279
1177.752907,2527.442131,4288.992708,10722.481770
1177.753207,5820.775818,2910.387909,8654.574571
1177.753506,7582.326394,-536.124088,9114.109504
1177.753805,9650.233593,-1761.550576,9114.109504
1177.754104,5973.954129,-5820.775818,8960.931193
1177.754411,6127.132440,-7505.737239,10262.946837
1177.754711,1531.783110,-7965.272172,9267.287815
1177.755011,-2450.852976,-7352.558928,10416.125148
1177.755311,-5591.008351,-6280.310751,10722.481770
1177.755611,-7505.737239,-4825.116796,10416.125148
1177.755911,-6663.256528,306.356622,10875.660081
1177.756211,-3676.279464,1991.318043,11182.016703
1177.756511,-3676.279464,6663.256528,12943.567279
1177.756832,1225.426488,8195.039638,11488.373325
1177.757132,2680.620442,6663.256528,10875.660081
1177.757433,2680.620442,3523.101153,10875.660081
1177.757733,5361.240885,2297.674665,10109.768526
1177.758033,5514.419196,-842.480710,9726.822748
1177.758334,5208.062574,-4518.760174,9190.698660
1177.758634,4212.403552,-3446.511997,9650.233593
1177.758935,-3063.566220,-3906.046930,10109.768526
1177.759253,-4135.814397,-3752.868619,10262.946837
1177.759547,-5744.186662,-382.945777,9573.644437
1177.759840,-6356.899906,1378.604799,11182.016703
1177.760134,-8118.450483,1378.604799,14475.350389
1177.760427,-2374.263820,3063.566220,11641.551636
1177.760721,5667.597507,7888.683016,8118.450483
1177.761014,4212.403552,612.713244,10416.125148
1177.761308,1225.426488,-3599.690308,12560.621502
1177.761625,5667.597507,-995.659021,10722.481770
1177.761921,5054.884263,-4901.705952,9573.644437
1177.762217,1991.318043,-6586.667373,10262.946837
1177.762513,-2374.263820,-3906.046930,10492.714303
1177.762809,-3063.566220,-995.659021,8348.217949
1177.763105,-3676.279464,-689.302399,6969.613150
1177.763401,-10186.357681,-1608.372265,12101.086569
1177.763697,-11105.427547,-382.945777,14092.404612
1177.764020,-5284.651729,-76.589155,13249.923901
1177.764317,1684.961421,3676.279464,10186.357681
1177.764615,4748.527641,-76.589155,10722.481770
1177.764912,5973.954129,-3140.155375,11641.551636
1177.765210,10109.768526,-1302.015643,9420.466126
1177.765507,12177.675724,-2986.977064,7812.093861
1177.765805,8654.574571,-6586.667373,8654.574571
1177.766102,4365.581863,-5667.597507,9343.876971
1177.766409,2144.496354,-1761.550576,7582.326394
1177.766710,-1761.550576,-2221.085509,7965.272172
1177.767011,-6969.613150,-2374.263820,11794.729947
1177.767312,-9190.698660,1684.961421,11182.016703
1177.767613,-8118.450483,4442.171019,10799.070925
1177.767914,-8424.807105,4978.295107,11335.195014
1177.768215,-7812.093861,1838.139732,14322.172078
1177.768515,-7965.272172,-229.767466,14934.885322
1177.768795,-2221.085509,-1914.728887,12713.799813
1177.769101,6586.667373,-689.302399,9650.233593
1177.769406,11641.551636,-3446.511997,8960.931193
1177.769711,11794.729947,-5208.062574,8960.931193
1177.770016,12177.675724,1378.604799,8195.039638
1177.770321,5514.419196,1684.961421,6510.078217
1177.770627,-3216.744531,459.534933,9267.287815
1177.770932,-10952.249236,765.891555,11641.551636
1177.771250,-13479.691368,4595.349330,12407.443191
1177.771543,-12101.086569,2144.496354,13709.458834
1177.771836,-6816.434839,3523.101153,13403.102212
1177.772128,-1302.015643,3063.566220,13862.637145
1177.772421,2833.798753,612.713244,12790.388968
1177.772714,9114.109504,1225.426488,9114.109504
1177.773007,10569.303459,-229.767466,8424.807105
1177.773299,6893.023995,-6127.132440,9880.001059
1177.773616,6280.310751,-5514.419196,9803.411904
1177.773914,6893.023995,-2833.798753,5667.597507
1177.774212,1531.783110,-3599.690308,8195.039638
1177.774510,-6969.613150,-9190.698660,10722.481770
1177.774808,-8271.628794,-2833.798753,12560.621502
1177.775105,-4288.992708,1072.248177,8654.574571
1177.775403,-5591.008351,612.713244,11028.838392
1177.775701,-10799.070925,153.178311,15394.420255
1177.776024,-5284.651729,3063.566220,13556.280523
1177.776321,1991.318043,4825.116796,10569.303459
1177.776618,8960.931193,3829.457775,8807.752882
1177.776914,11335.195014,2144.496354,9880.001059
1177.777211,10569.303459,459.534933,9803.411904
1177.777508,11641.551636,459.534933,7275.969772
1177.777805,3446.511997,-382.945777,7812.093861
1177.778101,-7965.272172,-4901.705952,11335.195014
1177.778357,-11871.319102,-4365.581863,11794.729947
1177.778661,-11871.319102,-2067.907198,10722.481770
1177.778964,-12560.621502,-1914.728887,13862.637145
1177.779268,-11411.784169,-1608.372265,15700.776877
1177.779572,-3369.922842,3982.636086,12101.086569
1177.779876,4748.527641,7275.969772,9420.466126
1177.780179,9497.055282,2604.031287,8501.396260
1177.780483,7429.148083,765.891555,10339.535992
1177.780790,8960.931193,-2221.085509,9650.233593
1177.781095,11182.016703,-4901.705952,8654.574571
1177.781399,8654.574571,-6433.489062,8348.217949
1177.781704,4518.760174,-7812.093861,7199.380617
1177.782008,-4595.349330,-8424.807105,9650.233593
1177.782313,-9037.520349,-8118.450483,10109.768526
1177.782618,-11258.605858,-2986.977064,10645.892614
1177.782922,-14628.528700,-2833.798753,13709.458834
1177.783206,-13173.334746,459.534933,14168.993767
1177.783508,-7122.791461,2604.031287,12790.388968
1177.783810,-689.302399,3063.566220,13096.745590
1177.784112,6127.132440,2297.674665,11794.729947
1177.784414,14168.993767,2910.387909,7888.683016
1177.784716,19147.288875,1378.604799,7582.326394
1177.785019,18457.986475,-1761.550576,6663.256528
1177.785321,12790.388968,-2221.085509,6356.899906
1177.785602,-382.945777,-4365.581863,8960.931193
1177.785902,-7812.093861,-7199.380617,9573.644437
1177.786202,-14092.404612,-4059.225241,11411.784169
1177.786501,-16160.311810,-382.945777,12560.621502
1177.786801,-14322.172078,2297.674665,13862.637145
1177.787100,-10186.357681,3676.279464,14092.404612
1177.787400,459.534933,9573.644437,11641.551636
1177.787699,5973.954129,9267.287815,10875.660081
1177.788011,7735.504705,4288.992708,11182.016703
1177.788308,12484.032346,3063.566220,9956.590215
1177.788606,14551.939545,-1302.015643,7735.504705
1177.788903,8654.574571,-5514.419196,8960.931193
1177.789201,459.534933,-9037.520349,10569.303459
1177.789498,-6816.434839,-9037.520349,8960.931193
1177.789795,-10799.070925,-5361.240885,10416.125148
1177.790093,-14781.707011,-4365.581863,11947.908258
1177.790402,-18381.397320,-76.589155,14475.350389
1177.790700,-10799.070925,4595.349330,12484.032346
1177.790999,-2221.085509,9420.466126,10569.303459
1177.791298,2833.798753,7735.504705,11488.373325
1177.791596,9956.590215,4288.992708,12407.443191
1177.791895,16236.900966,1684.961421,8348.217949
1177.792193,17998.451542,-3599.690308,7122.791461
1177.792492,12637.210657,-10339.535992,9880.001059
1177.792832,5820.775818,-12177.675724,10186.357681
1177.793127,612.713244,-9497.055282,8807.752882
1177.793422,-5744.186662,-7199.380617,9573.644437
1177.793717,-14092.404612,-6280.310751,10416.125148
1177.794012,-16466.668432,-382.945777,11871.319102
1177.794307,-15394.420255,2144.496354,12790.388968
1177.794601,-12101.086569,6050.543284,12713.799813
1177.794896,-2757.209598,7735.504705,12024.497413
1177.795193,5514.419196,7888.683016,10569.303459
1177.795492,14705.117856,4135.814397,8348.217949
1177.795790,18611.164786,-76.589155,8041.861327
1177.796089,18764.343097,-4365.581863,8577.985416
1177.796388,14398.761234,-8731.163727,7429.148083
1177.796687,8654.574571,-6893.023995,8654.574571
1177.796986,-4748.527641,-9497.055282,9803.411904
1177.797285,-12866.978124,-8424.807105,11488.373325
1177.797579,-19070.699719,-3140.155375,11105.427547
1177.797879,-19683.412963,1991.318043,11182.016703
1177.798178,-16160.311810,2757.209598,13249.923901
1177.798477,-12254.264880,4978.295107,14934.885322
1177.798777,-1608.372265,9803.411904,13249.923901
1177.799076,5361.240885,7582.326394,11947.908258
1177.799375,12330.854035,5437.830040,10109.768526
1177.799674,16619.846743,2297.674665,9573.644437
1177.799975,14705.117856,-2680.620442,9267.287815
1177.800276,11794.729947,-4212.403552,8807.752882
1177.800578,7582.326394,-5973.954129,6969.613150
1177.800879,1531.783110,-5973.954129,6663.256528
1177.801181,-6356.899906,-7352.558928,9573.644437
1177.801482,-13939.226301,-5054.884263,11488.373325
1177.801784,-17155.970832,-3446.511997,13249.923901
1177.802086,-16849.614210,-2986.977064,15853.955188
1177.802385,-11871.319102,765.891555,15241.241944
1177.802684,-2910.387909,2757.209598,13096.745590
1177.802984,8960.931193,5744.186662,7888.683016
1177.803283,13556.280523,3216.744531,7275.969772
1177.803582,15624.187722,-995.659021,10262.946837
1177.803881,16236.900966,-2221.085509,9650.233593
1177.804181,15471.009411,-3140.155375,6969.613150
1177.804480,5973.954129,-3446.511997,8118.450483
1177.804787,-3982.636086,-5667.597507,9267.287815
1177.805088,-11105.427547,-2527.442131,9573.644437
1177.805390,-13632.869679,306.356622,7275.969772
1177.805691,-18534.575631,-229.767466,12866.978124
1177.805993,-19377.056341,-536.124088,17232.559987
1177.806294,-7199.380617,4442.171019,13709.458834
1177.806596,765.891555,5744.186662,12790.388968
1177.806897,9803.411904,3676.279464,10262.946837
1177.807213,14398.761234,4135.814397,8654.574571
1177.807507,16543.257588,1991.318043,8654.574571
1177.807800,14398.761234,-2527.442131,6356.899906
1177.808093,5514.419196,-4518.760174,9880.001059
1177.808386,-3063.566220,-6280.310751,10109.768526
1177.808679,-7352.558928,-6739.845684,8654.574571
1177.808973,-13939.226301,-7046.202306,11564.962480
1177.809266,-15088.063633,-4212.403552,13709.458834
1177.809584,-12101.086569,-2833.798753,12713.799813
1177.809883,-5284.651729,2450.852976,11488.373325
1177.810181,1838.139732,4595.349330,10952.249236
1177.810479,4748.527641,1684.961421,11564.962480
1177.810777,7888.683016,-0.000000,11488.373325
1177.811075,11871.319102,-689.302399,8654.574571
1177.811374,13249.923901,-4671.938485,8807.752882
1177.811672,10875.660081,-6586.667373,9420.466126
1177.812021,9650.233593,-2833.798753,7199.380617
1177.812315,2297.674665,-2680.620442,7735.504705
1177.812608,-5284.651729,-3906.046930,10033.179370
1177.812901,-13173.334746,-229.767466,11794.729947
1177.813194,-16007.133499,919.069866,12484.032346
1177.813488,-16007.133499,1072.248177,13862.637145
1177.813781,-12713.799813,2450.852976,14092.404612
1177.814074,-2757.209598,5744.186662,13403.102212
1177.814374,7888.683016,6050.543284,7812.093861
1177.814674,13249.923901,4442.171019,7582.326394
1177.814974,16236.900966,1684.961421,8501.396260
1177.815274,14858.296167,-1455.193954,8118.450483
1177.815574,10569.303459,-2374.263820,9956.590215
1177.815874,3906.046930,-2527.442131,8960.931193
1177.816174,-4288.992708,-6127.132440,9190.698660
1177.816474,-8884.342038,-2986.977064,8807.752882
1177.816781,-13786.047990,-1914.728887,9573.644437
1177.817078,-19070.699719,-5208.062574,14628.528700
1177.817375,-18228.219009,-2833.798753,15394.420255
1177.817672,-7812.093861,3982.636086,13862.637145
1177.817968,-689.302399,4748.527641,11564.962480
1177.818265,6127.132440,3063.566220,11947.908258
1177.818562,15317.831100,6663.256528,7735.504705
1177.818859,17232.559987,3676.279464,6663.256528
1177.819173,13403.102212,-2374.263820,9803.411904
1177.819473,7046.202306,-5820.775818,10569.303459
1177.819774,3906.046930,-4059.225241,10416.125148
1177.820074,-3829.457775,-6893.023995,8501.396260
1177.820374,-11871.319102,-8271.628794,10569.303459
1177.820675,-15547.598566,-4901.705952,13096.745590
1177.820975,-15241.241944,-2680.620442,12560.621502
1177.821275,-10186.357681,1991.318043,13556.280523
1177.821594,-2757.209598,4135.814397,11488.373325
1177.821890,3906.046930,3523.101153,11794.729947
1177.822186,10722.481770,919.069866,9573.644437
1177.822482,14168.993767,1378.604799,7275.969772
1177.822778,13249.923901,-3140.155375,9267.287815
1177.823074,11335.195014,-6739.845684,8348.217949
1177.823370,10109.768526,-2374.263820,8348.217949
1177.823667,2833.798753,-3446.511997,7352.558928
1177.823984,-7199.380617,-5514.419196,10109.768526
1177.824283,-13020.156435,-2986.977064,12790.388968
1177.824581,-11871.319102,2297.674665,11335.195014
1177.824880,-14475.350389,1838.139732,11641.551636
1177.825178,-12254.264880,1531.783110,14168.993767
1177.825477,-4978.295107,4748.527641,13326.513057
1177.825775,2374.263820,4748.527641,11028.838392
1177.826074,8348.217949,3063.566220,8960.931193
1177.826351,11028.838392,2450.852976,9573.644437
1177.826651,11182.016703,-1761.550576,10262.946837
1177.826951,9420.466126,-2374.263820,9880.001059
1177.827251,4671.938485,-1608.372265,8195.039638
1177.827551,-1914.728887,-2986.977064,8041.861327
1177.827851,-10186.357681,-4518.760174,10799.070925
1177.828151,-10799.070925,-1148.837332,10722.481770
1177.828451,-10799.070925,612.713244,10875.660081
1177.828781,-7505.737239,-0.000000,12790.388968
1177.829078,-4442.171019,765.891555,14628.528700
1177.829375,2680.620442,1072.248177,11335.195014
1177.829672,7429.148083,459.534933,8654.574571
1177.829969,10262.946837,-1608.372265,8731.163727
1177.830266,9267.287815,-5208.062574,9573.644437
1177.830563,6586.667373,-6893.023995,11641.551636
1177.830860,6586.667373,-4671.938485,8807.752882
1177.831168,3906.046930,153.178311,8041.861327
1177.831468,-4595.349330,-2680.620442,9956.590215
1177.831767,-7352.558928,153.178311,10109.768526
1177.832067,-10645.892614,2297.674665,10109.768526
1177.832367,-11564.962480,1072.248177,11182.016703
1177.832667,-12713.799813,-1148.837332,14628.528700
1177.832967,-8884.342038,612.713244,15700.776877
1177.833266,2374.263820,3216.744531,10722.481770
1177.833550,10262.946837,1531.783110,8501.396260
1177.833855,13862.637145,3829.457775,8348.217949
1177.834159,14551.939545,2144.496354,8195.039638
1177.834464,9803.411904,-229.767466,9420.466126
1177.834769,7735.504705,2604.031287,8118.450483
1177.835074,-1761.550576,-1148.837332,8960.931193
1177.835378,-9573.644437,-3446.511997,11028.838392
1177.835683,-11947.908258,-2680.620442,11335.195014
1177.835949,-10186.357681,-382.945777,11335.195014
1177.836253,-9880.001059,-2527.442131,11794.729947
1177.836558,-7812.093861,-2221.085509,13862.637145
1177.836863,-1455.193954,-995.659021,12330.854035
1177.837168,3906.046930,1072.248177,10339.535992
1177.837473,7275.969772,1838.139732,9420.466126
1177.837777,5973.954129,459.534933,8960.931193
1177.838082,5514.419196,-3140.155375,10416.125148
1177.838372,5208.062574,-2833.798753,10722.481770
1177.838668,4748.527641,-1608.372265,8348.217949
1177.838964,1225.426488,-2374.263820,7582.326394
1177.839259,-2604.031287,-5054.884263,9573.644437
1177.839555,-5591.008351,-2527.442131,11488.373325
1177.839851,-6969.613150,-1761.550576,11028.838392
1177.840147,-8731.163727,-2221.085509,12713.799813
1177.840443,-7199.380617,-1455.193954,14168.993767
1177.840752,-842.480710,919.069866,11488.373325
1177.841050,5514.419196,3216.744531,8960.931193
1177.841349,7429.148083,1531.783110,8271.628794
1177.841647,8807.752882,459.534933,10262.946837
1177.841946,6280.310751,-3293.333686,10416.125148
1177.842244,6893.023995,-689.302399,9573.644437
1177.842543,2144.496354,-1455.193954,8654.574571
1177.842841,-2374.263820,-2221.085509,8501.396260
1177.843148,-6050.543284,-1302.015643,10262.946837
1177.843449,-8271.628794,153.178311,10569.303459
1177.843750,-9037.520349,765.891555,11794.729947
1177.844050,-7199.380617,153.178311,12637.210657
1177.844351,-2450.852976,2910.387909,11947.908258
1177.844651,-0.000000,2297.674665,11718.140791
1177.844952,4059.225241,2450.852976,10339.535992
1177.845252,7888.683016,3063.566220,8118.450483
1177.845549,7888.683016,-536.124088,9497.055282
1177.845848,2680.620442,-4671.938485,11335.195014
1177.846148,1531.783110,-2986.977064,11488.373325
1177.846448,-689.302399,-995.659021,9573.644437
1177.846747,-2910.387909,-229.767466,9267.287815
1177.847047,-5591.008351,-76.589155,10722.481770
1177.847346,-7352.558928,1838.139732,11028.838392
1177.847646,-6510.078217,1072.248177,11794.729947
1177.847940,-6203.721595,1378.604799,13326.513057
1177.848241,-3063.566220,612.713244,12024.497413
1177.848541,919.069866,153.178311,11182.016703
1177.848841,5361.240885,-536.124088,9803.411904
1177.849141,9420.466126,-1608.372265,8807.752882
1177.849441,8960.931193,-4901.705952,9956.590215
1177.849741,8195.039638,-7352.558928,9573.644437
1177.850042,8041.861327,-5208.062574,8807.752882
1177.850353,-76.589155,-6586.667373,9190.698660
1177.850651,-4978.295107,-5667.597507,10416.125148
1177.850948,-9190.698660,-2680.620442,10262.946837
1177.851246,-10645.892614,612.713244,10722.481770
1177.851543,-10799.070925,1072.248177,12713.799813
1177.851840,-7352.558928,3676.279464,12943.567279
1177.852138,612.713244,7275.969772,9956.590215
1177.852435,7122.791461,4978.295107,8654.574571
1177.852744,7122.791461,1225.426488,11028.838392
1177.853044,9650.233593,306.356622,10875.660081
1177.853343,8501.396260,-4518.760174,10262.946837
1177.853643,6586.667373,-5361.240885,10033.179370
1177.853942,1072.248177,-6586.667373,8577.985416
1177.854241,-3063.566220,-4901.705952,9420.466126
1177.854541,-5437.830040,-3140.155375,8807.752882
1177.854840,-7199.380617,1225.426488,8960.931193
1177.855147,-10952.249236,2450.852976,11641.551636
1177.855445,-10186.357681,1991.318043,14934.885322
1177.855744,-6510.078217,4748.527641,13862.637145
1177.856042,-1608.372265,4288.992708,11028.838392
1177.856340,1531.783110,1531.783110,10569.303459
1177.856638,6280.310751,-382.945777,10569.303459
1177.856936,10262.946837,-3293.333686,9956.590215
1177.857234,10569.303459,-5667.597507,9573.644437
1177.857550,8807.752882,-7658.915550,9267.287815
1177.857848,3446.511997,-4059.225241,9573.644437
1177.858146,-2374.263820,-5054.884263,9650.233593
1177.858444,-7505.737239,-1914.728887,9956.590215
1177.858741,-9726.822748,1991.318043,9114.109504
1177.859039,-10033.179370,3523.101153,12254.264880
1177.859337,-8271.628794,3982.636086,12866.978124
1177.859634,-3216.744531,4442.171019,12254.264880
1177.859949,1991.318043,4442.171019,12484.032346
1177.860247,5054.884263,-0.000000,11794.729947
1177.860546,8348.217949,-229.767466,9880.001059
1177.860845,9956.590215,-1302.015643,9420.466126
1177.861144,8960.931193,-5054.884263,8654.574571
1177.861442,5514.419196,-3752.868619,8654.574571
1177.861741,2374.263820,-3446.511997,8348.217949
1177.862040,-995.659021,-2067.907198,8654.574571
1177.862328,-5437.830040,-842.480710,9956.590215
1177.862630,-7505.737239,2757.209598,9650.233593
1177.862933,-10186.357681,2757.209598,12713.799813
1177.863235,-10492.714303,-229.767466,12713.799813
1177.863538,-8424.807105,1531.783110,13939.226301
1177.863840,-2450.852976,-229.767466,13556.280523
1177.864142,7582.326394,-229.767466,9803.411904
1177.864445,12330.854035,-995.659021,9573.644437
1177.864744,16773.025054,-3599.690308,9267.287815
1177.865044,15471.009411,-3446.511997,7888.683016
1177.865343,9650.233593,-1302.015643,7122.791461
1177.865642,-995.659021,-1761.550576,8348.217949
1177.865941,-12713.799813,-3293.333686,11258.605858
1177.866241,-18228.219009,459.534933,12024.497413
1177.866540,-19530.234652,-0.000000,13096.745590
1177.866839,-16849.614210,-0.000000,13862.637145
1177.867146,-11105.427547,153.178311,14475.350389
1177.867445,1378.604799,1225.426488,12637.210657
1177.867745,10875.660081,612.713244,10875.660081
1177.868044,16236.900966,-1608.372265,8654.574571
1177.868343,16926.203365,-3293.333686,8041.861327
1177.868642,12943.567279,-5667.597507,8195.039638
1177.868942,9956.590215,-6586.667373,8807.752882
1177.869241,3752.868619,-3752.868619,7582.326394
1177.869561,-4442.171019,-5054.884263,7888.683016
1177.869858,-8884.342038,-2986.977064,9956.590215
1177.870155,-11947.908258,-0.000000,10722.481770
1177.870453,-13939.226301,1378.604799,12713.799813
1177.870750,-12101.086569,1684.961421,13403.102212
1177.871047,-8884.342038,5897.364973,14858.296167
1177.871344,-995.659021,4442.171019,14168.993767
1177.871641,8501.396260,5284.651729,9114.109504
1177.871959,15471.009411,7429.148083,7888.683016
1177.872258,16390.079277,1684.961421,8195.039638
1177.872556,11871.319102,-3446.511997,9803.411904
1177.872854,9497.055282,-2221.085509,8960.931193
1177.873152,2680.620442,-2221.085509,7429.148083
1177.873450,-8731.163727,-6127.132440,10569.303459
1177.873749,-16007.133499,-4825.116796,11641.551636
1177.874047,-17155.970832,306.356622,11947.908258
1177.874360,-15547.598566,1531.783110,13556.280523
1177.874655,-13939.226301,1684.961421,15241.241944
1177.874950,-4288.992708,3369.922842,13556.280523
1177.875246,7122.791461,6663.256528,9573.644437
1177.875541,14398.761234,5284.651729,8501.396260
1177.875836,15317.831100,-1148.837332,9956.590215
1177.876132,13709.458834,-4365.581863,10875.660081
1177.876427,14245.582923,-6433.489062,7352.558928
1177.876727,8348.217949,-5054.884263,7812.093861
1177.877027,-4825.116796,-9190.698660,9956.590215
1177.877328,-9573.644437,-8884.342038,9956.590215
1177.877629,-13020.156435,-2986.977064,10262.946837
1177.877929,-16160.311810,-995.659021,11564.962480
1177.878230,-17002.792521,-842.480710,16390.079277
1177.878531,-7965.272172,3829.457775,12943.567279
1177.878832,3446.511997,8654.574571,8195.039638
1177.879139,8807.752882,5744.186662,9956.590215
1177.879439,8807.752882,612.713244,10799.070925
1177.879739,14398.761234,-1302.015643,9573.644437
1177.880039,16236.900966,-3599.690308,8501.396260
1177.880340,10416.125148,-8271.628794,7812.093861
1177.880640,3752.868619,-10033.179370,9114.109504
1177.880940,-2221.085509,-7352.558928,8501.396260
1177.881240,-4748.527641,-3599.690308,8501.396260
1177.881525,-10339.535992,306.356622,7735.504705
1177.881828,-16466.668432,1072.248177,12790.388968
1177.882131,-14628.528700,3829.457775,15088.063633
1177.882434,-9726.822748,6663.256528,13096.745590
1177.882736,-6816.434839,5284.651729,12407.443191
1177.883039,919.069866,3523.101153,11488.373325
1177.883342,10262.946837,2757.209598,10722.481770
1177.883645,19760.002119,765.891555,7352.558928
1177.883883,20525.893674,-1148.837332,6816.434839
1177.884190,14705.117856,-4365.581863,9420.466126
1177.884498,4748.527641,-5514.419196,11182.016703
1177.884805,-3982.636086,-5514.419196,10416.125148
1177.885113,-12713.799813,-1455.193954,8960.931193
1177.885420,-19836.591274,612.713244,10799.070925
1177.885728,-23436.281583,-382.945777,14628.528700
1177.886035,-19377.056341,3523.101153,16083.722655
1177.886353,-7199.380617,6203.721595,12407.443191
1177.886647,1225.426488,7735.504705,11641.551636
1177.886942,9420.466126,3063.566220,11564.962480
1177.887236,18151.629853,-229.767466,9267.287815
1177.887531,21981.087628,-2680.620442,7275.969772
1177.887825,19453.645497,-9190.698660,7275.969772
1177.888120,10262.946837,-11411.784169,9956.590215
1177.888414,4671.938485,-11411.784169,8807.752882
1177.888714,-2067.907198,-7505.737239,7735.504705
1177.889013,-11105.427547,-3752.868619,9573.644437
1177.889312,-18228.219009,-2067.907198,11411.784169
1177.889611,-17615.505765,2604.031287,13786.047990
1177.889910,-12866.978124,6510.078217,12560.621502
1177.890210,-9343.876971,7735.504705,13709.458834
1177.890509,-536.124088,5131.473418,13556.280523
1177.890808,10262.946837,4595.349330,10416.125148
1177.891122,20066.358741,3523.101153,7582.326394
1177.891420,16619.846743,-3140.155375,9114.109504
1177.891719,11871.319102,-4825.116796,9956.590215
1177.892018,8041.861327,-5054.884263,8577.985416
1177.892317,1072.248177,-3599.690308,5667.597507
1177.892615,-4748.527641,-2986.977064,7429.148083
1177.892914,-16313.490121,-2986.977064,10569.303459
1177.893213,-18228.219009,-1914.728887,13249.923901
1177.893520,-16466.668432,-382.945777,15547.598566
1177.893824,-12713.799813,2450.852976,13249.923901
1177.894128,-4595.349330,1991.318043,13556.280523
1177.894431,4518.760174,2144.496354,11182.016703
1177.894735,12637.210657,3216.744531,7582.326394
1177.895039,16390.079277,612.713244,9573.644437
1177.895343,13556.280523,-3599.690308,9420.466126
1177.895647,11335.195014,-5667.597507,10952.249236
1177.895964,8195.039638,-4059.225241,8577.985416
1177.896260,765.891555,-3446.511997,6280.310751
1177.896557,-8424.807105,-2986.977064,10262.946837
1177.896853,-14628.528700,-2067.907198,11488.373325
1177.897150,-19530.234652,153.178311,13786.047990
1177.897447,-15853.955188,1991.318043,13403.102212
1177.897743,-10645.892614,3523.101153,12484.032346
1177.898040,-4135.814397,1225.426488,15471.009411
1177.898321,7275.969772,1072.248177,10722.481770
1177.898621,18457.986475,4442.171019,6663.256528
1177.898921,19453.645497,-76.589155,7888.683016
1177.899220,19606.823808,-5973.954129,9343.876971
1177.899520,12943.567279,-2680.620442,9650.233593
1177.899819,8960.931193,153.178311,4901.705952
1177.900119,-3216.744531,-1608.372265,7429.148083
1177.900418,-15700.776877,-4901.705952,12943.567279
1177.900707,-19070.699719,-1455.193954,12101.086569
1177.901007,-19683.412963,1072.248177,13479.691368
1177.901307,-16696.435899,1378.604799,13709.458834
1177.901607,-10799.070925,765.891555,13709.458834
1177.901907,-76.589155,3063.566220,13479.691368
1177.902207,12943.567279,5897.364973,7275.969772
1177.902507,18611.164786,3982.636086,7429.148083
1177.902807,17385.738298,-689.302399,10416.125148
1177.903116,16390.079277,-2833.798753,8654.574571
1177.903416,9497.055282,-2067.907198,7429.148083
1177.903715,-1608.372265,-5514.419196,8807.752882
1177.904014,-10799.070925,-8731.163727,10722.481770
1177.904314,-14245.582923,-3599.690308,11488.373325
1177.904613,-15547.598566,-2221.085509,11488.373325
1177.904912,-15547.598566,-1608.372265,14015.815456
1177.905212,-11947.908258,306.356622,14092.404612
1177.905519,-3523.101153,4442.171019,11947.908258
1177.905818,5667.597507,3829.457775,10416.125148
1177.906118,9114.109504,612.713244,9803.411904
1177.906418,14551.939545,-1148.837332,8501.396260
1177.906717,15624.187722,-4901.705952,9803.411904
1177.907017,13862.637145,-5820.775818,8195.039638
1177.907317,8348.217949,-7352.558928,6127.132440
1177.907616,-2374.263820,-5514.419196,10569.303459
1177.907913,-6203.721595,-3599.690308,9650.233593
1177.908215,-9726.822748,919.069866,9650.233593
1177.908516,-15700.776877,1225.426488,12407.443191
1177.908818,-13786.047990,919.069866,13556.280523
1177.909120,-9573.644437,4748.527641,13403.102212
1177.909421,-2221.085509,6510.078217,11182.016703
1177.909723,5361.240885,4978.295107,9573.644437
1177.910025,9420.466126,3982.636086,10033.179370
1177.910319,13556.280523,1684.961421,9573.644437
1177.910616,14551.939545,-1608.372265,9114.109504
1177.910913,9497.055282,-2833.798753,9650.233593
1177.911210,2374.263820,-3906.046930,10033.179370
1177.911507,-3216.744531,-5514.419196,9267.287815
1177.911803,-7965.272172,-4212.403552,9573.644437
1177.912100,-9880.001059,-842.480710,9420.466126
1177.912397,-13020.156435,-1148.837332,11411.784169
1177.912709,-14475.350389,-76.589155,14322.172078
1177.913009,-7658.915550,765.891555,13326.513057
1177.913309,-1455.193954,3676.279464,12713.799813
1177.913609,5514.419196,3369.922842,10262.946837
1177.913909,13403.102212,3523.101153,7505.737239
1177.914209,14015.815456,306.356622,9343.876971
1177.914509,12790.388968,-2680.620442,9650.233593
1177.914809,8348.217949,-3906.046930,9650.233593
1177.915108,-1148.837332,-6280.310751,10722.481770
1177.915408,-4748.527641,-6127.132440,9803.411904
1177.915708,-9880.001059,-2833.798753,9190.698660
1177.916008,-14092.404612,-382.945777,11105.427547
1177.916308,-12407.443191,153.178311,13173.334746
1177.916608,-11258.605858,1072.248177,12866.978124
1177.916908,-3216.744531,3523.101153,12101.086569
1177.917208,2680.620442,1531.783110,10722.481770
1177.917515,8501.396260,-689.302399,9650.233593
1177.917816,15317.831100,-995.659021,7658.915550
1177.918117,16773.025054,-5208.062574,9114.109504
1177.918417,12024.497413,-5973.954129,11028.838392
1177.918718,9803.411904,-5361.240885,7888.683016
1177.919019,2297.674665,-1761.550576,7122.791461
1177.919320,-6050.543284,-1455.193954,9650.233593
1177.919620,-10952.249236,1378.604799,10109.768526
1177.919936,-16619.846743,3676.279464,12254.264880
1177.920230,-15547.598566,3829.457775,13096.745590
1177.920524,-14475.350389,5591.008351,13862.637145
1177.920818,-8118.450483,4135.814397,12943.567279
1177.921111,4365.581863,4135.814397,9956.590215
1177.921405,7888.683016,919.069866,11182.016703
1177.921699,12943.567279,-2680.620442,9803.411904
1177.921993,16390.079277,-3752.868619,9114.109504
1177.922311,11871.319102,-5054.884263,8731.163727
1177.922609,4671.938485,-5361.240885,9420.466126
1177.922908,-3523.101153,-5208.062574,10569.303459
1177.923206,-7199.380617,-3140.155375,8807.752882
1177.923504,-9573.644437,306.356622,9803.411904
1177.923802,-13326.513057,-842.480710,13096.745590
1177.924100,-12101.086569,1072.248177,14551.939545
1177.924399,-4442.171019,2604.031287,10952.249236
1177.924712,1991.318043,3829.457775,10416.125148
1177.925008,2833.798753,-995.659021,12101.086569
1177.925304,7888.683016,-1148.837332,11794.729947
1177.925600,12024.497413,-842.480710,9267.287815
1177.925896,11871.319102,-4059.225241,6816.434839
1177.926192,6893.023995,-6893.023995,10262.946837
1177.926488,-382.945777,-6127.132440,11411.784169
1177.926784,-536.124088,-2833.798753,8501.396260
1177.927083,-2604.031287,919.069866,7582.326394
1177.927383,-8577.985416,1225.426488,10875.660081
1177.927683,-11564.962480,-382.945777,14934.885322
1177.927983,-11105.427547,1072.248177,13403.102212
1177.928283,-3369.922842,4288.992708,9956.590215
1177.928583,765.891555,1378.604799,10722.481770
1177.928883,4901.705952,-995.659021,11028.838392
1177.929184,11335.195014,919.069866,9267.287815
1177.929491,13249.923901,612.713244,8195.039638
1177.929794,9497.055282,-995.659021,8807.752882
1177.930097,1991.318043,-2067.907198,10109.768526
1177.930401,-4748.527641,-2374.263820,10416.125148
1177.930704,-7505.737239,-1914.728887,10875.660081
1177.931007,-10645.892614,306.356622,9650.233593
1177.931311,-8884.342038,459.534933,9803.411904
1177.931614,-9497.055282,-1302.015643,13862.637145
1177.931934,-3829.457775,153.178311,12790.388968
1177.932232,-0.000000,2144.496354,12713.799813
1177.932529,7122.791461,2450.852976,10416.125148
1177.932826,9956.590215,1838.139732,8195.039638
1177.933123,10416.125148,2297.674665,9650.233593
1177.933420,8041.861327,-689.302399,9880.001059
1177.933717,3599.690308,-2986.977064,10569.303459
1177.934014,2144.496354,-2221.085509,8271.628794
1177.934333,-2910.387909,-4825.116796,7888.683016
1177.934629,-7965.272172,-7199.380617,11641.551636
1177.934925,-11411.784169,-5667.597507,12254.264880
1177.935221,-10645.892614,-4365.581863,12024.497413
1177.935517,-7658.915550,-1914.728887,12254.264880
1177.935813,-5284.651729,459.534933,12101.086569
1177.936109,-1761.550576,-995.659021,13173.334746
1177.936405,5208.062574,459.534933,10645.892614
1177.936722,13556.280523,4288.992708,6816.434839
1177.937017,15471.009411,2604.031287,6280.310751
1177.937313,12637.210657,-2833.798753,8731.163727
1177.937608,8960.931193,-1608.372265,9803.411904
1177.937903,3752.868619,153.178311,9037.520349
1177.938199,-2910.387909,-382.945777,8501.396260
1177.938494,-11718.140791,-3752.868619,11488.373325
1177.938789,-15853.955188,-3140.155375,13862.637145
1177.939089,-11871.319102,1072.248177,11335.195014
1177.939390,-12101.086569,306.356622,12330.854035
1177.939690,-8118.450483,-842.480710,14168.993767
1177.939991,-1455.193954,-0.000000,13173.334746
1177.940292,8501.396260,3369.922842,10109.768526
1177.940593,14551.939545,3829.457775,5514.419196
1177.940893,11641.551636,-1608.372265,9267.287815
1177.941194,8501.396260,-4825.116796,10799.070925
1177.941501,7122.791461,-2680.620442,8195.039638
1177.941798,-995.659021,-2680.620442,8577.985416
1177.942095,-4748.527641,-4518.760174,9956.590215
1177.942392,-9190.698660,-1608.372265,10875.660081
1177.942689,-9190.698660,1531.783110,10799.070925
1177.942986,-9343.876971,2297.674665,13709.458834
1177.943283,-6663.256528,2757.209598,12560.621502
1177.943580,-2757.209598,4442.171019,12713.799813
1177.943888,2297.674665,1225.426488,11335.195014
1177.944188,3293.333686,-2680.620442,9267.287815
1177.944487,7122.791461,-995.659021,10569.303459
1177.944787,9497.055282,-4365.581863,7658.915550
1177.945087,7429.148083,-7046.202306,9956.590215
1177.945387,4518.760174,-5667.597507,9726.822748
1177.945687,612.713244,-3599.690308,8501.396260
1177.945986,-3829.457775,-3446.511997,9956.590215
1177.946270,-3676.279464,2604.031287,7812.093861
1177.946574,-9726.822748,1991.318043,12024.497413
1177.946879,-10645.892614,1378.604799,12484.032346
1177.947184,-6050.543284,4748.527641,12330.854035
1177.947489,-76.589155,4978.295107,10645.892614
1177.947794,3906.046930,459.534933,10875.660081
1177.948098,5514.419196,-76.589155,11335.195014
1177.948403,10262.946837,-2067.907198,9573.644437
1177.948720,10722.481770,-4059.225241,8041.861327
1177.949018,4748.527641,-5667.597507,10339.535992
1177.949315,-2067.907198,-3446.511997,10109.768526
1177.949612,-4595.349330,-2221.085509,9114.109504
1177.949910,-9037.520349,306.356622,11028.838392
1177.950207,-7352.558928,3216.744531,10875.660081
1177.950505,-9343.876971,4135.814397,12713.799813
1177.950802,-8118.450483,3523.101153,12943.567279
1177.951092,-1148.837332,3676.279464,10416.125148
1177.951391,2297.674665,1838.139732,11794.729947
1177.951690,5667.597507,-1148.837332,11182.016703
1177.951989,9956.590215,-4825.116796,10262.946837
1177.952289,10875.660081,-5973.954129,8884.342038
1177.952588,11335.195014,-8731.163727,8118.450483
1177.952887,5361.240885,-6433.489062,10416.125148
1177.953186,-3216.744531,-5208.062574,10416.125148
1177.953472,-6969.613150,-2986.977064,9420.466126
1177.953774,-10339.535992,3369.922842,9650.233593
1177.954075,-11947.908258,6050.543284,11028.838392
1177.954377,-11718.140791,4978.295107,13249.923901
1177.954679,-9726.822748,4595.349330,12790.388968
1177.954981,-1761.550576,5131.473418,11411.784169
1177.955283,3293.333686,-0.000000,11947.908258
1177.955585,7582.326394,-3752.868619,10875.660081
1177.955892,14245.582923,-3140.155375,8041.861327
1177.956188,14398.761234,-5667.597507,7658.915550
1177.956484,8041.861327,-6586.667373,10875.660081
1177.956781,5667.597507,-3906.046930,7429.148083
1177.957077,-0.000000,-76.589155,7275.969772
1177.957374,-5897.364973,-1455.193954,8654.574571
1177.957670,-12101.086569,-842.480710,10109.768526
1177.957966,-13632.869679,3063.566220,12484.032346
1177.958263,-10492.714303,1684.961421,12790.388968
1177.958563,-7352.558928,1378.604799,13709.458834
1177.958862,-2221.085509,1378.604799,13249.923901
1177.959162,7275.969772,765.891555,10262.946837
1177.959461,11182.016703,1072.248177,8654.574571
1177.959761,11335.195014,-842.480710,9573.644437
1177.960060,8960.931193,-4365.581863,10186.357681
1177.960360,7046.202306,-1914.728887,8807.752882
1177.960687,3293.333686,-0.000000,8118.450483
1177.960987,-3982.636086,-1455.193954,7505.737239
1177.961286,-12101.086569,-2680.620442,11411.784169
1177.961586,-13326.513057,306.356622,11947.908258
1177.961885,-11871.319102,-382.945777,12407.443191
1177.962185,-11718.140791,-2221.085509,14475.350389
1177.962484,-4595.349330,-1914.728887,12177.675724
1177.962784,612.713244,-1914.728887,12790.388968
1177.963072,7046.202306,-4212.403552,10645.892614
1177.963373,11871.319102,-1761.550576,9267.287815
1177.963674,13862.637145,-1302.015643,8118.450483
1177.963975,14168.993767,-3752.868619,7658.915550
1177.964275,8501.396260,-2221.085509,8041.861327
1177.964576,1838.139732,-1455.193954,8654.574571
1177.964877,-4748.527641,-382.945777,9114.109504
1177.965178,-9726.822748,-76.589155,10416.125148
1177.965487,-12866.978124,153.178311,12790.388968
1177.965782,-10492.714303,1225.426488,12407.443191
1177.966077,-6663.256528,2910.387909,11335.195014
1177.966373,-842.480710,2757.209598,12330.854035
1177.966668,-2604.031287,306.356622,14934.885322
1177.966964,4212.403552,2297.674665,11182.016703
1177.967259,11641.551636,4825.116796,7505.737239
1177.967554,13096.745590,306.356622,7812.093861
1177.967861,9267.287815,-3140.155375,10262.946837
1177.968160,3599.690308,-842.480710,8041.861327
1177.968459,-842.480710,-1148.837332,6816.434839
1177.968758,-6816.434839,-3446.511997,9343.876971
1177.969057,-12866.978124,-3446.511997,11718.140791
1177.969356,-13479.691368,-2067.907198,13249.923901
1177.969655,-12101.086569,-995.659021,13403.102212
1177.969954,-4978.295107,3369.922842,12943.567279
1177.970270,1225.426488,4978.295107,12943.567279
1177.970568,8195.039638,4825.116796,10262.946837
1177.970865,12024.497413,3676.279464,9956.590215
1177.971163,12637.210657,2144.496354,9190.698660
1177.971461,11488.373325,-1455.193954,6969.613150
1177.971759,5208.062574,-4671.938485,10569.303459
1177.972056,153.178311,-5667.597507,9343.876971
1177.972354,-7505.737239,-7199.380617,10262.946837
1177.972668,-11258.605858,-5054.884263,10569.303459
1177.972967,-10645.892614,-1608.372265,9114.109504
1177.973266,-12866.978124,-995.659021,13173.334746
1177.973565,-10492.714303,-1608.372265,13556.280523
1177.973863,-3982.636086,3982.636086,12713.799813
1177.974162,3446.511997,5591.008351,10569.303459
1177.974461,8195.039638,153.178311,8501.396260
1177.974759,9956.590215,-1761.550576,10416.125148
1177.975071,15011.474478,-3140.155375,9343.876971
1177.975370,16390.079277,-5973.954129,8348.217949
1177.975669,10569.303459,-5973.954129,7888.683016
1177.975968,3752.868619,-3599.690308,7582.326394
1177.976267,-7199.380617,-4671.938485,9650.233593
1177.976566,-16160.311810,-1608.372265,11794.729947
1177.976865,-17768.684076,2757.209598,11564.962480
1177.977164,-18075.040698,4595.349330,12790.388968
1177.977464,-15241.241944,4595.349330,14475.350389
1177.977763,-4595.349330,5897.364973,13096.745590
1177.978063,6433.489062,6203.721595,9956.590215
1177.978362,15011.474478,4442.171019,8960.931193
1177.978661,17385.738298,-2221.085509,9573.644437
1177.978960,17232.559987,-5820.775818,9650.233593
1177.979260,14398.761234,-8884.342038,7888.683016
1177.979559,7122.791461,-9037.520349,8041.861327
1177.979866,-4288.992708,-9880.001059,10799.070925
1177.980165,-12254.264880,-6739.845684,11105.427547
1177.980464,-13479.691368,1225.426488,9726.822748
1177.980764,-16160.311810,4978.295107,11488.373325
1177.981063,-13632.869679,5591.008351,13862.637145
1177.981362,-9726.822748,8807.752882,13020.156435
1177.981661,-2067.907198,9956.590215,11641.551636
1177.981961,5208.062574,4748.527641,10569.303459
1177.982281,8195.039638,-995.659021,10339.535992
1177.982578,14858.296167,-4059.225241,9267.287815
1177.982875,14858.296167,-10492.714303,8348.217949
1177.983172,9803.411904,-13862.637145,10262.946837
1177.983469,5054.884263,-12484.032346,10186.357681
1177.983766,-1148.837332,-7965.272172,7888.683016
1177.984063,-9726.822748,-4059.225241,10416.125148
1177.984360,-12560.621502,153.178311,9267.287815
1177.984679,-13173.334746,5897.364973,10875.660081
1177.984977,-10186.357681,7122.791461,12407.443191
1177.985276,-4135.814397,9114.109504,12101.086569
1177.985574,1072.248177,8195.039638,12943.567279
1177.985872,10875.660081,4442.171019,9880.001059
1177.986170,14168.993767,2910.387909,8884.342038
1177.986469,13249.923901,-995.659021,9803.411904
1177.986767,8195.039638,-7352.558928,10875.660081
1177.987080,1072.248177,-7965.272172,11641.551636
1177.987376,-2604.031287,-4825.116796,9573.644437
1177.987672,-6203.721595,-3140.155375,7888.683016
1177.987968,-12254.264880,-1148.837332,10033.179370
1177.988264,-9880.001059,2450.852976,8501.396260
1177.988560,-9190.698660,3063.566220,10799.070925
1177.988856,-8884.342038,2450.852976,12713.799813
1177.989152,-3982.636086,1684.961421,11028.838392
1177.989440,612.713244,-1148.837332,14015.815456
1177.989742,7046.202306,-3140.155375,10875.660081
1177.990045,11488.373325,-2527.442131,9880.001059
1177.990347,11641.551636,-3293.333686,9726.822748
1177.990649,9650.233593,-6433.489062,9573.644437
1177.990952,5820.775818,-2067.907198,10492.714303
1177.991254,2833.798753,2604.031287,6969.613150
1177.991557,-1914.728887,1072.248177,6050.543284
1177.991864,-9726.822748,153.178311,10416.125148
1177.992161,-14475.350389,612.713244,12101.086569
1177.992457,-13173.334746,-229.767466,12560.621502
1177.992754,-11718.140791,-1914.728887,13709.458834
1177.993051,-3523.101153,-2986.977064,13326.513057
1177.993348,2527.442131,-3293.333686,14168.993767
1177.993645,8807.752882,-1761.550576,10109.768526
1177.993942,16773.025054,1531.783110,6663.256528
1177.994256,12943.567279,-842.480710,9803.411904
1177.994558,10109.768526,-1914.728887,8731.163727
1177.994861,6739.845684,612.713244,7888.683016
1177.995164,1531.783110,1838.139732,7888.683016
1177.995467,-5897.364973,-1761.550576,8118.450483
1177.995770,-12254.264880,-2221.085509,11028.838392
1177.996072,-15241.241944,-995.659021,12101.086569
1177.996375,-14781.707011,-2527.442131,14322.172078
1177.996648,-10492.714303,-995.659021,14322.172078
1177.996951,-3829.457775,612.713244,13096.745590
1177.997253,8041.861327,2604.031287,10875.660081
1177.997556,12330.854035,3676.279464,9650.233593
1177.997859,15011.474478,3523.101153,9267.287815
1177.998161,15317.831100,306.356622,8195.039638
1177.998464,9650.233593,-1148.837332,8118.450483
1177.998766,5514.419196,-689.302399,7582.326394
1177.999084,-7505.737239,-5208.062574,10722.481770
1177.999378,-13479.691368,-6280.310751,11641.551636
1177.999673,-13479.691368,-2067.907198,11335.195014
1177.999967,-14092.404612,-1302.015643,12101.086569
1178.000261,-11258.605858,-995.659021,12330.854035
1178.000556,-4748.527641,1072.248177,13479.691368
1178.000850,2986.977064,3369.922842,11258.605858
1178.001145,8654.574571,1378.604799,8960.931193
1178.001445,11028.838392,2144.496354,8960.931193
1178.001745,11182.016703,-1761.550576,9037.520349
1178.002045,10569.303459,-5820.775818,11335.195014
1178.002345,5973.954129,-4901.705952,9267.287815
1178.002645,2833.798753,-3446.511997,8654.574571
1178.002945,-4978.295107,-5667.597507,9420.466126
1178.003245,-10186.357681,-3446.511997,10799.070925
1178.003545,-10952.249236,-229.767466,11488.373325
1178.003835,-11871.319102,306.356622,11641.551636
1178.004138,-9190.698660,2910.387909,12790.388968
1178.004441,-1761.550576,5131.473418,10722.481770
1178.004743,1378.604799,3829.457775,11258.605858
1178.005046,6739.845684,2144.496354,10952.249236
1178.005349,13096.745590,2604.031287,8424.807105
1178.005651,13862.637145,-382.945777,8501.396260
1178.005954,11028.838392,-5514.419196,9114.109504
1178.006262,3293.333686,-6127.132440,11028.838392
1178.006562,-2604.031287,-3752.868619,10875.660081
1178.006861,-7122.791461,-3906.046930,8654.574571
1178.007161,-9497.055282,-995.659021,9114.109504
1178.007461,-13173.334746,765.891555,12943.567279
1178.007761,-11871.319102,2297.674665,13096.745590
1178.008061,-7812.093861,5131.473418,12330.854035
1178.008360,1072.248177,7582.326394,10952.249236
1178.008644,5361.240885,4135.814397,9726.822748
1178.008946,5973.954129,1072.248177,11718.140791
1178.009249,11335.195014,1684.961421,10109.768526
1178.009551,11028.838392,-2986.977064,8501.396260
1178.009853,5514.419196,-8271.628794,11335.195014
1178.010156,2144.496354,-6893.023995,10033.179370
1178.010458,-3982.636086,-5667.597507,9420.466126
1178.010760,-4978.295107,-4212.403552,9420.466126
1178.011075,-9343.876971,-1761.550576,10186.357681
1178.011369,-12101.086569,-1302.015643,12560.621502
1178.011663,-11258.605858,-382.945777,12866.978124
1178.011957,-5131.473418,4748.527641,10109.768526
1178.012251,-0.000000,3829.457775,12254.264880
1178.012545,5361.240885,459.534933,10569.303459
1178.012840,10875.660081,-0.000000,11028.838392
1178.013134,16083.722655,-76.589155,8501.396260
1178.013445,16543.257588,-2527.442131,7275.969772
1178.013742,9497.055282,-2833.798753,9420.466126
1178.014039,-76.589155,-3140.155375,10569.303459
1178.014335,-8731.163727,-4059.225241,10722.481770
1178.014632,-14322.172078,-382.945777,10722.481770
1178.014929,-14092.404612,3369.922842,10416.125148
1178.015226,-15700.776877,765.891555,11641.551636
1178.015522,-13786.047990,2144.496354,14168.993767
1178.015831,-3676.279464,5437.830040,10109.768526
1178.016130,5208.062574,1838.139732,10569.303459
1178.016428,10416.125148,-1608.372265,9880.001059
1178.016727,13249.923901,-6433.489062,9650.233593
1178.017025,14858.296167,-3752.868619,10109.768526
1178.017324,13709.458834,-4825.116796,9420.466126
1178.017622,9267.287815,-2833.798753,7582.326394
1178.017921,1684.961421,-382.945777,8731.163727
1178.018228,-6969.613150,-76.589155,9573.644437
1178.018528,-10645.892614,5591.008351,10875.660081
1178.018827,-15853.955188,7122.791461,13403.102212
1178.019127,-16160.311810,3982.636086,12713.799813
1178.019427,-16160.311810,1225.426488,15241.241944
1178.019726,-5591.008351,2144.496354,13709.458834
1178.020026,5054.884263,-1761.550576,9803.411904
1178.020326,9650.233593,-4825.116796,9880.001059
1178.020622,15930.544344,-6739.845684,9267.287815
1178.020925,13556.280523,-9497.055282,9343.876971
1178.021228,10569.303459,-8884.342038,9803.411904
1178.021531,5973.954129,-5208.062574,8501.396260
1178.021834,-1914.728887,-1455.193954,8960.931193
1178.022137,-8118.450483,459.534933,10262.946837
1178.022439,-10339.535992,4825.116796,9803.411904
1178.022742,-10799.070925,7582.326394,10722.481770
1178.023070,-9037.520349,3829.457775,12101.086569
1178.023365,-5744.186662,1838.139732,12713.799813
1178.023661,-536.124088,765.891555,12943.567279
1178.023956,8501.396260,-1148.837332,10262.946837
1178.024252,8960.931193,-2067.907198,9573.644437
1178.024547,11335.195014,-2221.085509,9956.590215
1178.024843,9420.466126,-3293.333686,9803.411904
1178.025138,6586.667373,-2374.263820,8960.931193
1178.025426,2144.496354,612.713244,8424.807105
1178.025727,-5591.008351,-1914.728887,8195.039638
1178.026028,-11871.319102,-1914.728887,11411.784169
1178.026329,-10492.714303,306.356622,11641.551636
1178.026629,-12254.264880,459.534933,13096.745590
1178.026930,-11564.962480,-2680.620442,14245.582923
1178.027231,-4595.349330,765.891555,12177.675724
1178.027532,4671.938485,2910.387909,11258.605858
1178.027864,10109.768526,1684.961421,8118.450483
1178.028160,15317.831100,2757.209598,7812.093861
1178.028455,12330.854035,-689.302399,10416.125148
1178.028750,8960.931193,-3906.046930,10492.714303
1178.029046,4212.403552,-2067.907198,10339.535992
1178.029341,-2221.085509,459.534933,8041.861327
1178.029636,-9190.698660,-3906.046930,8348.217949
1178.029932,-15088.063633,-4365.581863,10952.249236
1178.030239,-16313.490121,-3293.333686,13326.513057
1178.030536,-12254.264880,-3293.333686,13249.923901
1178.030833,-8731.163727,-4059.225241,12943.567279
1178.031131,765.891555,-1302.015643,10952.249236
1178.031428,7429.148083,-1148.837332,10109.768526
1178.031726,11335.195014,459.534933,9880.001059
1178.032023,17998.451542,3369.922842,6663.256528
1178.032321,16619.846743,3216.744531,6969.613150
1178.032637,11794.729947,-76.589155,8807.752882
1178.032935,5208.062574,-0.000000,9420.466126
1178.033234,-1148.837332,459.534933,9190.698660
1178.033532,-6969.613150,459.534933,9420.466126
1178.033831,-11105.427547,153.178311,11641.551636
1178.034129,-17155.970832,-0.000000,13403.102212
1178.034427,-13479.691368,-76.589155,14015.815456
1178.034726,-9343.876971,1531.783110,12254.264880
1178.035083,-5437.830040,-689.302399,12407.443191
1178.035376,2374.263820,-2067.907198,12943.567279
1178.035670,8501.396260,-76.589155,10262.946837
1178.035963,17692.094920,1225.426488,7275.969772
1178.036257,14858.296167,-3446.511997,8195.039638
1178.036550,7735.504705,-4518.760174,10569.303459
1178.036844,4365.581863,-1914.728887,9420.466126
1178.037137,-2604.031287,-229.767466,7812.093861
1178.037426,-10952.249236,-2221.085509,10416.125148
1178.037723,-13786.047990,-842.480710,11641.551636
1178.038020,-14934.885322,1838.139732,13173.334746
1178.038318,-9037.520349,2757.209598,12101.086569
1178.038615,-3369.922842,2604.031287,10875.660081
1178.038913,919.069866,153.178311,12713.799813
1178.039210,7275.969772,-2680.620442,10569.303459
1178.039508,11871.319102,-2221.085509,9956.590215
1178.039807,12484.032346,-3140.155375,8118.450483
1178.040107,8807.752882,-8271.628794,8960.931193
1178.040407,2374.263820,-7812.093861,11182.016703
1178.040708,306.356622,-2833.798753,9420.466126
1178.041008,-2067.907198,-842.480710,7275.969772
1178.041308,-6969.613150,-689.302399,7275.969772
1178.041608,-8577.985416,3369.922842,9956.590215
1178.041908,-10799.070925,1225.426488,13249.923901
1178.042215,-9037.520349,2144.496354,14322.172078
1178.042518,-689.302399,5131.473418,11182.016703
1178.042821,4901.705952,4595.349330,9956.590215
1178.043125,7888.683016,-382.945777,10109.768526
1178.043428,11871.319102,153.178311,10186.357681
1178.043731,13249.923901,-1761.550576,8424.807105
1178.044035,9420.466126,-6127.132440,9420.466126
1178.044338,2297.674665,-6739.845684,11105.427547
1178.044612,-6510.078217,-5054.884263,11488.373325
1178.044916,-9726.822748,-4518.760174,9726.822748
1178.045220,-11105.427547,2297.674665,9114.109504
1178.045523,-14934.885322,1378.604799,11105.427547
1178.045827,-16007.133499,765.891555,15241.241944
1178.046131,-11105.427547,2910.387909,15700.776877
1178.046434,2144.496354,8348.217949,10645.892614
1178.046738,10875.660081,4288.992708,8960.931193
1178.047005,14015.815456,-76.589155,10109.768526
1178.047307,20372.715363,-995.659021,8654.574571
1178.047608,17998.451542,-3599.690308,6586.667373
1178.047910,11028.838392,-8271.628794,8807.752882
1178.048212,-0.000000,-7352.558928,11335.195014
1178.048513,-10645.892614,-8118.450483,12101.086569
1178.048815,-15700.776877,-4825.116796,10952.249236
1178.049117,-16313.490121,1072.248177,9114.109504
1178.049434,-18228.219009,2297.674665,11641.551636
1178.049729,-16696.435899,-0.000000,13862.637145
1178.050025,-8118.450483,3216.744531,14781.707011
1178.050320,3140.155375,4978.295107,11641.551636
1178.050615,13556.280523,765.891555,8501.396260
1178.050910,17845.273231,-2680.620442,9190.698660
1178.051206,20985.428607,-3140.155375,6663.256528
1178.051501,21291.785229,-4212.403552,8041.861327
1178.051801,11182.016703,-4518.760174,8807.752882
1178.052101,3752.868619,-1302.015643,7582.326394
1178.052401,-4825.116796,-536.124088,9420.466126
1178.052701,-15241.241944,-842.480710,10416.125148
1178.053001,-17155.970832,3982.636086,12254.264880
1178.053301,-21598.141851,3216.744531,13403.102212
1178.053601,-17615.505765,3063.566220,14322.172078
1178.053901,-9497.055282,1838.139732,14781.707011
1178.054208,-1761.550576,459.534933,14628.528700
1178.054510,9956.590215,-1302.015643,11718.140791
1178.054812,17232.559987,306.356622,8960.931193
1178.055113,20985.428607,-382.945777,6816.434839
1178.055415,17845.273231,-3140.155375,8271.628794
1178.055717,10722.481770,153.178311,8348.217949
1178.056019,1531.783110,612.713244,7888.683016
1178.056320,-9037.520349,-2221.085509,9343.876971
1178.056600,-15700.776877,-0.000000,11335.195014
1178.056900,-17768.684076,306.356622,13326.513057
1178.057200,-16696.435899,-2833.798753,12637.210657
1178.057500,-13326.513057,-4365.581863,14475.350389
1178.057799,-2067.907198,-1608.372265,12943.567279
1178.058099,5208.062574,-3140.155375,10569.303459
1178.058399,10722.481770,-3446.511997,10262.946837
1178.058699,15624.187722,-995.659021,7735.504705
1178.059015,14551.939545,-995.659021,7582.326394
1178.059316,9650.233593,-3752.868619,9037.520349
1178.059617,4518.760174,-1302.015643,7888.683016
1178.059917,-2604.031287,153.178311,8501.396260
1178.060218,-8884.342038,-689.302399,9420.466126
1178.060519,-11871.319102,-229.767466,9267.287815
1178.060819,-13479.691368,919.069866,12407.443191
1178.061120,-9880.001059,-2374.263820,14475.350389
1178.061401,-3063.566220,1991.318043,11641.551636
1178.061703,3599.690308,1225.426488,10339.535992
1178.062005,7582.326394,-2221.085509,11335.195014
1178.062307,10569.303459,-689.302399,10416.125148
1178.062609,15471.009411,1531.783110,8960.931193
1178.062911,12484.032346,-2221.085509,6969.613150
1178.063213,5054.884263,-2374.263820,11641.551636
1178.063515,-229.767466,919.069866,10262.946837
1178.063805,-7122.791461,1531.783110,8960.931193
1178.064104,-12254.264880,612.713244,10416.125148
1178.064403,-13939.226301,3982.636086,9650.233593
1178.064703,-17615.505765,153.178311,14322.172078
1178.065002,-16619.846743,-2067.907198,16466.668432
1178.065301,-5437.830040,612.713244,13479.691368
1178.065600,7888.683016,3829.457775,9803.411904
1178.065899,14398.761234,-842.480710,8807.752882
1178.066227,16926.203365,-2221.085509,10262.946837
1178.066522,18151.629853,-2221.085509,8654.574571
1178.066817,15164.652789,-4825.116796,7582.326394
1178.067111,5208.062574,-5667.597507,9114.109504
1178.067406,-7122.791461,-7199.380617,10722.481770
1178.067701,-12866.978124,-5514.419196,11871.319102
1178.067995,-14475.350389,765.891555,9803.411904
1178.068290,-14781.707011,3829.457775,9803.411904
1178.068597,-13786.047990,2450.852976,11871.319102
1178.068898,-9573.644437,2757.209598,13709.458834
1178.069198,4059.225241,5744.186662,9650.233593
1178.069499,9650.233593,2604.031287,8501.396260
1178.069799,10569.303459,-3599.690308,9880.001059
1178.070100,13096.745590,-6280.310751,10262.946837
1178.070401,13556.280523,-6127.132440,10722.481770
1178.070701,12024.497413,-8118.450483,7812.093861
1178.070998,6280.310751,-4671.938485,8654.574571
1178.071298,-2067.907198,-1914.728887,8195.039638
1178.071598,-7122.791461,-689.302399,9803.411904
1178.071899,-13479.691368,4135.814397,11182.016703
1178.072199,-15547.598566,6816.434839,10799.070925
1178.072499,-15394.420255,4825.116796,12866.978124
1178.072800,-14092.404612,2757.209598,14781.707011
1178.073100,-6203.721595,765.891555,15088.063633
1178.073395,5054.884263,1072.248177,11335.195014
1178.073696,14551.939545,-229.767466,8041.861327
1178.073997,20985.428607,-1608.372265,8195.039638
1178.074297,16926.203365,-7658.915550,10416.125148
1178.074598,12330.854035,-6433.489062,11335.195014
1178.074899,8041.861327,-2374.263820,8041.861327
1178.075200,-3216.744531,-3752.868619,8654.574571
1178.075501,-14092.404612,-2221.085509,11794.729947
1178.075789,-16007.133499,1684.961421,10416.125148
1178.076090,-18840.932253,4978.295107,13096.745590
1178.076391,-15241.241944,2757.209598,13403.102212
1178.076692,-9343.876971,4135.814397,12484.032346
1178.076992,-2374.263820,2910.387909,12637.210657
1178.077293,6280.310751,-1608.372265,10186.357681
1178.077594,11182.016703,-4671.938485,10109.768526
1178.077895,13556.280523,-5820.775818,9573.644437
1178.078181,15164.652789,-8271.628794,7812.093861
1178.078483,11182.016703,-7046.202306,9573.644437
1178.078786,7429.148083,-2986.977064,7275.969772
1178.079089,1684.961421,-2374.263820,6969.613150
1178.079392,-7352.558928,1072.248177,9803.411904
1178.079694,-9497.055282,4978.295107,8348.217949
1178.079997,-15394.420255,4288.992708,11182.016703
1178.080300,-17615.505765,2910.387909,14934.885322
1178.080607,-10645.892614,459.534933,12713.799813
1178.080906,-1914.728887,-995.659021,12560.621502
1178.081206,6127.132440,-2527.442131,11335.195014
1178.081506,14015.815456,-2986.977064,9114.109504
1178.081805,15624.187722,-4365.581863,9880.001059
1178.082105,12484.032346,-6739.845684,10569.303459
1178.082405,9956.590215,-2067.907198,8807.752882
1178.082704,2297.674665,153.178311,8807.752882
1178.083001,-3982.636086,-0.000000,8501.396260
1178.083299,-7965.272172,3216.744531,10569.303459
1178.083597,-10799.070925,6203.721595,10952.249236
1178.083895,-10952.249236,4135.814397,11335.195014
1178.084194,-12407.443191,1378.604799,14015.815456
1178.084492,-6969.613150,1072.248177,13249.923901
1178.084790,-2221.085509,-1302.015643,12101.086569
1178.085088,1225.426488,-5208.062574,12713.799813
1178.085402,5208.062574,-6127.132440,12407.443191
1178.085701,13249.923901,-4365.581863,10416.125148
1178.086000,15317.831100,-3906.046930,7199.380617
1178.086298,11335.195014,-3752.868619,7199.380617
1178.086597,4212.403552,-2221.085509,8731.163727
1178.086896,-1761.550576,-689.302399,8654.574571
