#time,accel_x,accel_y,accel_z
1204.808078,-0.000000,-382.945777,10569.303459
1204.808379,-0.000000,-382.945777,10262.946837
1204.808680,-382.945777,-382.945777,10569.303459
1204.808981,-76.589155,-536.124088,10262.946837
1204.809260,-76.589155,-536.124088,10569.303459
1204.809564,-229.767466,-689.302399,10492.714303
1204.809869,-382.945777,-536.124088,10492.714303
1204.810173,-536.124088,-689.302399,10645.892614
1204.810478,-76.589155,-229.767466,10569.303459
1204.810782,-76.589155,-536.124088,10569.303459
1204.811086,-0.000000,-229.767466,10875.660081
1204.811391,153.178311,-229.767466,10416.125148
1204.811664,-76.589155,-382.945777,10569.303459
1204.811966,1991.318043,-76.589155,10569.303459
1204.812269,4748.527641,-382.945777,9956.590215
1204.812571,8501.396260,-382.945777,9650.233593
1204.812874,12637.210657,-76.589155,9650.233593
1204.813176,17538.916609,306.356622,8807.752882
1204.813479,19300.467186,-0.000000,9267.287815
1204.813781,22440.622561,306.356622,9114.109504
1204.814099,21521.552695,919.069866,9343.876971
1204.814393,20219.537052,1838.139732,8884.342038
1204.814688,19147.288875,1072.248177,8731.163727
1204.814982,15317.831100,919.069866,9956.590215
1204.815277,14398.761234,612.713244,10262.946837
1204.815571,15011.474478,-229.767466,10262.946837
1204.815866,19760.002119,459.534933,10109.768526
1204.816160,26423.258647,459.534933,8960.931193
1204.816460,29716.592334,-76.589155,7888.683016
1204.816760,25887.134559,-2986.977064,9114.109504
1204.817059,18151.629853,-6433.489062,14322.172078
1204.817358,11335.195014,-6280.310751,16390.079277
1204.817657,8501.396260,-3446.511997,14168.993767
1204.817956,7429.148083,612.713244,13249.923901
1204.818255,3906.046930,1531.783110,12943.567279
1204.818555,306.356622,1838.139732,16466.668432
1204.818868,1991.318043,2604.031287,17155.970832
1204.819167,10109.768526,6050.543284,12101.086569
1204.819466,18764.343097,7275.969772,9267.287815
1204.819765,24048.994827,3676.279464,7582.326394
1204.820063,28797.522468,-0.000000,7658.915550
1204.820362,33699.228420,-1914.728887,7429.148083
1204.820661,38754.112683,-5208.062574,5208.062574
1204.820960,39826.360860,-8577.985416,5591.008351
1204.821267,34311.941664,-9343.876971,8271.628794
1204.821571,27342.328513,-6739.845684,9726.822748
1204.821874,19453.645497,-2986.977064,12943.567279
1204.822178,13096.745590,919.069866,13632.869679
1204.822482,6893.023995,3676.279464,14168.993767
1204.822786,-536.124088,4825.116796,13556.280523
1204.823090,-3829.457775,3982.636086,13020.156435
1204.823394,919.069866,-536.124088,10875.660081
1204.823677,3140.155375,-4059.225241,11335.195014
1204.823974,9497.055282,-5667.597507,12943.567279
1204.824270,16773.025054,-3140.155375,11028.838392
1204.824566,30482.483889,4748.527641,5361.240885
1204.824863,35613.957307,7582.326394,5054.884263
1204.825159,29103.879090,6203.721595,8654.574571
1204.825455,19606.823808,3676.279464,10722.481770
1204.825752,8807.752882,1072.248177,8960.931193
1204.826047,-4978.295107,-7199.380617,11488.373325
1204.826348,-18381.397320,-12790.388968,15011.474478
1204.826648,-25657.367092,-13862.637145,17079.381676
1204.826949,-18687.753942,-12484.032346,15930.544344
1204.827250,-2374.263820,-5667.597507,10339.535992
1204.827551,8348.217949,1072.248177,10186.357681
1204.827852,18764.343097,5744.186662,11182.016703
1204.828153,31784.499532,15547.598566,4365.581863
1204.828465,32090.856154,18611.164786,4442.171019
1204.828762,20219.537052,13326.513057,7735.504705
1204.829059,2680.620442,7122.791461,9650.233593
1204.829357,-13173.334746,3063.566220,13556.280523
1204.829654,-26193.491181,-6586.667373,14551.939545
1204.829952,-33316.282642,-12637.210657,14781.707011
1204.830249,-30559.073044,-13403.102212,16083.722655
1204.830547,-14475.350389,-13862.637145,13096.745590
1204.830856,2833.798753,-11871.319102,8960.931193
1204.831154,19300.467186,-5514.419196,8041.861327
1204.831453,35537.368152,-3752.868619,2680.620442
1204.831751,41894.268058,459.534933,612.713244
1204.832050,33009.926020,-229.767466,6663.256528
1204.832348,22746.979183,-995.659021,5361.240885
1204.832647,3293.333686,-76.589155,8501.396260
1204.832945,-11105.427547,1838.139732,10492.714303
1204.833252,-26653.026114,-1761.550576,10569.303459
1204.833552,-38830.701838,-2221.085509,17538.916609
1204.833852,-37375.507884,-382.945777,17768.684076
1204.834151,-32473.801932,-2986.977064,16773.025054
1204.834451,-19377.056341,-4212.403552,18994.110564
1204.834750,-689.302399,-4365.581863,12713.799813
1204.835050,18764.343097,-842.480710,8424.807105
1204.835350,34924.654908,765.891555,5514.419196
1204.835646,38294.577750,-1302.015643,2221.085509
1204.835949,32703.569398,1072.248177,2910.387909
1204.836252,19147.288875,1684.961421,6663.256528
1204.836555,612.713244,-689.302399,9956.590215
1204.836858,-12407.443191,459.534933,14245.582923
1204.837161,-16619.846743,5744.186662,12254.264880
1204.837464,-20755.661140,6510.078217,12713.799813
1204.837767,-20296.126207,5284.651729,19377.056341
1204.838061,-11258.605858,9420.466126,16619.846743
1204.838358,5208.062574,14398.761234,11564.962480
1204.838655,16236.900966,13479.691368,9420.466126
1204.838952,20219.537052,6663.256528,5514.419196
1204.839249,18304.808164,765.891555,8118.450483
1204.839546,13709.458834,-2986.977064,6663.256528
1204.839843,4671.938485,-8884.342038,5897.364973
1204.840139,-8577.985416,-13709.458834,11335.195014
1204.840451,-16007.133499,-13862.637145,13020.156435
1204.840751,-22517.211717,-8884.342038,15088.063633
1204.841051,-22823.568339,-1608.372265,17998.451542
1204.841351,-19530.234652,3063.566220,15547.598566
1204.841651,-9726.822748,9650.233593,12866.978124
1204.841951,3140.155375,12866.978124,10339.535992
1204.842251,11335.195014,8348.217949,6663.256528
1204.842551,16773.025054,3523.101153,6893.023995
1204.842850,19453.645497,-1914.728887,5208.062574
1204.843150,19606.823808,-7046.202306,1148.837332
1204.843449,12637.210657,-10492.714303,6356.899906
1204.843748,2986.977064,-17615.505765,10722.481770
1204.844047,-8731.163727,-18994.110564,16007.133499
1204.844347,-13020.156435,-11258.605858,17155.970832
1204.844646,-6969.613150,-2527.442131,9420.466126
1204.844945,-7505.737239,1838.139732,9037.520349
1204.845252,-7812.093861,4442.171019,13326.513057
1204.845553,-5897.364973,4978.295107,12407.443191
1204.845855,612.713244,7429.148083,10262.946837
1204.846156,6586.667373,6203.721595,5667.597507
1204.846458,6739.845684,-689.302399,5744.186662
1204.846759,2680.620442,-5820.775818,11411.784169
1204.847061,3446.511997,-7352.558928,10033.179370
1204.847362,1072.248177,-5667.597507,9650.233593
1204.847679,2297.674665,-2833.798753,11258.605858
1204.847972,-3216.744531,-1914.728887,9420.466126
1204.848266,-8271.628794,-536.124088,13862.637145
1204.848560,-6816.434839,2144.496354,11794.729947
1204.848853,-7199.380617,1378.604799,7888.683016
1204.849147,-8118.450483,-229.767466,11335.195014
1204.849441,-8577.985416,-3752.868619,10722.481770
1204.849734,-2757.209598,-382.945777,10645.892614
1204.850053,5667.597507,3676.279464,9343.876971
1204.850351,10416.125148,3063.566220,6663.256528
1204.850649,10722.481770,4135.814397,10262.946837
1204.850948,8807.752882,4825.116796,12254.264880
1204.851246,7735.504705,5744.186662,9267.287815
1204.851544,2986.977064,4442.171019,11258.605858
1204.851843,-995.659021,153.178311,11488.373325
1204.852141,-6510.078217,-5054.884263,11335.195014
1204.852454,-9880.001059,-5514.419196,13403.102212
1204.852752,-9497.055282,-5514.419196,10109.768526
1204.853051,-8731.163727,-3293.333686,11028.838392
1204.853349,-5744.186662,-1914.728887,13403.102212
1204.853647,-689.302399,153.178311,11028.838392
1204.853946,3446.511997,2910.387909,13020.156435
1204.854244,9497.055282,6356.899906,10569.303459
1204.854543,13403.102212,6203.721595,6356.899906
1204.854843,10262.946837,1991.318043,9420.466126
1204.855143,8348.217949,-2067.907198,9114.109504
1204.855443,1225.426488,-5820.775818,8807.752882
1204.855743,-7812.093861,-10339.535992,12560.621502
1204.856043,-10645.892614,-12637.210657,11105.427547
1204.856343,-12254.264880,-10339.535992,10186.357681
1204.856643,-8424.807105,-5514.419196,9650.233593
1204.856943,-6203.721595,-4365.581863,9267.287815
1204.857250,-5744.186662,-3140.155375,13096.745590
1204.857547,1991.318043,2450.852976,11411.784169
1204.857843,7429.148083,5284.651729,7812.093861
1204.858140,8195.039638,2910.387909,10109.768526
1204.858437,8195.039638,-1455.193954,8807.752882
1204.858734,6893.023995,-2221.085509,8731.163727
1204.859031,5667.597507,-1455.193954,8884.342038
1204.859328,919.069866,-3140.155375,6280.310751
1204.859642,-4135.814397,-1608.372265,9803.411904
1204.859942,-8118.450483,-1302.015643,12560.621502
1204.860243,-6969.613150,1838.139732,10339.535992
1204.860543,-6510.078217,3982.636086,13326.513057
1204.860843,-4595.349330,3523.101153,13556.280523
1204.861144,-842.480710,2604.031287,12484.032346
1204.861444,4671.938485,4135.814397,13632.869679
1204.861744,10262.946837,4825.116796,9726.822748
1204.862063,9420.466126,3523.101153,9650.233593
1204.862359,6433.489062,4825.116796,10109.768526
1204.862655,3293.333686,4748.527641,6893.023995
1204.862951,-382.945777,2450.852976,8884.342038
1204.863247,-6203.721595,459.534933,11411.784169
1204.863543,-10952.249236,-4059.225241,12790.388968
1204.863840,-12407.443191,-3446.511997,15241.241944
1204.864136,-6510.078217,-689.302399,13709.458834
1204.864453,-2067.907198,1072.248177,9573.644437
1204.864752,765.891555,-76.589155,12254.264880
1204.865050,5054.884263,-995.659021,10722.481770
1204.865349,9267.287815,-1148.837332,8424.807105
1204.865647,10416.125148,-536.124088,6586.667373
1204.865946,5667.597507,-5054.884263,3982.636086
1204.866244,1991.318043,-5973.954129,8041.861327
1204.866543,-382.945777,-6586.667373,9803.411904
1204.866820,-3523.101153,-5667.597507,9190.698660
1204.867120,-12254.264880,-7812.093861,14705.117856
1204.867420,-12713.799813,-6127.132440,14475.350389
1204.867720,-7505.737239,-3599.690308,12484.032346
1204.868020,-229.767466,-536.124088,11488.373325
1204.868320,4059.225241,-2221.085509,9037.520349
1204.868620,4518.760174,-2680.620442,10416.125148
1204.868920,10416.125148,-76.589155,8424.807105
1204.869250,10416.125148,306.356622,4748.527641
1204.869547,8654.574571,-689.302399,7505.737239
1204.869844,1072.248177,-3752.868619,10262.946837
1204.870141,-5131.473418,-5514.419196,12943.567279
1204.870438,-3523.101153,153.178311,13709.458834
1204.870734,-1302.015643,3523.101153,10339.535992
1204.871031,-2910.387909,3829.457775,11488.373325
1204.871328,-4135.814397,3982.636086,15241.241944
1204.871636,-3216.744531,4288.992708,11488.373325
1204.871936,-1302.015643,4442.171019,10262.946837
1204.872236,-2374.263820,1378.604799,10569.303459
1204.872536,-1608.372265,-842.480710,8807.752882
1204.872836,306.356622,-1455.193954,11718.140791
1204.873136,5361.240885,919.069866,8424.807105
1204.873435,4518.760174,2757.209598,8501.396260
1204.873735,-0.000000,2604.031287,11794.729947
1204.874019,153.178311,2910.387909,9803.411904
1204.874323,-229.767466,2910.387909,10875.660081
1204.874628,-0.000000,919.069866,10109.768526
1204.874933,-4442.171019,-3906.046930,11641.551636
1204.875238,-5591.008351,-5514.419196,13709.458834
1204.875542,-1455.193954,-4365.581863,10875.660081
1204.875847,-1761.550576,-2833.798753,8041.861327
1204.876152,-2067.907198,-2986.977064,10569.303459
1204.876469,-76.589155,-2833.798753,10033.179370
1204.876766,4365.581863,2297.674665,8424.807105
1204.877064,6586.667373,4595.349330,9573.644437
1204.877361,6893.023995,3676.279464,7888.683016
1204.877659,5514.419196,1072.248177,10875.660081
1204.877956,4518.760174,-2833.798753,12943.567279
1204.878254,2986.977064,-5820.775818,9497.055282
1204.878551,-3982.636086,-5208.062574,10569.303459
1204.878864,-6510.078217,-7812.093861,10645.892614
1204.879157,-10186.357681,-8577.985416,12790.388968
1204.879449,-6356.899906,-5054.884263,11641.551636
1204.879742,-995.659021,-1608.372265,9343.876971
1204.880034,-536.124088,-382.945777,9803.411904
1204.880327,4518.760174,1684.961421,11794.729947
1204.880619,6893.023995,3982.636086,8807.752882
1204.880911,7582.326394,4978.295107,9343.876971
1204.881225,4059.225241,1378.604799,10416.125148
1204.881523,-2374.263820,-3446.511997,10875.660081
1204.881821,-4288.992708,-4059.225241,12101.086569
1204.882119,-3829.457775,-2221.085509,8884.342038
1204.882417,-3982.636086,-3752.868619,8424.807105
1204.882714,-4978.295107,-6127.132440,12484.032346
1204.883012,-3829.457775,-3599.690308,12560.621502
1204.883310,1531.783110,2297.674665,10492.714303
1204.883617,4518.760174,6050.543284,9956.590215
1204.883918,3599.690308,6510.078217,7505.737239
1204.884218,459.534933,4135.814397,12330.854035
1204.884519,1072.248177,2297.674665,12790.388968
1204.884819,3140.155375,2910.387909,9114.109504
1204.885120,2374.263820,1378.604799,9956.590215
1204.885421,1072.248177,-1148.837332,8807.752882
1204.885721,-1914.728887,-2221.085509,10416.125148
1204.886018,-2757.209598,-689.302399,12101.086569
1204.886317,-4135.814397,-1914.728887,10569.303459
1204.886617,-3982.636086,-842.480710,12790.388968
1204.886916,-1148.837332,1684.961421,12407.443191
1204.887216,3293.333686,2910.387909,8271.628794
1204.887515,2833.798753,2604.031287,10262.946837
1204.887815,5208.062574,1225.426488,9573.644437
1204.888115,2527.442131,-2833.798753,9956.590215
1204.888409,-76.589155,-3599.690308,12484.032346
1204.888710,-229.767466,-4059.225241,6969.613150
1204.889010,-689.302399,-3906.046930,8807.752882
1204.889310,-2604.031287,-4671.938485,11411.784169
1204.889610,-2374.263820,-4212.403552,9497.055282
1204.889910,-3676.279464,-2680.620442,11641.551636
1204.890210,-5437.830040,-2374.263820,13709.458834
1204.890510,-3676.279464,-3906.046930,11488.373325
1204.890822,-76.589155,-995.659021,11105.427547
1204.891119,5208.062574,-689.302399,9573.644437
1204.891416,2527.442131,-2986.977064,9420.466126
1204.891712,2297.674665,-2680.620442,9803.411904
1204.892009,4671.938485,-2374.263820,6510.078217
1204.892306,2144.496354,-2221.085509,9114.109504
1204.892603,-3829.457775,-3446.511997,12713.799813
1204.892900,-7199.380617,-5054.884263,13020.156435
1204.893200,-5131.473418,612.713244,14168.993767
1204.893500,-76.589155,3829.457775,10569.303459
1204.893800,3599.690308,4288.992708,9037.520349
1204.894100,2986.977064,5284.651729,11794.729947
1204.894400,5054.884263,5131.473418,10722.481770
1204.894700,6893.023995,4442.171019,8654.574571
1204.895000,4748.527641,3676.279464,8195.039638
1204.895300,153.178311,-382.945777,7735.504705
1204.895607,-5437.830040,-5208.062574,12713.799813
1204.895906,-6816.434839,-3446.511997,13862.637145
1204.896205,-4825.116796,-1608.372265,11028.838392
1204.896504,-6050.543284,-536.124088,12943.567279
1204.896803,-2910.387909,1072.248177,11641.551636
1204.897102,919.069866,5437.830040,10569.303459
1204.897401,5973.954129,6816.434839,8348.217949
1204.897700,5820.775818,4978.295107,5744.186662
1204.898016,2680.620442,-1455.193954,9267.287815
1204.898314,-3063.566220,-4901.705952,12101.086569
1204.898611,-3829.457775,-6739.845684,9497.055282
1204.898909,-5131.473418,-6586.667373,11641.551636
1204.899207,-3829.457775,-7352.558928,10952.249236
1204.899504,-2910.387909,-7046.202306,11794.729947
1204.899802,612.713244,-2067.907198,11947.908258
1204.900100,5054.884263,2297.674665,9267.287815
1204.900414,5208.062574,3369.922842,9650.233593
1204.900713,5667.597507,1684.961421,9420.466126
1204.901012,2527.442131,153.178311,9650.233593
1204.901310,306.356622,-842.480710,9956.590215
1204.901609,-3216.744531,-2680.620442,10645.892614
1204.901908,-4748.527641,-5514.419196,11028.838392
1204.902206,-6203.721595,-5667.597507,12943.567279
1204.902505,-1761.550576,-2067.907198,11564.962480
1204.902793,-689.302399,-229.767466,10952.249236
1204.903096,1225.426488,612.713244,11258.605858
1204.903398,5208.062574,3216.744531,9956.590215
1204.903701,6739.845684,3216.744531,8654.574571
1204.904003,5514.419196,306.356622,9420.466126
1204.904306,-995.659021,-2986.977064,9880.001059
1204.904608,-1148.837332,-2986.977064,10339.535992
1204.904910,-3676.279464,-995.659021,9573.644437
1204.905210,-5131.473418,-2221.085509,9190.698660
1204.905509,-7122.791461,-1761.550576,11641.551636
1204.905809,-4442.171019,459.534933,12407.443191
1204.906108,-1302.015643,2144.496354,11182.016703
1204.906407,459.534933,3523.101153,9650.233593
1204.906706,919.069866,3676.279464,10722.481770
1204.907006,153.178311,919.069866,11335.195014
1204.907305,1531.783110,-76.589155,12024.497413
1204.907612,3599.690308,-76.589155,9956.590215
1204.907911,1838.139732,-1302.015643,9190.698660
1204.908210,459.534933,-1608.372265,9114.109504
1204.908510,-1914.728887,306.356622,8195.039638
1204.908809,-4135.814397,-536.124088,9726.822748
1204.909108,-4595.349330,-1608.372265,11335.195014
1204.909407,-5131.473418,-1148.837332,13862.637145
1204.909706,-382.945777,1838.139732,13709.458834
1204.910010,2833.798753,3523.101153,9956.590215
1204.910310,4518.760174,2910.387909,9267.287815
1204.910611,7046.202306,1378.604799,11335.195014
1204.910911,3752.868619,-2067.907198,10569.303459
1204.911211,4518.760174,-0.000000,9190.698660
1204.911512,1684.961421,-76.589155,7812.093861
1204.911812,-3829.457775,-3446.511997,9573.644437
1204.912112,-6203.721595,-4901.705952,11182.016703
1204.912431,-4825.116796,-4671.938485,11028.838392
1204.912725,-3676.279464,-3752.868619,11794.729947
1204.913018,-4748.527641,-2374.263820,11641.551636
1204.913312,-2450.852976,-842.480710,12101.086569
1204.913605,459.534933,306.356622,11258.605858
1204.913899,7122.791461,1378.604799,7582.326394
1204.914192,4518.760174,-842.480710,7888.683016
1204.914486,459.534933,-2680.620442,10262.946837
1204.914803,612.713244,-2986.977064,6893.023995
1204.915102,-1455.193954,-3906.046930,7735.504705
1204.915400,-4442.171019,-6127.132440,11182.016703
1204.915699,-10339.535992,-9880.001059,12713.799813
1204.915997,-7658.915550,-6280.310751,15011.474478
1204.916296,-2067.907198,-382.945777,12024.497413
1204.916594,3599.690308,2604.031287,9114.109504
1204.916893,5667.597507,4442.171019,10799.070925
1204.917193,8041.861327,5284.651729,11028.838392
1204.917494,9267.287815,5744.186662,7965.272172
1204.917794,7735.504705,7122.791461,6433.489062
1204.918095,1991.318043,2604.031287,6816.434839
1204.918396,-6050.543284,-2680.620442,12254.264880
1204.918697,-9497.055282,-3140.155375,14475.350389
1204.918997,-8118.450483,-2833.798753,12866.978124
1204.919298,-8118.450483,-2833.798753,15088.063633
1204.919605,-3216.744531,306.356622,14015.815456
1204.919902,2527.442131,3982.636086,10416.125148
1204.920199,8501.396260,5897.364973,9650.233593
1204.920496,7122.791461,3369.922842,8960.931193
1204.920793,5667.597507,919.069866,8501.396260
1204.921090,3906.046930,-1148.837332,8654.574571
1204.921387,459.534933,-1914.728887,6893.023995
1204.921684,-2604.031287,-3293.333686,9573.644437
1204.921992,-7505.737239,-3599.690308,11641.551636
1204.922291,-8884.342038,-3906.046930,11182.016703
1204.922590,-7122.791461,-2986.977064,13249.923901
1204.922889,-3523.101153,153.178311,11105.427547
1204.923188,-229.767466,459.534933,10492.714303
1204.923486,3140.155375,-382.945777,10875.660081
1204.923785,7582.326394,-2680.620442,8118.450483
1204.924084,9267.287815,-4212.403552,8424.807105
1204.924401,4365.581863,-6433.489062,9114.109504
1204.924699,459.534933,-9190.698660,8654.574571
1204.924998,-3829.457775,-6893.023995,10416.125148
1204.925296,-4825.116796,-5361.240885,10645.892614
1204.925595,-7658.915550,-2527.442131,9803.411904
1204.925893,-6663.256528,765.891555,13862.637145
1204.926191,-2757.209598,3982.636086,12407.443191
1204.926490,5054.884263,6203.721595,10875.660081
1204.926807,7735.504705,5131.473418,13173.334746
1204.927105,7429.148083,306.356622,9880.001059
1204.927403,5973.954129,-76.589155,9956.590215
1204.927700,4748.527641,-382.945777,10109.768526
1204.927998,2144.496354,-2221.085509,7582.326394
1204.928296,-3216.744531,-4518.760174,9650.233593
1204.928594,-6969.613150,-4059.225241,12790.388968
1204.928892,-6969.613150,-1914.728887,12407.443191
1204.929191,-4825.116796,612.713244,12560.621502
1204.929491,-1761.550576,4442.171019,10569.303459
1204.929792,612.713244,5744.186662,9956.590215
1204.930092,1531.783110,4135.814397,12637.210657
1204.930392,1378.604799,4748.527641,11335.195014
1204.930692,3293.333686,4442.171019,9267.287815
1204.930992,3906.046930,4288.992708,7735.504705
1204.931292,919.069866,-1148.837332,7199.380617
1204.931582,-1914.728887,-2986.977064,9956.590215
1204.931881,-3369.922842,-4518.760174,10416.125148
1204.932180,-5437.830040,-5514.419196,10416.125148
1204.932479,-6356.899906,-6127.132440,12790.388968
1204.932777,-4442.171019,-4901.705952,12101.086569
1204.933076,612.713244,-1302.015643,10645.892614
1204.933375,6433.489062,306.356622,10799.070925
1204.933673,5361.240885,306.356622,9573.644437
1204.933980,6127.132440,-76.589155,9956.590215
1204.934285,5667.597507,2910.387909,9803.411904
1204.934590,3599.690308,2450.852976,7275.969772
1204.934894,153.178311,612.713244,9267.287815
1204.935199,-2067.907198,-1914.728887,10875.660081
1204.935504,-995.659021,-382.945777,10952.249236
1204.935808,-2374.263820,-1608.372265,12637.210657
1204.936113,-2221.085509,-2067.907198,9880.001059
1204.936396,-2757.209598,-4825.116796,12866.978124
1204.936692,-3216.744531,-7046.202306,16160.311810
1204.936989,-842.480710,-4901.705952,11641.551636
1204.937285,1838.139732,-2986.977064,9190.698660
1204.937581,3599.690308,-1455.193954,8807.752882
1204.937878,2144.496354,-995.659021,7429.148083
1204.938174,919.069866,765.891555,8501.396260
1204.938470,-2221.085509,-689.302399,9880.001059
1204.938798,-5437.830040,1378.604799,11335.195014
1204.939094,-4135.814397,2910.387909,12330.854035
1204.939390,-2757.209598,2757.209598,10645.892614
1204.939686,-995.659021,2757.209598,12101.086569
1204.939983,1072.248177,1378.604799,12713.799813
1204.940279,2680.620442,-2221.085509,11028.838392
1204.940575,2680.620442,-1761.550576,11105.427547
1204.940871,3752.868619,-842.480710,8960.931193
1204.941183,1531.783110,-536.124088,6280.310751
1204.941483,612.713244,-229.767466,8501.396260
1204.941783,-3523.101153,-3140.155375,10339.535992
1204.942083,-4978.295107,-229.767466,11335.195014
1204.942383,-2374.263820,3982.636086,11488.373325
1204.942682,306.356622,3216.744531,9803.411904
1204.942982,3599.690308,4135.814397,12484.032346
1204.943282,6280.310751,5897.364973,11488.373325
1204.943568,4059.225241,3829.457775,9573.644437
1204.943870,3293.333686,1531.783110,10569.303459
1204.944172,153.178311,-2067.907198,10875.660081
1204.944474,-1455.193954,-2680.620442,9420.466126
1204.944775,-2450.852976,-4365.581863,9650.233593
1204.945077,-5284.651729,-6127.132440,9497.055282
1204.945379,-5591.008351,-5667.597507,11564.962480
1204.945681,-4748.527641,-4059.225241,11488.373325
1204.945988,-4595.349330,-3140.155375,11411.784169
1204.946287,-1761.550576,-689.302399,12254.264880
1204.946587,919.069866,-995.659021,12560.621502
1204.946887,1378.604799,306.356622,10492.714303
1204.947186,3446.511997,-1455.193954,10262.946837
1204.947486,1378.604799,-1608.372265,9267.287815
1204.947786,459.534933,-2833.798753,9420.466126
1204.948085,-382.945777,-2680.620442,9650.233593
1204.948382,-76.589155,-995.659021,8577.985416
1204.948681,-3676.279464,-2527.442131,9803.411904
1204.948980,-5131.473418,-5973.954129,13020.156435
1204.949278,-4978.295107,-4671.938485,12713.799813
1204.949577,1991.318043,-2986.977064,11182.016703
1204.949876,3752.868619,-3599.690308,10645.892614
1204.950175,3293.333686,-2833.798753,10262.946837
1204.950474,6739.845684,1838.139732,9190.698660
1204.950768,7429.148083,2450.852976,6969.613150
1204.951068,2527.442131,612.713244,9114.109504
1204.951367,-76.589155,306.356622,11028.838392
1204.951666,-2374.263820,2604.031287,9573.644437
1204.951966,-1302.015643,3369.922842,9114.109504
1204.952265,-1302.015643,2604.031287,9880.001059
1204.952564,-4442.171019,765.891555,11488.373325
1204.952863,-2450.852976,1684.961421,14628.528700
1204.953175,-1914.728887,-536.124088,12407.443191
1204.953476,-1148.837332,919.069866,10799.070925
1204.953777,2374.263820,1225.426488,9803.411904
1204.954077,612.713244,459.534933,7735.504705
1204.954378,-1914.728887,-1761.550576,9573.644437
1204.954679,-1302.015643,459.534933,11488.373325
1204.954980,-3369.922842,1531.783110,9497.055282
1204.955280,-2757.209598,2297.674665,10416.125148
1204.955590,-2067.907198,2604.031287,11411.784169
1204.955885,-2757.209598,1991.318043,11488.373325
1204.956180,-382.945777,1378.604799,11182.016703
1204.956476,-689.302399,-1455.193954,11182.016703
1204.956771,612.713244,-3446.511997,11718.140791
1204.957066,3293.333686,-3140.155375,11718.140791
1204.957362,3293.333686,-3446.511997,8731.163727
1204.957657,4059.225241,-2833.798753,9343.876971
1204.957964,3599.690308,-3906.046930,10722.481770
1204.958266,919.069866,-2221.085509,9420.466126
1204.958568,-536.124088,459.534933,11564.962480
1204.958871,-536.124088,-0.000000,9803.411904
1204.959173,-842.480710,919.069866,10262.946837
1204.959475,1072.248177,-76.589155,12024.497413
1204.959777,1072.248177,-1148.837332,9497.055282
1204.960080,3293.333686,-2067.907198,9420.466126
1204.960396,1072.248177,-4059.225241,11641.551636
1204.960694,-2221.085509,-6893.023995,11411.784169
1204.960993,-2604.031287,-4365.581863,10186.357681
1204.961291,-2221.085509,-2374.263820,9190.698660
1204.961589,-4288.992708,-2986.977064,10262.946837
1204.961888,-4978.295107,-689.302399,9420.466126
1204.962186,-2604.031287,1531.783110,8960.931193
1204.962485,-995.659021,306.356622,9573.644437
1204.962718,153.178311,-2833.798753,11641.551636
1204.963025,-1148.837332,-3140.155375,10722.481770
1204.963331,-0.000000,-2221.085509,11641.551636
1204.963638,2680.620442,-382.945777,9803.411904
1204.963944,2527.442131,-689.302399,8041.861327
1204.964250,1378.604799,1225.426488,11105.427547
1204.964557,306.356622,1531.783110,11488.373325
1204.964863,-536.124088,2910.387909,10875.660081
1204.965176,2374.263820,5284.651729,9650.233593
1204.965475,-995.659021,1072.248177,10033.179370
1204.965773,-2450.852976,765.891555,11641.551636
1204.966072,459.534933,-995.659021,12024.497413
1204.966370,1684.961421,-1302.015643,10875.660081
1204.966669,1991.318043,1225.426488,12254.264880
1204.966967,4901.705952,2297.674665,9573.644437
1204.967266,2986.977064,3063.566220,8807.752882
1204.967565,1838.139732,2604.031287,10722.481770
1204.967865,-1302.015643,1531.783110,10875.660081
1204.968164,-4442.171019,1072.248177,11028.838392
1204.968463,-3982.636086,612.713244,11335.195014
1204.968762,-3523.101153,459.534933,9956.590215
1204.969062,-2374.263820,-382.945777,11488.373325
1204.969361,459.534933,-2067.907198,11947.908258
1204.969660,-1608.372265,-3599.690308,11641.551636
1204.969967,306.356622,-3293.333686,10875.660081
1204.970270,919.069866,-4365.581863,9956.590215
1204.970572,306.356622,-2374.263820,8654.574571
1204.970875,1378.604799,-1455.193954,9267.287815
1204.971177,-76.589155,-3906.046930,9573.644437
1204.971480,-2450.852976,-2680.620442,10875.660081
1204.971782,919.069866,-382.945777,10186.357681
1204.972085,3140.155375,2144.496354,8271.628794
1204.972405,-382.945777,-842.480710,11028.838392
1204.972702,-689.302399,-4059.225241,12637.210657
1204.972999,-2450.852976,-3599.690308,11947.908258
1204.973296,2144.496354,-2527.442131,9420.466126
1204.973593,2680.620442,-4212.403552,6969.613150
1204.973890,-842.480710,-4825.116796,9497.055282
1204.974187,919.069866,-1761.550576,11182.016703
1204.974484,2144.496354,-229.767466,9726.822748
1204.974803,-382.945777,-1148.837332,12024.497413
1204.975096,-689.302399,-76.589155,13096.745590
1204.975389,-229.767466,2757.209598,9956.590215
1204.975681,-76.589155,4595.349330,9956.590215
1204.975974,2527.442131,2144.496354,11105.427547
1204.976267,-382.945777,1378.604799,11182.016703
1204.976560,1531.783110,3676.279464,11028.838392
1204.976852,153.178311,1684.961421,9114.109504
1204.977169,-3523.101153,919.069866,10875.660081
1204.977468,-3523.101153,-1302.015643,12254.264880
1204.977767,-2221.085509,765.891555,10569.303459
1204.978065,-1914.728887,1378.604799,11564.962480
1204.978364,1378.604799,1531.783110,10109.768526
1204.978663,765.891555,1378.604799,9497.055282
1204.978961,4365.581863,3369.922842,10875.660081
1204.979260,3752.868619,-382.945777,9267.287815
1204.979560,-1761.550576,-1914.728887,10109.768526
1204.979857,-2757.209598,-2833.798753,12330.854035
1204.980154,-2450.852976,-3140.155375,8807.752882
1204.980452,-1761.550576,-2221.085509,10416.125148
1204.980749,-1302.015643,-3140.155375,11182.016703
1204.981047,-842.480710,-1302.015643,10416.125148
1204.981344,1072.248177,2450.852976,12101.086569
1204.981641,3752.868619,3216.744531,10262.946837
1204.981972,2986.977064,1684.961421,9803.411904
1204.982269,3140.155375,306.356622,10109.768526
1204.982566,1838.139732,-842.480710,9420.466126
1204.982863,-229.767466,-3140.155375,10875.660081
1204.983159,-1455.193954,-4901.705952,10722.481770
1204.983456,-842.480710,-5667.597507,9803.411904
1204.983753,-382.945777,-4901.705952,9803.411904
1204.984050,612.713244,-2527.442131,10492.714303
1204.984358,306.356622,-1608.372265,10569.303459
1204.984658,-2374.263820,-995.659021,13249.923901
1204.984958,-1455.193954,-995.659021,12177.675724
1204.985258,306.356622,765.891555,10109.768526
1204.985557,1684.961421,459.534933,9803.411904
1204.985857,1991.318043,-536.124088,8654.574571
1204.986157,306.356622,-536.124088,9114.109504
1204.986457,612.713244,-382.945777,10109.768526
1204.986740,459.534933,-4059.225241,7735.504705
1204.987045,-1302.015643,-2986.977064,10569.303459
1204.987350,-1302.015643,-3599.690308,11488.373325
1204.987655,-3063.566220,-2680.620442,10186.357681
1204.987959,-2757.209598,-689.302399,12254.264880
1204.988264,919.069866,1225.426488,10722.481770
1204.988569,1378.604799,2450.852976,12024.497413
1204.988874,4748.527641,3523.101153,12024.497413
1204.989146,4212.403552,3676.279464,8424.807105
1204.989449,2986.977064,3523.101153,8960.931193
1204.989753,-1148.837332,-995.659021,9420.466126
1204.990057,-7199.380617,-2680.620442,10722.481770
1204.990361,-6050.543284,-1148.837332,12790.388968
1204.990665,-4288.992708,-689.302399,11105.427547
1204.990969,-1761.550576,1991.318043,11105.427547
1204.991273,765.891555,5437.830040,13479.691368
1204.991563,3293.333686,4825.116796,9267.287815
1204.991861,4671.938485,4978.295107,10875.660081
1204.992160,5361.240885,1684.961421,12713.799813
1204.992459,2144.496354,-536.124088,8960.931193
1204.992757,1531.783110,-0.000000,9267.287815
1204.993056,1072.248177,-1761.550576,8195.039638
1204.993355,-2604.031287,-5208.062574,9267.287815
1204.993653,-3523.101153,-5054.884263,10875.660081
1204.993939,-3523.101153,-4825.116796,10339.535992
1204.994241,-6203.721595,-4212.403552,11488.373325
1204.994543,-1608.372265,-2527.442131,12101.086569
1204.994844,306.356622,153.178311,10645.892614
1204.995146,3599.690308,-0.000000,10262.946837
1204.995448,2986.977064,-2374.263820,10645.892614
1204.995750,1838.139732,-1761.550576,9114.109504
1204.996052,2527.442131,-842.480710,8424.807105
1204.996364,612.713244,-3906.046930,6280.310751
1204.996660,-5131.473418,-5054.884263,9267.287815
1204.996955,-8731.163727,-8884.342038,14015.815456
1204.997251,-8884.342038,-8884.342038,12713.799813
1204.997547,-4978.295107,-4518.760174,11182.016703
1204.997842,1838.139732,-1148.837332,10262.946837
1204.998138,1684.961421,-1914.728887,10109.768526
1204.998434,5667.597507,2604.031287,9956.590215
1204.998730,11182.016703,4135.814397,9880.001059
1204.999034,7429.148083,1991.318043,9497.055282
1204.999338,5514.419196,459.534933,10262.946837
1204.999641,1225.426488,-76.589155,7735.504705
1204.999945,-1761.550576,306.356622,7735.504705
1205.000249,-3216.744531,-1455.193954,10722.481770
1205.000552,-5437.830040,-2067.907198,12560.621502
1205.000856,-6663.256528,1991.318043,14015.815456
1205.001151,-2067.907198,3982.636086,12560.621502
1205.001448,-2374.263820,6356.899906,10262.946837
1205.001745,1072.248177,5744.186662,12254.264880
1205.002041,1531.783110,4825.116796,11335.195014
1205.002338,1838.139732,3982.636086,8960.931193
1205.002635,2374.263820,3523.101153,9114.109504
1205.002932,-382.945777,-76.589155,8348.217949
1205.003229,-2067.907198,-1455.193954,9650.233593
1205.003541,-2221.085509,-4671.938485,11641.551636
1205.003841,-4978.295107,-4671.938485,11028.838392
1205.004142,-7199.380617,-5054.884263,12254.264880
1205.004443,-3216.744531,-1302.015643,11794.729947
1205.004744,2144.496354,153.178311,10722.481770
1205.005044,5361.240885,1531.783110,11488.373325
1205.005345,7735.504705,919.069866,9803.411904
1205.005646,5820.775818,2450.852976,8807.752882
1205.005955,7122.791461,-536.124088,8884.342038
1205.006254,2527.442131,-1914.728887,7582.326394
1205.006552,-2221.085509,-2833.798753,9650.233593
1205.006851,-6050.543284,-5514.419196,11794.729947
1205.007149,-7965.272172,-5514.419196,10952.249236
1205.007448,-6510.078217,-3752.868619,12101.086569
1205.007747,-3829.457775,-995.659021,12101.086569
1205.008045,-3216.744531,-2067.907198,10416.125148
1205.008386,-536.124088,-2374.263820,15088.063633
1205.008681,1378.604799,-3293.333686,11258.605858
1205.008976,6586.667373,-1148.837332,8195.039638
1205.009271,9267.287815,306.356622,7658.915550
1205.009565,5820.775818,-1148.837332,6050.543284
1205.009860,2833.798753,-995.659021,8041.861327
1205.010155,-995.659021,-2374.263820,9420.466126
1205.010450,-5897.364973,-4365.581863,10875.660081
1205.010747,-10339.535992,-6739.845684,13556.280523
1205.011045,-7505.737239,-3446.511997,12943.567279
1205.011343,-1148.837332,-76.589155,10109.768526
1205.011641,3140.155375,1838.139732,11182.016703
1205.011939,5361.240885,919.069866,11028.838392
1205.012237,4059.225241,3676.279464,9803.411904
1205.012535,3140.155375,2757.209598,10109.768526
1205.012833,-536.124088,1838.139732,8960.931193
1205.013148,-2374.263820,2297.674665,10799.070925
1205.013447,-2604.031287,1991.318043,9956.590215
1205.013745,-4825.116796,612.713244,10186.357681
1205.014044,-6050.543284,1225.426488,12024.497413
1205.014343,-4978.295107,-229.767466,12943.567279
1205.014641,-2604.031287,306.356622,12866.978124
1205.014940,4059.225241,1684.961421,12943.567279
1205.015239,5667.597507,1072.248177,10799.070925
1205.015527,5667.597507,1531.783110,9650.233593
1205.015827,7429.148083,2604.031287,7582.326394
1205.016127,5054.884263,459.534933,8348.217949
1205.016427,1991.318043,-382.945777,10569.303459
1205.016727,-1914.728887,-2067.907198,9573.644437
1205.017027,-2067.907198,-1302.015643,10722.481770
1205.017327,-2757.209598,-2374.263820,11258.605858
1205.017627,-3676.279464,-3140.155375,11182.016703
1205.017927,-3676.279464,-382.945777,12943.567279
1205.018226,-1302.015643,153.178311,12866.978124
1205.018525,-842.480710,-2221.085509,10033.179370
1205.018824,-995.659021,-1761.550576,10952.249236
1205.019124,153.178311,-3293.333686,10262.946837
1205.019423,1225.426488,-3752.868619,7199.380617
1205.019722,2986.977064,-2833.798753,8731.163727
1205.020021,153.178311,-4671.938485,8501.396260
1205.020362,-5744.186662,-6893.023995,11335.195014
1205.020656,-6663.256528,-5361.240885,13249.923901
1205.020951,-2374.263820,-4518.760174,9114.109504
1205.021245,-1761.550576,-3906.046930,12101.086569
1205.021540,765.891555,-1761.550576,12101.086569
1205.021834,4671.938485,153.178311,7735.504705
1205.022128,8501.396260,3676.279464,9726.822748
1205.022423,5667.597507,919.069866,9726.822748
1205.022743,306.356622,765.891555,8654.574571
1205.023040,-1148.837332,1531.783110,11335.195014
1205.023337,-2067.907198,1072.248177,9267.287815
1205.023635,-3523.101153,1225.426488,10262.946837
1205.023932,-2450.852976,2604.031287,12866.978124
1205.024229,-4135.814397,1378.604799,11411.784169
1205.024526,-1608.372265,1684.961421,13403.102212
1205.024823,2527.442131,919.069866,12254.264880
1205.025141,612.713244,919.069866,10262.946837
1205.025440,2297.674665,1991.318043,11258.605858
1205.025738,1378.604799,3216.744531,8654.574571
1205.026036,4748.527641,3523.101153,6280.310751
1205.026334,2144.496354,2297.674665,9803.411904
1205.026633,-2221.085509,-382.945777,11258.605858
1205.026931,-4978.295107,-382.945777,11641.551636
1205.027229,-1608.372265,-76.589155,10799.070925
1205.027542,-536.124088,153.178311,8348.217949
1205.027838,-2910.387909,-2680.620442,12254.264880
1205.028134,-3676.279464,-4212.403552,13403.102212
1205.028430,-842.480710,-2833.798753,10722.481770
1205.028726,1991.318043,-1914.728887,10262.946837
1205.029022,612.713244,-3599.690308,8195.039638
1205.029318,-0.000000,-1455.193954,9267.287815
1205.029614,2680.620442,-842.480710,10569.303459
1205.029914,1378.604799,-689.302399,8960.931193
1205.030214,-1302.015643,-842.480710,11718.140791
1205.030515,-3523.101153,-1608.372265,12713.799813
1205.030816,-2757.209598,-1608.372265,9803.411904
1205.031116,919.069866,-76.589155,10262.946837
1205.031417,-382.945777,-2527.442131,11794.729947
1205.031718,612.713244,-4365.581863,9803.411904
1205.032019,1991.318043,-3140.155375,12713.799813
1205.032326,2680.620442,-2680.620442,9343.876971
1205.032627,3293.333686,-2067.907198,8041.861327
1205.032928,1072.248177,-995.659021,10416.125148
1205.033228,306.356622,306.356622,8577.985416
1205.033529,765.891555,612.713244,8807.752882
1205.033830,-689.302399,153.178311,10492.714303
1205.034131,-4135.814397,-842.480710,10875.660081
1205.034432,-4442.171019,-2221.085509,13862.637145
1205.034712,-2374.263820,-1608.372265,11641.551636
1205.035014,-229.767466,-842.480710,9267.287815
1205.035316,459.534933,-2067.907198,10262.946837
1205.035618,-1455.193954,-536.124088,9803.411904
1205.035920,2297.674665,-229.767466,10262.946837
1205.036221,2144.496354,-0.000000,9190.698660
1205.036523,459.534933,1378.604799,8577.985416
1205.036825,-2757.209598,1531.783110,10875.660081
1205.037144,-2757.209598,3523.101153,10952.249236
1205.037439,-1148.837332,3369.922842,10416.125148
1205.037734,-382.945777,2757.209598,13249.923901
1205.038029,919.069866,1378.604799,12713.799813
1205.038325,1378.604799,1072.248177,9956.590215
1205.038620,3599.690308,1225.426488,10109.768526
1205.038915,1072.248177,306.356622,8041.861327
1205.039210,-2221.085509,-1302.015643,12943.567279
1205.039528,-1608.372265,-1302.015643,11564.962480
1205.039825,612.713244,306.356622,7582.326394
1205.040123,153.178311,1378.604799,10875.660081
1205.040421,-689.302399,1991.318043,10262.946837
1205.040719,-1148.837332,1684.961421,11182.016703
1205.041017,1531.783110,153.178311,11105.427547
1205.041315,1991.318043,-2833.798753,10186.357681
1205.041612,153.178311,-5361.240885,12790.388968
1205.041912,306.356622,-5667.597507,10262.946837
1205.042212,3293.333686,-3906.046930,7352.558928
1205.042512,1378.604799,-3599.690308,8501.396260
1205.042812,-1914.728887,-3140.155375,10033.179370
1205.043112,-5591.008351,-2986.977064,10109.768526
1205.043412,-5131.473418,-2527.442131,11028.838392
1205.043712,-2604.031287,-2833.798753,10109.768526
1205.044012,-2374.263820,-2527.442131,10569.303459
1205.044303,-1148.837332,-3293.333686,13709.458834
1205.044605,2680.620442,-2680.620442,9573.644437
1205.044908,5514.419196,-1455.193954,8501.396260
1205.045210,2527.442131,-2067.907198,9880.001059
1205.045513,-3369.922842,-3293.333686,9343.876971
1205.045816,-6050.543284,-1914.728887,11718.140791
1205.046118,-2221.085509,1531.783110,10722.481770
1205.046421,-1914.728887,1838.139732,11182.016703
1205.046729,-0.000000,3676.279464,11182.016703
1205.047029,1838.139732,4748.527641,10416.125148
1205.047329,1991.318043,4595.349330,11871.319102
1205.047628,4365.581863,2144.496354,11335.195014
1205.047928,3293.333686,2450.852976,11794.729947
1205.048228,3140.155375,2144.496354,9650.233593
1205.048528,1378.604799,1072.248177,9420.466126
1205.048828,-76.589155,-0.000000,9573.644437
1205.049111,-2067.907198,-76.589155,10875.660081
1205.049414,-4135.814397,612.713244,12866.978124
1205.049717,-3982.636086,2144.496354,10722.481770
1205.050020,-995.659021,765.891555,11105.427547
1205.050323,-382.945777,1991.318043,9956.590215
1205.050625,459.534933,1531.783110,11182.016703
1205.050928,-842.480710,-76.589155,11105.427547
1205.051231,-1914.728887,-1761.550576,9650.233593
1205.051513,-2221.085509,-1608.372265,10722.481770
1205.051815,153.178311,-2527.442131,8195.039638
1205.052118,-536.124088,-5820.775818,8807.752882
1205.052421,-76.589155,-5820.775818,10416.125148
1205.052723,-0.000000,-3293.333686,9420.466126
1205.053026,-842.480710,-2374.263820,11335.195014
1205.053329,459.534933,-842.480710,10339.535992
1205.053631,-842.480710,-842.480710,10033.179370
1205.053921,-2067.907198,-0.000000,11488.373325
1205.054217,612.713244,-76.589155,11028.838392
1205.054513,765.891555,1225.426488,10262.946837
1205.054808,153.178311,-2680.620442,11641.551636
1205.055104,-1148.837332,-2221.085509,10339.535992
1205.055400,919.069866,-689.302399,8807.752882
1205.055696,-229.767466,-2680.620442,11488.373325
1205.055992,-2221.085509,-2986.977064,10569.303459
1205.056305,153.178311,-76.589155,10722.481770
1205.056603,3140.155375,1378.604799,10262.946837
1205.056901,306.356622,-536.124088,9114.109504
1205.057199,-0.000000,-0.000000,12790.388968
1205.057497,1991.318043,-536.124088,10339.535992
1205.057795,1225.426488,-1302.015643,9573.644437
1205.058092,1072.248177,-2374.263820,9956.590215
1205.058390,919.069866,-536.124088,9420.466126
1205.058697,1225.426488,-76.589155,9880.001059
1205.058997,1991.318043,306.356622,9956.590215
1205.059297,-1608.372265,1838.139732,9420.466126
1205.059596,-5591.008351,-229.767466,10262.946837
1205.059896,-6969.613150,-2527.442131,12713.799813
1205.060195,-5897.364973,-2067.907198,12713.799813
1205.060495,-995.659021,-1761.550576,11641.551636
1205.060795,1684.961421,-1148.837332,10109.768526
1205.061091,4518.760174,2144.496354,8654.574571
1205.061394,3752.868619,2604.031287,9726.822748
1205.061697,459.534933,1684.961421,9497.055282
1205.062000,-2450.852976,1378.604799,10952.249236
1205.062303,-5897.364973,-995.659021,13173.334746
1205.062606,-6663.256528,-2067.907198,11258.605858
1205.062909,-2374.263820,765.891555,11794.729947
1205.063212,1378.604799,3216.744531,10952.249236
1205.063506,2527.442131,3063.566220,9803.411904
1205.063807,5208.062574,2450.852976,10722.481770
1205.064107,7735.504705,3982.636086,9573.644437
1205.064407,6433.489062,1531.783110,9803.411904
1205.064707,2986.977064,-1302.015643,10033.179370
1205.065007,-1761.550576,-4365.581863,9420.466126
1205.065307,-1455.193954,-4901.705952,8807.752882
1205.065608,-4825.116796,-6433.489062,10952.249236
1205.065896,-6510.078217,-6280.310751,10033.179370
1205.066196,-7965.272172,-7199.380617,13096.745590
1205.066497,-4595.349330,-3906.046930,13326.513057
1205.066798,1991.318043,-842.480710,9573.644437
1205.067099,4365.581863,-229.767466,11182.016703
1205.067400,5208.062574,1838.139732,9267.287815
1205.067700,3599.690308,919.069866,6969.613150
1205.068001,5820.775818,1225.426488,7735.504705
1205.068310,153.178311,-3906.046930,7429.148083
1205.068606,-4748.527641,-7658.915550,11182.016703
1205.068902,-6816.434839,-6433.489062,12637.210657
1205.069199,-4595.349330,-4518.760174,11488.373325
1205.069495,-2374.263820,-1302.015643,12177.675724
1205.069791,-1608.372265,2450.852976,11488.373325
1205.070087,1684.961421,6510.078217,11028.838392
1205.070383,2527.442131,6969.613150,12943.567279
1205.070690,4059.225241,6050.543284,10875.660081
1205.070992,4901.705952,6356.899906,9190.698660
1205.071294,3752.868619,3676.279464,9267.287815
1205.071597,-229.767466,306.356622,8501.396260
1205.071899,-3216.744531,-1148.837332,10645.892614
1205.072201,-4442.171019,-2374.263820,11641.551636
1205.072503,-4135.814397,-2221.085509,10722.481770
1205.072806,-6203.721595,-1455.193954,12713.799813
1205.073122,-2604.031287,-0.000000,11488.373325
1205.073420,1225.426488,1684.961421,9880.001059
1205.073719,4212.403552,1072.248177,11028.838392
1205.074017,3906.046930,-2527.442131,11028.838392
1205.074316,3446.511997,-2527.442131,9497.055282
1205.074614,8348.217949,1838.139732,6663.256528
1205.074912,7046.202306,-995.659021,5820.775818
1205.075211,-1455.193954,-5054.884263,9726.822748
1205.075525,-7199.380617,-5208.062574,11641.551636
1205.075821,-7352.558928,-4825.116796,9803.411904
1205.076118,-7505.737239,-4825.116796,12560.621502
1205.076414,-6203.721595,-5208.062574,12866.978124
1205.076710,-536.124088,-2374.263820,10875.660081
1205.077006,4671.938485,-1761.550576,10645.892614
1205.077303,8348.217949,-2067.907198,9267.287815
1205.077599,2986.977064,-4212.403552,10799.070925
1205.077887,3140.155375,-1302.015643,10875.660081
1205.078187,1531.783110,153.178311,7888.683016
1205.078487,459.534933,2450.852976,8041.861327
1205.078787,-3216.744531,-229.767466,10799.070925
1205.079087,-6510.078217,-229.767466,12790.388968
1205.079386,-3063.566220,919.069866,12407.443191
1205.079686,-2221.085509,-689.302399,12254.264880
1205.079986,-4288.992708,-2986.977064,14475.350389
1205.080286,612.713244,-1761.550576,12484.032346
1205.080585,4212.403552,919.069866,9573.644437
1205.080884,5054.884263,1684.961421,9267.287815
1205.081184,3906.046930,1072.248177,9190.698660
1205.081483,5208.062574,3523.101153,8041.861327
1205.081782,3293.333686,2297.674665,9420.466126
1205.082082,3140.155375,612.713244,8960.931193
1205.082381,-1761.550576,1378.604799,9037.520349
1205.082688,-3369.922842,-689.302399,11028.838392
1205.082991,-7965.272172,-4518.760174,12637.210657
1205.083293,-8577.985416,-3140.155375,14858.296167
1205.083596,-3369.922842,-2986.977064,13632.869679
1205.083898,-689.302399,-536.124088,9573.644437
1205.084201,5361.240885,612.713244,7199.380617
1205.084503,5973.954129,1225.426488,6586.667373
1205.084806,3906.046930,612.713244,8577.985416
1205.085126,1531.783110,-995.659021,10645.892614
1205.085423,-1608.372265,-76.589155,10645.892614
1205.085720,-3676.279464,-842.480710,9956.590215
1205.086017,-4978.295107,-536.124088,10492.714303
1205.086314,-4442.171019,1838.139732,11794.729947
1205.086611,-2067.907198,1684.961421,14092.404612
1205.086908,-76.589155,1531.783110,12790.388968
1205.087205,5054.884263,3369.922842,9650.233593
1205.087524,6127.132440,1531.783110,10109.768526
1205.087817,4518.760174,306.356622,8960.931193
1205.088110,2680.620442,-2527.442131,7812.093861
1205.088402,1225.426488,-4671.938485,8960.931193
1205.088695,-3369.922842,-5820.775818,9573.644437
1205.088988,-7199.380617,-7812.093861,11182.016703
1205.089281,-7658.915550,-5208.062574,13020.156435
1205.089573,-3216.744531,-3446.511997,11335.195014
1205.089891,1531.783110,-2374.263820,12101.086569
1205.090189,5514.419196,-842.480710,10875.660081
1205.090488,7046.202306,1378.604799,9420.466126
1205.090786,9803.411904,1684.961421,7582.326394
1205.091085,6280.310751,1838.139732,6586.667373
1205.091384,-2067.907198,-2986.977064,10109.768526
1205.091682,-8577.985416,-6586.667373,11641.551636
1205.091981,-9497.055282,-4825.116796,11105.427547
1205.092281,-10033.179370,-7352.558928,12407.443191
1205.092581,-7352.558928,-5667.597507,11718.140791
1205.092881,-2067.907198,153.178311,11718.140791
1205.093181,5667.597507,5591.008351,9956.590215
1205.093481,10262.946837,5284.651729,10339.535992
1205.093782,9803.411904,6816.434839,10569.303459
1205.094082,11488.373325,9114.109504,9573.644437
1205.094382,5820.775818,8654.574571,7122.791461
1205.094689,-3523.101153,4978.295107,9420.466126
1205.094986,-7505.737239,1991.318043,13096.745590
1205.095283,-11947.908258,-0.000000,12177.675724
1205.095580,-10186.357681,-2067.907198,12713.799813
1205.095877,-8884.342038,-2067.907198,12254.264880
1205.096174,-5591.008351,-1608.372265,12637.210657
1205.096470,612.713244,-842.480710,11641.551636
1205.096767,6127.132440,-536.124088,10033.179370
1205.097075,7275.969772,-1455.193954,10262.946837
1205.097374,11028.838392,153.178311,7582.326394
1205.097673,11028.838392,1531.783110,4212.403552
1205.097972,8654.574571,-229.767466,6586.667373
1205.098271,1225.426488,-2527.442131,9650.233593
1205.098570,-4442.171019,-2680.620442,9650.233593
1205.098869,-6050.543284,-3293.333686,12024.497413
1205.099168,-9037.520349,-4518.760174,12407.443191
1205.099485,-11871.319102,-5361.240885,14781.707011
1205.099785,-6663.256528,-4212.403552,13556.280523
1205.100086,-3523.101153,-5208.062574,10875.660081
1205.100386,-229.767466,-2986.977064,11794.729947
1205.100687,5054.884263,-4825.116796,11028.838392
1205.100988,7735.504705,-689.302399,8424.807105
1205.101288,10262.946837,1991.318043,6969.613150
1205.101589,8654.574571,3523.101153,6663.256528
1205.101871,4059.225241,4748.527641,8654.574571
1205.102173,153.178311,4135.814397,9880.001059
1205.102475,-3369.922842,1991.318043,9726.822748
1205.102777,-7352.558928,-76.589155,13096.745590
1205.103078,-10033.179370,-4671.938485,15777.366033
1205.103380,-8577.985416,-4518.760174,13786.047990
1205.103682,-4288.992708,-3599.690308,12560.621502
1205.103984,306.356622,-2986.977064,10569.303459
1205.104274,2297.674665,-382.945777,8654.574571
1205.104573,5667.597507,1991.318043,7888.683016
1205.104872,5820.775818,2450.852976,8501.396260
1205.105172,3906.046930,3216.744531,6969.613150
1205.105471,612.713244,612.713244,9420.466126
1205.105770,-3523.101153,-1302.015643,9573.644437
1205.106069,-4442.171019,-1608.372265,11794.729947
1205.106368,-2221.085509,-2680.620442,13326.513057
1205.106696,306.356622,-2067.907198,11335.195014
1205.106991,1225.426488,-76.589155,12407.443191
1205.107285,3906.046930,-76.589155,9114.109504
1205.107580,2374.263820,612.713244,8960.931193
1205.107874,2374.263820,153.178311,10262.946837
1205.108169,1531.783110,-229.767466,8501.396260
1205.108464,-995.659021,-382.945777,9497.055282
1205.108758,-1608.372265,-995.659021,11182.016703
1205.109065,919.069866,-0.000000,9956.590215
1205.109366,-1914.728887,1838.139732,11641.551636
1205.109666,-1914.728887,153.178311,14628.528700
1205.109967,-3676.279464,2297.674665,12560.621502
1205.110267,-842.480710,3216.744531,10875.660081
1205.110568,-689.302399,1378.604799,9650.233593
1205.110868,-2757.209598,765.891555,10875.660081
1205.111169,-382.945777,-76.589155,11488.373325
1205.111465,2144.496354,-0.000000,7429.148083
1205.111766,2297.674665,-1761.550576,9497.055282
1205.112066,-1302.015643,-5667.597507,11794.729947
1205.112366,-2757.209598,-5973.954129,9956.590215
1205.112667,-3676.279464,-5667.597507,11564.962480
1205.112967,153.178311,-5973.954129,9420.466126
1205.113267,-536.124088,-8118.450483,9880.001059
1205.113568,3446.511997,-5514.419196,10722.481770
1205.113863,7888.683016,-3140.155375,7429.148083
1205.114163,8348.217949,-1455.193954,7812.093861
1205.114464,1684.961421,-2680.620442,12101.086569
1205.114765,-4135.814397,-2221.085509,11335.195014
1205.115066,-4595.349330,3523.101153,10722.481770
1205.115367,-5437.830040,1838.139732,10875.660081
1205.115668,-7965.272172,306.356622,10033.179370
1205.115969,-5131.473418,1378.604799,13556.280523
1205.116257,1684.961421,4135.814397,11335.195014
1205.116558,5514.419196,2144.496354,10186.357681
1205.116858,5667.597507,1225.426488,12484.032346
1205.117159,5667.597507,1378.604799,8501.396260
1205.117460,3446.511997,4442.171019,9803.411904
1205.117761,306.356622,2910.387909,10875.660081
1205.118062,-3829.457775,2604.031287,10416.125148
1205.118363,-2604.031287,5591.008351,10722.481770
1205.118672,-382.945777,5131.473418,8501.396260
1205.118971,-1455.193954,3829.457775,9267.287815
1205.119271,-3216.744531,-689.302399,13096.745590
1205.119570,-4748.527641,-2374.263820,13939.226301
1205.119869,-1455.193954,-1761.550576,10799.070925
1205.120169,1531.783110,-3446.511997,10722.481770
1205.120468,459.534933,-6280.310751,8807.752882
1205.120767,1225.426488,-3906.046930,9497.055282
1205.121074,4671.938485,-2833.798753,9114.109504
1205.121374,1991.318043,-2221.085509,7735.504705
1205.121674,-382.945777,-1148.837332,10262.946837
1205.121973,-2450.852976,612.713244,11564.962480
1205.122273,-2757.209598,-1455.193954,9573.644437
1205.122573,-1914.728887,-3906.046930,12254.264880
1205.122872,-536.124088,-7046.202306,9956.590215
1205.123172,1684.961421,-6433.489062,10569.303459
1205.123468,3446.511997,-5208.062574,11105.427547
1205.123766,4212.403552,-6280.310751,8884.342038
1205.124063,2680.620442,-3293.333686,11794.729947
1205.124360,4671.938485,-536.124088,9803.411904
1205.124658,153.178311,2604.031287,9114.109504
1205.124955,-1761.550576,5744.186662,10416.125148
1205.125253,-689.302399,5437.830040,9497.055282
1205.125550,-1914.728887,3523.101153,9573.644437
1205.125864,-5437.830040,-536.124088,13096.745590
1205.126163,-11564.962480,-7658.915550,14168.993767
1205.126462,-8731.163727,-4212.403552,12943.567279
1205.126760,-4748.527641,-5361.240885,14092.404612
1205.127059,-1455.193954,-4901.705952,9956.590215
1205.127358,2374.263820,-842.480710,9037.520349
1205.127656,9114.109504,3216.744531,7658.915550
1205.127955,9114.109504,2450.852976,6510.078217
1205.128243,5054.884263,2144.496354,9497.055282
1205.128543,3140.155375,306.356622,7122.791461
1205.128843,-1914.728887,-1761.550576,9037.520349
1205.129143,-4135.814397,-7199.380617,13326.513057
1205.129443,-4288.992708,-8577.985416,11564.962480
1205.129743,-2221.085509,-5361.240885,11947.908258
1205.130043,2680.620442,-3140.155375,10033.179370
1205.130343,4518.760174,306.356622,7888.683016
1205.130643,5514.419196,4442.171019,10262.946837
1205.130945,3140.155375,5437.830040,10492.714303
1205.131248,2374.263820,8041.861327,10109.768526
1205.131551,1378.604799,7275.969772,10109.768526
1205.131853,-1455.193954,5131.473418,9420.466126
1205.132156,-4288.992708,1991.318043,11794.729947
1205.132458,-5897.364973,-536.124088,13939.226301
1205.132761,-6969.613150,-3446.511997,12254.264880
1205.133068,-7122.791461,-2986.977064,12024.497413
1205.133364,-3216.744531,-3599.690308,11411.784169
1205.133660,-1608.372265,-1761.550576,9803.411904
1205.133956,2374.263820,-2067.907198,10569.303459
1205.134252,5667.597507,-1302.015643,5897.364973
1205.134548,5361.240885,1225.426488,8577.985416
1205.134844,5361.240885,-1761.550576,9880.001059
1205.135139,1684.961421,-4671.938485,10033.179370
1205.135443,1378.604799,-2986.977064,11105.427547
1205.135743,1531.783110,-4901.705952,9650.233593
1205.136044,-1761.550576,-5973.954129,9650.233593
1205.136344,-995.659021,-6127.132440,10109.768526
1205.136644,-4595.349330,-7046.202306,12330.854035
1205.136944,-2910.387909,-4825.116796,9267.287815
1205.137245,-3982.636086,-5514.419196,10416.125148
1205.137545,-4595.349330,-5208.062574,12484.032346
1205.137864,-1302.015643,306.356622,10952.249236
1205.138162,1838.139732,2604.031287,10033.179370
1205.138460,765.891555,3676.279464,8654.574571
1205.138758,2297.674665,2450.852976,12024.497413
1205.139057,4365.581863,2604.031287,12713.799813
1205.139355,4212.403552,2297.674665,10262.946837
1205.139653,2986.977064,1991.318043,11028.838392
1205.139952,1838.139732,3063.566220,10262.946837
1205.140264,153.178311,2604.031287,8424.807105
1205.140561,-76.589155,2450.852976,10799.070925
1205.140857,-6663.256528,-76.589155,12713.799813
1205.141153,-5437.830040,765.891555,11794.729947
1205.141449,-995.659021,1378.604799,11335.195014
1205.141745,1378.604799,2757.209598,8807.752882
1205.142041,2374.263820,2144.496354,11488.373325
1205.142337,3599.690308,1838.139732,9803.411904
1205.142636,5208.062574,3063.566220,8807.752882
1205.142936,4748.527641,765.891555,9114.109504
1205.143236,-1914.728887,-3599.690308,9420.466126
1205.143536,-8118.450483,-5667.597507,12790.388968
1205.143836,-4442.171019,-4671.938485,11182.016703
1205.144136,-5591.008351,-5820.775818,10262.946837
1205.144437,-7352.558928,-5054.884263,11488.373325
1205.144737,-2374.263820,-1455.193954,10875.660081
1205.145044,-842.480710,1531.783110,9956.590215
1205.145345,3446.511997,1378.604799,10875.660081
1205.145646,3446.511997,612.713244,11564.962480
1205.145947,5514.419196,1531.783110,8884.342038
1205.146248,10109.768526,2604.031287,8960.931193
1205.146549,7429.148083,-842.480710,7582.326394
1205.146850,1225.426488,-3140.155375,10952.249236
1205.147151,-3063.566220,-4518.760174,13709.458834
1205.147431,-4978.295107,-4212.403552,9573.644437
1205.147736,-5131.473418,-2986.977064,11182.016703
1205.148041,-3829.457775,-3140.155375,13709.458834
1205.148346,-995.659021,2144.496354,9726.822748
1205.148651,4365.581863,4135.814397,10109.768526
1205.148957,3140.155375,1378.604799,9573.644437
1205.149262,765.891555,-1914.728887,10416.125148
1205.149567,-1914.728887,-5208.062574,12943.567279
1205.149886,-2221.085509,-6127.132440,8195.039638
1205.150182,-536.124088,-4518.760174,9573.644437
1205.150478,-1148.837332,-4901.705952,9956.590215
1205.150774,-2910.387909,-4212.403552,9420.466126
1205.151070,-3216.744531,-536.124088,12713.799813
1205.151366,-2604.031287,2297.674665,12101.086569
1205.151662,-3216.744531,3369.922842,10262.946837
1205.151958,-536.124088,6510.078217,10262.946837
1205.152195,-382.945777,3063.566220,9956.590215
1205.152501,919.069866,1225.426488,11028.838392
1205.152807,5208.062574,1991.318043,11028.838392
1205.153113,2144.496354,459.534933,6969.613150
1205.153419,2986.977064,-229.767466,9573.644437
1205.153725,2297.674665,-689.302399,11718.140791
1205.154031,153.178311,306.356622,10799.070925
1205.154337,-1148.837332,-76.589155,12330.854035
1205.154636,-3676.279464,1838.139732,10339.535992
1205.154936,-382.945777,3369.922842,11182.016703
1205.155237,-1148.837332,-229.767466,12713.799813
1205.155537,-382.945777,-842.480710,11488.373325
1205.155837,765.891555,-229.767466,11182.016703
1205.156137,2986.977064,-842.480710,8041.861327
1205.156437,1531.783110,-2067.907198,7735.504705
1205.156737,-0.000000,-3140.155375,10645.892614
1205.157027,-842.480710,-4059.225241,10722.481770
1205.157330,-2067.907198,-2680.620442,9803.411904
1205.157632,-2374.263820,-2374.263820,9956.590215
1205.157935,-2450.852976,-4212.403552,9650.233593
1205.158237,-5284.651729,-5973.954129,12713.799813
1205.158540,-4595.349330,-8577.985416,15317.831100
1205.158842,-0.000000,-3906.046930,11488.373325
1205.159145,3752.868619,-0.000000,8195.039638
1205.159453,8501.396260,612.713244,7429.148083
1205.159753,5208.062574,3063.566220,6356.899906
1205.160053,2527.442131,3523.101153,8731.163727
1205.160352,-3829.457775,-689.302399,11182.016703
1205.160652,-7122.791461,-2986.977064,12407.443191
1205.160952,-4748.527641,-995.659021,13249.923901
1205.161252,-4978.295107,-1761.550576,12177.675724
1205.161552,-3982.636086,-2527.442131,12484.032346
1205.161835,1531.783110,-1914.728887,12713.799813
1205.162138,3293.333686,-536.124088,8960.931193
1205.162441,6739.845684,2450.852976,9803.411904
1205.162744,5667.597507,919.069866,10416.125148
1205.163047,3906.046930,1072.248177,6356.899906
1205.163349,4518.760174,3063.566220,7429.148083
1205.163652,306.356622,-1302.015643,9267.287815
1205.163955,-3829.457775,-2527.442131,11028.838392
1205.164237,-3369.922842,-2374.263820,12713.799813
1205.164539,-4595.349330,-1914.728887,11488.373325
1205.164842,-3829.457775,-1914.728887,12637.210657
1205.165145,-2450.852976,-689.302399,15241.241944
1205.165447,-842.480710,3063.566220,10875.660081
1205.165750,612.713244,3676.279464,10109.768526
1205.166053,-76.589155,3829.457775,9267.287815
1205.166355,-76.589155,3523.101153,9190.698660
1205.166610,-76.589155,-536.124088,9420.466126
1205.166911,612.713244,-536.124088,9497.055282
1205.167212,459.534933,-536.124088,10952.249236
1205.167513,-76.589155,-1761.550576,11182.016703
1205.167813,1378.604799,-0.000000,9803.411904
1205.168114,-536.124088,1225.426488,10339.535992
1205.168415,-842.480710,-2221.085509,13862.637145
1205.168716,-1761.550576,-2221.085509,11641.551636
1205.169029,1684.961421,-536.124088,9956.590215
1205.169327,1838.139732,-1914.728887,7812.093861
1205.169625,-1302.015643,-1761.550576,6663.256528
1205.169923,-995.659021,-5208.062574,11105.427547
1205.170221,-1302.015643,-4901.705952,8271.628794
1205.170518,-1761.550576,-3752.868619,9956.590215
1205.170816,-4442.171019,-6280.310751,14168.993767
1205.171114,-2067.907198,-4825.116796,11335.195014
1205.171421,919.069866,-1455.193954,11641.551636
1205.171721,1838.139732,-3446.511997,9803.411904
1205.172020,-536.124088,-3446.511997,10109.768526
1205.172320,2986.977064,-1761.550576,11488.373325
1205.172620,4518.760174,765.891555,9343.876971
1205.172919,4059.225241,-0.000000,7429.148083
1205.173219,-995.659021,-1148.837332,11641.551636
1205.173519,-2221.085509,-842.480710,10033.179370
1205.173815,1225.426488,3523.101153,8654.574571
1205.174115,-1302.015643,1378.604799,10875.660081
1205.174414,-4748.527641,459.534933,12484.032346
1205.174714,-76.589155,3063.566220,12101.086569
1205.175013,1991.318043,4978.295107,11335.195014
1205.175313,1378.604799,2910.387909,10875.660081
1205.175613,-3982.636086,153.178311,14934.885322
1205.175912,-3216.744531,3369.922842,10722.481770
1205.176240,-76.589155,4442.171019,7275.969772
1205.176538,-4135.814397,765.891555,9573.644437
1205.176837,-5591.008351,-689.302399,9880.001059
1205.177136,-3216.744531,1684.961421,9803.411904
1205.177435,1072.248177,-1761.550576,8118.450483
1205.177734,306.356622,-4825.116796,10569.303459
1205.178033,2527.442131,-6893.023995,12943.567279
1205.178331,5820.775818,-4212.403552,10109.768526
1205.178619,7046.202306,-2374.263820,9420.466126
1205.178920,3293.333686,-2986.977064,11335.195014
1205.179221,1072.248177,-229.767466,9343.876971
1205.179522,1072.248177,2450.852976,7122.791461
1205.179823,-2067.907198,1684.961421,9803.411904
1205.180123,-9037.520349,-995.659021,12101.086569
1205.180424,-9573.644437,-229.767466,13862.637145
1205.180725,-3216.744531,-1761.550576,10799.070925
1205.181034,306.356622,-536.124088,10109.768526
1205.181330,1378.604799,-3446.511997,13862.637145
1205.181626,4748.527641,-2067.907198,9803.411904
1205.181922,8041.861327,1225.426488,8195.039638
1205.182218,5973.954129,-2833.798753,10492.714303
1205.182514,-536.124088,-4365.581863,9420.466126
1205.182810,919.069866,-2067.907198,9956.590215
1205.183107,1378.604799,-1302.015643,7046.202306
1205.183414,-4825.116796,-5208.062574,9650.233593
1205.183713,-8118.450483,-7352.558928,14628.528700
1205.184011,-4595.349330,-3906.046930,10569.303459
1205.184310,153.178311,-995.659021,8501.396260
1205.184609,-1608.372265,-2833.798753,10799.070925
1205.184908,-6203.721595,-5514.419196,13556.280523
1205.185207,459.534933,-229.767466,12101.086569
1205.185506,4901.705952,765.891555,7888.683016
1205.185822,2986.977064,612.713244,8195.039638
1205.186124,765.891555,-382.945777,11028.838392
1205.186426,2144.496354,153.178311,9037.520349
1205.186727,4212.403552,3829.457775,7735.504705
1205.187029,-3216.744531,-995.659021,12560.621502
1205.187331,-6969.613150,-1455.193954,13709.458834
1205.187633,-2067.907198,3369.922842,10416.125148
1205.187935,2144.496354,1531.783110,10109.768526
1205.188249,-689.302399,-382.945777,12330.854035
1205.188545,2374.263820,-0.000000,13403.102212
1205.188842,8654.574571,3369.922842,8960.931193
1205.189138,8960.931193,5591.008351,5437.830040
1205.189434,3599.690308,2910.387909,10109.768526
1205.189730,-3829.457775,919.069866,10262.946837
1205.190027,-3982.636086,3216.744531,9190.698660
1205.190323,-6969.613150,2297.674665,11641.551636
1205.190611,-10186.357681,-3293.333686,10875.660081
1205.190911,-7505.737239,-3446.511997,13020.156435
1205.191211,459.534933,-3293.333686,11794.729947
1205.191511,4671.938485,-3752.868619,7505.737239
1205.191811,6433.489062,-5054.884263,12101.086569
1205.192111,6893.023995,-2833.798753,9114.109504
1205.192411,6739.845684,-1148.837332,8041.861327
1205.192710,1225.426488,-2527.442131,10339.535992
1205.193010,-6050.543284,-4671.938485,8960.931193
1205.193309,-6510.078217,-1302.015643,10339.535992
1205.193607,-3829.457775,-1302.015643,9726.822748
1205.193906,-4442.171019,-2833.798753,9803.411904
1205.194205,-5744.186662,-5208.062574,15394.420255
1205.194504,-3369.922842,-3599.690308,13862.637145
1205.194802,2986.977064,-1148.837332,9726.822748
1205.195101,4365.581863,-842.480710,10033.179370
1205.195408,4518.760174,-995.659021,9497.055282
1205.195711,5667.597507,1991.318043,8654.574571
1205.196015,9114.109504,3523.101153,8807.752882
1205.196318,3599.690308,1072.248177,8348.217949
1205.196621,-229.767466,153.178311,11182.016703
1205.196925,-1761.550576,-1608.372265,10569.303459
1205.197228,-4595.349330,-2527.442131,10569.303459
1205.197532,-6510.078217,-4825.116796,12407.443191
1205.197852,-7658.915550,-4518.760174,12866.978124
1205.198149,-3369.922842,-76.589155,11335.195014
1205.198446,1378.604799,-689.302399,11028.838392
1205.198743,1991.318043,-842.480710,9573.644437
1205.199040,4212.403552,765.891555,9803.411904
1205.199337,5820.775818,1072.248177,7505.737239
1205.199634,4365.581863,3216.744531,7429.148083
1205.199931,1531.783110,3523.101153,9267.287815
1205.200204,-2450.852976,1991.318043,11028.838392
1205.200504,-5131.473418,-76.589155,11335.195014
1205.200804,-3676.279464,-689.302399,11488.373325
1205.201104,-5897.364973,-3906.046930,13556.280523
1205.201404,-2757.209598,-2986.977064,10186.357681
1205.201704,-0.000000,-1455.193954,10722.481770
1205.202004,-536.124088,-76.589155,10262.946837
1205.202305,1072.248177,-229.767466,9497.055282
1205.202622,919.069866,1378.604799,12254.264880
1205.202920,2144.496354,3523.101153,8041.861327
1205.203219,1838.139732,4288.992708,9497.055282
1205.203518,-382.945777,1838.139732,11488.373325
1205.203816,-689.302399,1684.961421,9956.590215
1205.204115,612.713244,-1455.193954,11718.140791
1205.204414,-229.767466,-5973.954129,12254.264880
1205.204712,3599.690308,-4518.760174,9573.644437
1205.205012,4518.760174,-6433.489062,11335.195014
1205.205309,2680.620442,-5514.419196,8577.985416
1205.205607,4059.225241,-4901.705952,7122.791461
1205.205904,-229.767466,-3293.333686,10339.535992
1205.206202,-0.000000,-3599.690308,8960.931193
1205.206499,-7122.791461,-2986.977064,12713.799813
1205.206796,-3676.279464,-1455.193954,12560.621502
1205.207094,-2450.852976,919.069866,10262.946837
1205.207434,-995.659021,306.356622,11641.551636
1205.207731,-382.945777,306.356622,10492.714303
1205.208028,-2374.263820,2604.031287,9880.001059
1205.208325,765.891555,306.356622,9803.411904
1205.208622,-2910.387909,-2221.085509,9650.233593
1205.208919,-2374.263820,-2221.085509,11794.729947
1205.209216,-1761.550576,-842.480710,10875.660081
1205.209513,459.534933,1378.604799,8041.861327
1205.209793,-229.767466,2297.674665,11182.016703
1205.210098,-995.659021,612.713244,11488.373325
1205.210403,-229.767466,2297.674665,10262.946837
1205.210708,1378.604799,919.069866,10799.070925
1205.211013,-229.767466,-1914.728887,11947.908258
1205.211319,2144.496354,-3599.690308,12713.799813
1205.211624,8041.861327,-0.000000,8577.985416
1205.211929,9956.590215,2757.209598,6356.899906
1205.212167,9420.466126,2604.031287,8424.807105
1205.212475,4365.581863,-0.000000,9650.233593
1205.212782,2833.798753,2297.674665,9267.287815
1205.213090,-5437.830040,-1302.015643,12024.497413
1205.213397,-9880.001059,-4212.403552,13939.226301
1205.213705,-9726.822748,-4212.403552,12560.621502
1205.214012,-7199.380617,-2833.798753,13709.458834
1205.214320,-5131.473418,-2067.907198,11641.551636
1205.214592,612.713244,-229.767466,10109.768526
1205.214893,2374.263820,459.534933,10186.357681
1205.215194,6280.310751,2450.852976,7735.504705
1205.215495,2144.496354,1684.961421,9573.644437
1205.215796,612.713244,765.891555,9956.590215
1205.216097,-536.124088,612.713244,9803.411904
1205.216398,-1302.015643,153.178311,10262.946837
1205.216699,-3829.457775,-536.124088,11028.838392
1205.216998,-2604.031287,306.356622,10952.249236
1205.217298,-1761.550576,-2221.085509,12637.210657
1205.217597,-995.659021,-4059.225241,11641.551636
1205.217896,3599.690308,-2986.977064,8654.574571
1205.218195,1531.783110,-5514.419196,9650.233593
1205.218494,1225.426488,-7352.558928,10875.660081
1205.218793,1991.318043,-7199.380617,10492.714303
1205.219092,1991.318043,-3599.690308,8041.861327
1205.219446,3293.333686,-1914.728887,7352.558928
1205.219739,-842.480710,-3293.333686,10875.660081
1205.220032,-689.302399,-536.124088,11794.729947
1205.220325,-842.480710,2297.674665,11335.195014
1205.220618,306.356622,459.534933,11488.373325
1205.220911,-382.945777,1531.783110,11641.551636
1205.221204,3293.333686,3369.922842,9343.876971
1205.221497,765.891555,3676.279464,9573.644437
1205.221804,-995.659021,2757.209598,9420.466126
1205.222102,-1761.550576,-689.302399,11182.016703
1205.222399,-2910.387909,306.356622,12713.799813
1205.222696,-842.480710,919.069866,11105.427547
1205.222993,-1914.728887,612.713244,11335.195014
1205.223290,-995.659021,2757.209598,9420.466126
1205.223588,1378.604799,1838.139732,10569.303459
1205.223885,-76.589155,1531.783110,12943.567279
1205.224181,-76.589155,3216.744531,10952.249236
1205.224482,306.356622,1838.139732,10569.303459
1205.224784,306.356622,-229.767466,10416.125148
1205.225085,-689.302399,459.534933,9573.644437
1205.225386,-995.659021,-1148.837332,9956.590215
1205.225687,-2757.209598,-2680.620442,8807.752882
1205.225988,-2757.209598,-2680.620442,11182.016703
1205.226289,-2757.209598,-4671.938485,11641.551636
1205.226584,-2221.085509,-3293.333686,10262.946837
1205.226884,1531.783110,-1914.728887,11641.551636
1205.227185,4518.760174,-2680.620442,10492.714303
1205.227486,4212.403552,-3140.155375,9420.466126
1205.227787,4901.705952,-1455.193954,9420.466126
1205.228088,2986.977064,-842.480710,9037.520349
1205.228389,2986.977064,-2374.263820,9190.698660
1205.228690,-1302.015643,-3140.155375,12101.086569
1205.228978,-1455.193954,-1608.372265,11335.195014
1205.229278,-689.302399,459.534933,10416.125148
1205.229579,-1455.193954,306.356622,11028.838392
1205.229880,-2910.387909,459.534933,11794.729947
1205.230181,-2450.852976,-229.767466,12254.264880
1205.230482,-689.302399,306.356622,10722.481770
1205.230782,306.356622,-842.480710,9956.590215
1205.231083,-842.480710,-4825.116796,12254.264880
1205.231415,765.891555,-4365.581863,9114.109504
1205.231710,3446.511997,-842.480710,7965.272172
1205.232004,2680.620442,-3599.690308,9650.233593
1205.232299,-1148.837332,-2221.085509,10262.946837
1205.232593,-2374.263820,153.178311,10799.070925
1205.232888,-5591.008351,-689.302399,10722.481770
1205.233182,-3676.279464,-0.000000,10722.481770
1205.233477,-3063.566220,306.356622,11641.551636
1205.233784,153.178311,459.534933,12101.086569
1205.234083,1684.961421,1684.961421,10416.125148
1205.234383,3446.511997,1991.318043,10569.303459
1205.234683,2144.496354,765.891555,9803.411904
1205.234983,765.891555,919.069866,10033.179370
1205.235282,3752.868619,3369.922842,9420.466126
1205.235582,1378.604799,3982.636086,6816.434839
1205.235882,-1455.193954,3982.636086,10569.303459
1205.236178,-2757.209598,2604.031287,13709.458834
1205.236481,-1302.015643,4135.814397,11258.605858
1205.236784,306.356622,2757.209598,12407.443191
1205.237087,-995.659021,-536.124088,11947.908258
1205.237390,-536.124088,-76.589155,11794.729947
1205.237693,2680.620442,153.178311,10262.946837
1205.237996,1378.604799,765.891555,7812.093861
1205.238299,1225.426488,1225.426488,9956.590215
1205.238594,-1455.193954,-2067.907198,10416.125148
1205.238890,-2450.852976,-3599.690308,10109.768526
1205.239187,-2757.209598,-2221.085509,11488.373325
1205.239484,-3216.744531,-5667.597507,10262.946837
1205.239781,-2604.031287,-5973.954129,10722.481770
1205.240077,459.534933,-4825.116796,12713.799813
1205.240374,5514.419196,-3140.155375,9267.287815
1205.240671,6127.132440,-382.945777,9650.233593
1205.240983,6739.845684,-536.124088,9573.644437
1205.241282,3446.511997,1684.961421,8577.985416
1205.241581,-0.000000,1225.426488,9267.287815
1205.241880,-4748.527641,919.069866,9650.233593
1205.242179,-10645.892614,-2680.620442,10875.660081
1205.242478,-10952.249236,-5054.884263,13249.923901
1205.242777,-7965.272172,-6893.023995,11641.551636
1205.243076,-3982.636086,-6127.132440,11335.195014
1205.243364,612.713244,-7199.380617,12254.264880
1205.243666,3140.155375,-5973.954129,12254.264880
1205.243967,9267.287815,919.069866,9803.411904
1205.244268,13096.745590,5284.651729,6280.310751
1205.244570,9114.109504,3829.457775,6203.721595
1205.244871,2833.798753,1684.961421,9420.466126
1205.245173,-2604.031287,459.534933,10262.946837
1205.245474,-6203.721595,153.178311,10416.125148
1205.245781,-6203.721595,-1914.728887,10875.660081
1205.246082,-7122.791461,-3752.868619,13786.047990
1205.246383,-5131.473418,-2833.798753,13709.458834
1205.246683,2833.798753,153.178311,11718.140791
1205.246984,5361.240885,2910.387909,9573.644437
1205.247285,5514.419196,3369.922842,9573.644437
1205.247586,2986.977064,2910.387909,12713.799813
1205.247886,3752.868619,4978.295107,6969.613150
1205.248203,1991.318043,6356.899906,8195.039638
1205.248496,-3982.636086,1991.318043,11258.605858
1205.248790,-7658.915550,2910.387909,12101.086569
1205.249084,-6969.613150,1225.426488,12254.264880
1205.249377,-5591.008351,1225.426488,9803.411904
1205.249671,-7505.737239,-2680.620442,12254.264880
1205.249965,-4135.814397,-2986.977064,14705.117856
1205.250259,1991.318043,-2374.263820,10109.768526
1205.250577,7735.504705,612.713244,8271.628794
1205.250875,8807.752882,-2680.620442,8195.039638
1205.251174,5667.597507,-4671.938485,8348.217949
1205.251472,7275.969772,-2067.907198,8654.574571
1205.251770,4212.403552,-2680.620442,6739.845684
1205.252068,-4978.295107,-3752.868619,9726.822748
1205.252366,-9037.520349,-6127.132440,13786.047990
1205.252665,-7505.737239,-2986.977064,11641.551636
1205.252978,-5131.473418,-1608.372265,11028.838392
1205.253277,-3063.566220,-1761.550576,12637.210657
1205.253576,-229.767466,-1302.015643,12790.388968
1205.253876,5514.419196,1225.426488,10416.125148
1205.254175,7582.326394,2144.496354,9037.520349
1205.254474,6586.667373,1991.318043,7888.683016
1205.254774,3906.046930,765.891555,8424.807105
1205.255073,1225.426488,153.178311,10492.714303
1205.255373,-1302.015643,-76.589155,8960.931193
1205.255670,-4748.527641,-2680.620442,10875.660081
1205.255968,-8424.807105,-5973.954129,12484.032346
1205.256265,-5591.008351,-6127.132440,12866.978124
1205.256562,-1455.193954,-4365.581863,13709.458834
1205.256860,-76.589155,-1761.550576,10569.303459
1205.257157,4212.403552,612.713244,10416.125148
1205.257454,6586.667373,3216.744531,8348.217949
1205.257762,6280.310751,5131.473418,7582.326394
1205.258063,1072.248177,2450.852976,11411.784169
1205.258364,-2374.263820,1378.604799,9726.822748
1205.258664,-5591.008351,612.713244,9420.466126
1205.258965,-6510.078217,-689.302399,11794.729947
1205.259266,-9037.520349,-1148.837332,12943.567279
1205.259567,-3829.457775,-382.945777,12330.854035
1205.259868,-1914.728887,-995.659021,12713.799813
1205.260182,2297.674665,-0.000000,11947.908258
1205.260482,5973.954129,1991.318043,10416.125148
1205.260781,8041.861327,4595.349330,7352.558928
1205.261081,6127.132440,5284.651729,7965.272172
1205.261380,4059.225241,3369.922842,9420.466126
1205.261680,306.356622,1838.139732,9343.876971
1205.261979,-2757.209598,306.356622,10952.249236
1205.262279,-3829.457775,-1148.837332,11028.838392
1205.262552,-6969.613150,-5973.954129,11335.195014
1205.262854,-2450.852976,-7046.202306,12560.621502
1205.263157,-1455.193954,-6433.489062,12713.799813
1205.263460,2833.798753,-4825.116796,9497.055282
1205.263762,4671.938485,-3906.046930,10416.125148
1205.264065,4518.760174,-2833.798753,9573.644437
1205.264367,5514.419196,-229.767466,7658.915550
1205.264670,2297.674665,-382.945777,8577.985416
1205.264987,-1302.015643,919.069866,8501.396260
1205.265282,-3982.636086,-842.480710,10416.125148
1205.265576,-7505.737239,-1761.550576,12101.086569
1205.265871,-7658.915550,-1302.015643,11335.195014
1205.266165,-5897.364973,-3906.046930,14168.993767
1205.266459,-2910.387909,-6127.132440,12407.443191
1205.266754,3293.333686,-3752.868619,10492.714303
1205.267048,8348.217949,-0.000000,9650.233593
1205.267348,6893.023995,1225.426488,8577.985416
1205.267648,4365.581863,1072.248177,9497.055282
1205.267948,1531.783110,612.713244,9420.466126
1205.268248,-3523.101153,153.178311,10109.768526
1205.268548,-3982.636086,1072.248177,10109.768526
1205.268848,-4288.992708,-842.480710,9956.590215
1205.269148,-4978.295107,-1148.837332,11182.016703
1205.269449,-2067.907198,-2374.263820,13096.745590
1205.269779,-1761.550576,-1761.550576,12484.032346
1205.270074,2833.798753,-536.124088,9803.411904
1205.270370,3140.155375,-1455.193954,12254.264880
1205.270666,1378.604799,612.713244,10109.768526
1205.270961,5667.597507,4748.527641,7429.148083
1205.271257,5054.884263,4288.992708,9420.466126
1205.271552,1991.318043,2450.852976,8884.342038
1205.271848,1072.248177,1225.426488,10416.125148
1205.272155,-995.659021,2144.496354,9803.411904
1205.272456,-1302.015643,1991.318043,9497.055282
1205.272758,-2450.852976,-995.659021,13020.156435
1205.273059,-6663.256528,-4059.225241,12713.799813
1205.273360,-4288.992708,-995.659021,12484.032346
1205.273661,-2374.263820,-689.302399,11641.551636
1205.273963,-3063.566220,153.178311,9650.233593
1205.274264,-0.000000,1378.604799,11335.195014
1205.274547,3293.333686,3676.279464,8654.574571
1205.274852,6127.132440,3523.101153,6663.256528
1205.275157,-76.589155,-1761.550576,11028.838392
1205.275462,-2757.209598,-4518.760174,10722.481770
1205.275766,-3063.566220,-6127.132440,10492.714303
1205.276071,-2450.852976,-8577.985416,12024.497413
1205.276376,-3676.279464,-10492.714303,10799.070925
1205.276680,-4978.295107,-10952.249236,14322.172078
1205.276918,2527.442131,-6127.132440,11794.729947
1205.277227,6586.667373,-1608.372265,7582.326394
1205.277535,8041.861327,3216.744531,9573.644437
1205.277844,8348.217949,2144.496354,9114.109504
1205.278153,4518.760174,6203.721595,9114.109504
1205.278462,5054.884263,7429.148083,7505.737239
1205.278771,-4135.814397,2144.496354,9114.109504
1205.279080,-11258.605858,-3140.155375,15547.598566
1205.279358,-9726.822748,-4212.403552,14475.350389
1205.279655,-8577.985416,-6586.667373,11258.605858
1205.279953,-5284.651729,-5514.419196,12790.388968
1205.280250,1991.318043,-4518.760174,11335.195014
1205.280548,7122.791461,612.713244,7812.093861
1205.280845,10875.660081,5437.830040,7199.380617
1205.281143,8195.039638,4825.116796,7965.272172
1205.281440,2680.620442,3063.566220,11028.838392
1205.281749,4365.581863,5284.651729,7352.558928
1205.282048,-3063.566220,1378.604799,7429.148083
1205.282346,-7812.093861,-2680.620442,12407.443191
1205.282645,-9497.055282,-7658.915550,15394.420255
1205.282943,-6356.899906,-5361.240885,13709.458834
1205.283242,-689.302399,-3446.511997,11718.140791
1205.283540,-0.000000,-1302.015643,11718.140791
1205.283839,4365.581863,2757.209598,8654.574571
1205.284146,5973.954129,7888.683016,8654.574571
1205.284446,3140.155375,6969.613150,9420.466126
1205.284747,459.534933,5437.830040,8654.574571
1205.285048,-689.302399,3369.922842,10186.357681
1205.285348,-1914.728887,-76.589155,10109.768526
1205.285649,-3829.457775,-3293.333686,11335.195014
1205.285949,-2910.387909,-6739.845684,13403.102212
1205.286250,-1455.193954,-7965.272172,12101.086569
1205.286546,2374.263820,-6127.132440,10569.303459
1205.286846,3599.690308,-5667.597507,10262.946837
1205.287145,4901.705952,-1914.728887,7965.272172
1205.287445,7582.326394,-229.767466,9037.520349
1205.287744,4365.581863,-689.302399,8654.574571
1205.288044,765.891555,-229.767466,9803.411904
1205.288344,-536.124088,-1455.193954,11641.551636
1205.288643,-2450.852976,-689.302399,9650.233593
1205.288943,-3982.636086,-3446.511997,11641.551636
1205.289242,-5591.008351,-5208.062574,13096.745590
1205.289540,-7658.915550,-4825.116796,12866.978124
1205.289839,-0.000000,-1302.015643,12177.675724
1205.290138,765.891555,-229.767466,8348.217949
1205.290437,-842.480710,919.069866,9956.590215
1205.290736,2297.674665,2297.674665,11411.784169
1205.291034,306.356622,4135.814397,8577.985416
1205.291346,1991.318043,3523.101153,9956.590215
1205.291647,-3063.566220,-689.302399,11335.195014
1205.291948,-2757.209598,-1761.550576,10875.660081
1205.292248,-842.480710,-3140.155375,11488.373325
1205.292549,1531.783110,-4825.116796,10722.481770
1205.292850,2680.620442,-5208.062574,10875.660081
1205.293151,6280.310751,-4059.225241,9880.001059
1205.293451,5820.775818,-689.302399,8731.163727
1205.293760,4671.938485,1838.139732,9420.466126
1205.294059,1684.961421,4288.992708,10262.946837
1205.294357,-1455.193954,4748.527641,10033.179370
1205.294655,-2604.031287,5897.364973,11105.427547
1205.294953,-5437.830040,3063.566220,11182.016703
1205.295251,-7352.558928,1838.139732,12713.799813
1205.295549,-5284.651729,1378.604799,12713.799813
1205.295848,-4748.527641,-995.659021,12024.497413
1205.296155,-3369.922842,-1455.193954,11182.016703
1205.296453,1225.426488,-1455.193954,12177.675724
1205.296751,4365.581863,919.069866,7735.504705
1205.297049,6586.667373,3216.744531,7275.969772
1205.297347,5820.775818,-229.767466,7888.683016
1205.297645,3293.333686,153.178311,9573.644437
1205.297944,2986.977064,-842.480710,11182.016703
1205.298242,-842.480710,-5361.240885,9956.590215
1205.298558,-4135.814397,-4671.938485,11335.195014
1205.298856,-995.659021,-5820.775818,12330.854035
1205.299155,-2604.031287,-7046.202306,10569.303459
1205.299453,-842.480710,-3446.511997,9420.466126
1205.299751,-229.767466,-6127.132440,10875.660081
1205.300050,-4135.814397,-5667.597507,11411.784169
1205.300348,-536.124088,-2833.798753,10416.125148
1205.300647,1531.783110,2144.496354,10109.768526
1205.300961,-3676.279464,459.534933,10109.768526
1205.301260,-1148.837332,765.891555,11564.962480
1205.301558,-1455.193954,1531.783110,10262.946837
1205.301857,2297.674665,3829.457775,8807.752882
1205.302156,612.713244,-382.945777,12713.799813
1205.302455,-3676.279464,-3140.155375,12637.210657
1205.302753,3906.046930,-382.945777,9956.590215
1205.303052,2833.798753,-3140.155375,9420.466126
1205.303340,765.891555,-5820.775818,9114.109504
1205.303640,1378.604799,-3599.690308,12254.264880
1205.303940,1225.426488,-382.945777,9956.590215
1205.304240,2144.496354,919.069866,9573.644437
1205.304540,1072.248177,2144.496354,11028.838392
1205.304840,919.069866,2757.209598,8884.342038
1205.305140,-2067.907198,2450.852976,11335.195014
1205.305440,-2221.085509,1838.139732,11641.551636
1205.305739,-3063.566220,2450.852976,11182.016703
1205.306039,-2604.031287,2910.387909,11488.373325
1205.306338,-1455.193954,306.356622,10416.125148
1205.306637,-3523.101153,1072.248177,11105.427547
1205.306936,612.713244,3216.744531,10109.768526
1205.307236,-1302.015643,2450.852976,9956.590215
1205.307535,-2067.907198,919.069866,10722.481770
1205.307834,-842.480710,-76.589155,12101.086569
1205.308141,-2450.852976,-1914.728887,10645.892614
1205.308440,919.069866,-1608.372265,9956.590215
1205.308740,2144.496354,-3140.155375,10339.535992
1205.309039,919.069866,-4365.581863,9803.411904
1205.309338,3906.046930,-2833.798753,10416.125148
1205.309637,3293.333686,-2680.620442,9803.411904
1205.309937,2833.798753,-2374.263820,8041.861327
1205.310236,153.178311,-1302.015643,9956.590215
1205.310539,-536.124088,-1302.015643,9803.411904
1205.310840,-1455.193954,765.891555,8960.931193
1205.311140,-382.945777,459.534933,10952.249236
1205.311440,-3523.101153,-1761.550576,9650.233593
1205.311741,-4288.992708,-3293.333686,13556.280523
1205.312041,153.178311,-2833.798753,13556.280523
1205.312341,-689.302399,-1761.550576,9650.233593
1205.312641,2144.496354,-1302.015643,11641.551636
1205.312960,2833.798753,-1761.550576,9190.698660
1205.313257,3293.333686,-1302.015643,8195.039638
1205.313555,1991.318043,-1608.372265,10799.070925
1205.313852,-3523.101153,-1148.837332,9497.055282
1205.314150,-2757.209598,306.356622,10875.660081
1205.314447,-4135.814397,-0.000000,12407.443191
1205.314744,-3982.636086,-1761.550576,11411.784169
1205.315042,-1608.372265,-1608.372265,13632.869679
1205.315355,1072.248177,-1302.015643,12560.621502
1205.315650,4901.705952,-536.124088,9573.644437
1205.315945,5208.062574,-382.945777,8654.574571
1205.316241,5820.775818,306.356622,7275.969772
1205.316536,2527.442131,306.356622,9343.876971
1205.316831,-2450.852976,-1914.728887,10262.946837
1205.317126,-5591.008351,612.713244,10416.125148
1205.317422,-7965.272172,2757.209598,12560.621502
1205.317722,-4442.171019,2450.852976,12790.388968
1205.318022,-4442.171019,1838.139732,12024.497413
1205.318323,459.534933,1531.783110,11794.729947
1205.318624,3446.511997,3369.922842,11028.838392
1205.318925,3599.690308,3676.279464,9573.644437
1205.319226,4748.527641,919.069866,9573.644437
1205.319526,1991.318043,-1455.193954,9420.466126
1205.319827,459.534933,-2374.263820,8960.931193
1205.320134,1531.783110,-3293.333686,7965.272172
1205.320431,-4595.349330,-4212.403552,9420.466126
1205.320728,-2374.263820,-4212.403552,10799.070925
1205.321025,-689.302399,-5054.884263,11182.016703
1205.321322,1684.961421,-2221.085509,10645.892614
1205.321619,3140.155375,-4212.403552,10186.357681
1205.321916,2833.798753,-2680.620442,11488.373325
1205.322213,3906.046930,306.356622,9343.876971
1205.322521,4212.403552,-382.945777,9420.466126
1205.322820,-2910.387909,-536.124088,10186.357681
1205.323119,-4748.527641,306.356622,11105.427547
1205.323417,-2757.209598,-76.589155,10186.357681
1205.323716,-6663.256528,-1608.372265,10416.125148
1205.324015,-6510.078217,-2527.442131,12866.978124
1205.324314,-6510.078217,-4825.116796,12560.621502
1205.324613,-2757.209598,-76.589155,10416.125148
1205.324930,-382.945777,-1608.372265,12177.675724
1205.325229,-2067.907198,-5054.884263,13249.923901
1205.325528,2833.798753,-1608.372265,9650.233593
1205.325827,11028.838392,1684.961421,7735.504705
1205.326127,8960.931193,765.891555,6356.899906
1205.326426,5667.597507,306.356622,9956.590215
1205.326725,5820.775818,765.891555,9803.411904
1205.327024,2680.620442,306.356622,8807.752882
1205.327342,-3676.279464,-842.480710,11335.195014
1205.327639,-8884.342038,-2221.085509,12713.799813
1205.327937,-10339.535992,-689.302399,12790.388968
1205.328235,-6203.721595,-536.124088,13096.745590
1205.328533,-2374.263820,153.178311,11718.140791
1205.328830,-76.589155,2297.674665,11182.016703
1205.329128,8195.039638,4135.814397,8807.752882
1205.329426,7122.791461,4748.527641,6586.667373
1205.329726,6280.310751,4595.349330,9114.109504
1205.330026,1684.961421,612.713244,9343.876971
1205.330326,-3982.636086,-1608.372265,9803.411904
1205.330626,-4288.992708,-2986.977064,11411.784169
1205.330926,-7122.791461,-6280.310751,10416.125148
1205.331226,-5284.651729,-6127.132440,11641.551636
1205.331526,-1455.193954,-4901.705952,12101.086569
1205.331826,1838.139732,-4671.938485,10875.660081
1205.332117,3446.511997,-1608.372265,10339.535992
1205.332415,6433.489062,306.356622,9267.287815
1205.332714,3140.155375,-0.000000,8118.450483
1205.333013,1991.318043,765.891555,9803.411904
1205.333312,-382.945777,-842.480710,9114.109504
1205.333610,-5284.651729,-1608.372265,10416.125148
1205.333909,-7122.791461,-2833.798753,13403.102212
1205.334208,-7122.791461,-3906.046930,12330.854035
1205.334515,-842.480710,-0.000000,11641.551636
1205.334818,2833.798753,612.713244,11718.140791
1205.335121,2833.798753,-1608.372265,11028.838392
1205.335424,2680.620442,-536.124088,12177.675724
1205.335727,5973.954129,1531.783110,9726.822748
1205.336030,4748.527641,2450.852976,4748.527641
1205.336333,459.534933,-842.480710,9726.822748
1205.336636,-5591.008351,-5514.419196,11564.962480
1205.336919,-4748.527641,-3140.155375,11641.551636
1205.337218,-2067.907198,-382.945777,10722.481770
1205.337517,-1608.372265,-2833.798753,9650.233593
1205.337816,-2221.085509,-2833.798753,13173.334746
1205.338115,2833.798753,-536.124088,12866.978124
1205.338414,6280.310751,2450.852976,9267.287815
1205.338713,6586.667373,4135.814397,9956.590215
1205.339012,2680.620442,3523.101153,9114.109504
1205.339307,-995.659021,3523.101153,8807.752882
1205.339608,-2374.263820,3982.636086,10416.125148
1205.339908,-3369.922842,3676.279464,8501.396260
1205.340209,-6816.434839,1072.248177,11105.427547
1205.340510,-6203.721595,-689.302399,11947.908258
1205.340811,-5744.186662,-2986.977064,11564.962480
1205.341112,-3982.636086,-1761.550576,12560.621502
1205.341413,-229.767466,-3906.046930,10569.303459
1205.341701,306.356622,-3599.690308,11028.838392
1205.342002,6280.310751,-3752.868619,10109.768526
1205.342302,7429.148083,-1761.550576,8654.574571
1205.342603,8195.039638,1991.318043,7352.558928
1205.342904,7046.202306,1684.961421,7429.148083
1205.343205,612.713244,153.178311,9956.590215
1205.343506,-1455.193954,1684.961421,10722.481770
1205.343807,-3063.566220,306.356622,9880.001059
1205.344120,-7505.737239,-2221.085509,11182.016703
1205.344419,-8271.628794,-4671.938485,14781.707011
1205.344718,-3982.636086,-5514.419196,12943.567279
1205.345017,919.069866,-1302.015643,9880.001059
1205.345315,4748.527641,-995.659021,10492.714303
1205.345614,1378.604799,-5054.884263,10722.481770
1205.345913,3293.333686,153.178311,9803.411904
1205.346211,5973.954129,3829.457775,7505.737239
1205.346518,3752.868619,3523.101153,6127.132440
1205.346818,-2374.263820,765.891555,11182.016703
1205.347118,-5131.473418,-2374.263820,13403.102212
1205.347417,-4442.171019,-2527.442131,10033.179370
1205.347717,-5897.364973,-4825.116796,12866.978124
1205.348017,-6969.613150,-8271.628794,14781.707011
1205.348316,-2757.209598,-6433.489062,13403.102212
1205.348616,5054.884263,-1455.193954,8960.931193
1205.348912,7429.148083,1684.961421,5973.954129
1205.349210,6127.132440,3982.636086,9190.698660
1205.349507,5361.240885,4748.527641,9956.590215
1205.349805,3599.690308,6356.899906,9114.109504
1205.350102,765.891555,5897.364973,9420.466126
1205.350400,-4135.814397,765.891555,9726.822748
1205.350697,-9573.644437,-2833.798753,12407.443191
1205.350994,-7352.558928,-2527.442131,15011.474478
1205.351309,-4978.295107,-2833.798753,11947.908258
1205.351607,-2374.263820,-382.945777,11488.373325
1205.351906,3599.690308,-382.945777,11411.784169
1205.352205,4748.527641,1684.961421,9037.520349
1205.352504,7046.202306,5131.473418,8960.931193
1205.352802,7275.969772,3523.101153,7122.791461
1205.353101,1378.604799,306.356622,7582.326394
1205.353400,1225.426488,-2833.798753,10109.768526
1205.353712,-2450.852976,-5514.419196,10416.125148
1205.354008,-2221.085509,-5973.954129,11182.016703
1205.354305,-2067.907198,-7352.558928,11641.551636
1205.354601,-4135.814397,-7199.380617,12943.567279
1205.354898,-3216.744531,-3293.333686,15011.474478
1205.355195,1838.139732,919.069866,8960.931193
1205.355491,2986.977064,5284.651729,7275.969772
1205.355788,3140.155375,5131.473418,8960.931193
1205.356088,765.891555,3216.744531,8195.039638
1205.356388,-2757.209598,1991.318043,10033.179370
1205.356688,-382.945777,-76.589155,10033.179370
1205.356988,-4442.171019,-7199.380617,10262.946837
1205.357288,-4442.171019,-6893.023995,12943.567279
1205.357588,-1455.193954,-6893.023995,12560.621502
1205.357888,-382.945777,-5361.240885,9650.233593
1205.358188,-842.480710,-3446.511997,11028.838392
1205.358495,1225.426488,-2680.620442,11028.838392
1205.358796,919.069866,-76.589155,11641.551636
1205.359098,5208.062574,4442.171019,9114.109504
1205.359399,5514.419196,4595.349330,6739.845684
1205.359701,612.713244,3829.457775,9726.822748
1205.360002,-1148.837332,2297.674665,11028.838392
1205.360304,-3369.922842,3216.744531,10722.481770
1205.360605,-2067.907198,2757.209598,11028.838392
1205.360922,-1761.550576,-0.000000,12101.086569
1205.361220,-3982.636086,-1914.728887,13249.923901
1205.361519,306.356622,-0.000000,11641.551636
1205.361817,3446.511997,1838.139732,8271.628794
1205.362115,4518.760174,2910.387909,8807.752882
1205.362414,2374.263820,919.069866,9420.466126
1205.362712,-76.589155,-1302.015643,10262.946837
1205.363011,-1455.193954,1225.426488,9573.644437
1205.363325,459.534933,2910.387909,9114.109504
1205.363620,-3829.457775,-995.659021,10262.946837
1205.363915,-3523.101153,-2221.085509,12330.854035
1205.364210,-3982.636086,-3446.511997,12713.799813
1205.364505,-1608.372265,-3752.868619,10799.070925
1205.364799,-995.659021,-3293.333686,11794.729947
1205.365094,-382.945777,-4212.403552,10339.535992
1205.365389,2680.620442,-2374.263820,9037.520349
1205.365702,1991.318043,-689.302399,9726.822748
1205.366001,2144.496354,2297.674665,9573.644437
1205.366299,-1608.372265,3216.744531,10109.768526
1205.366598,-1608.372265,3982.636086,9726.822748
1205.366896,-2450.852976,1072.248177,10262.946837
1205.367195,-76.589155,765.891555,10569.303459
1205.367493,153.178311,-4212.403552,10722.481770
1205.367791,-229.767466,-6127.132440,10722.481770
1205.368091,4901.705952,-6127.132440,11028.838392
1205.368392,2374.263820,-6739.845684,9420.466126
1205.368692,3906.046930,-4825.116796,9267.287815
1205.368993,-1761.550576,-5208.062574,12254.264880
1205.369294,-3829.457775,-995.659021,9650.233593
1205.369595,-2604.031287,3063.566220,9420.466126
1205.369895,-2450.852976,3982.636086,9956.590215
1205.370196,-2221.085509,3982.636086,9573.644437
1205.370503,-995.659021,1531.783110,12101.086569
1205.370800,-1455.193954,-689.302399,12943.567279
1205.371097,2144.496354,-2986.977064,11258.605858
1205.371394,4059.225241,-4059.225241,9420.466126
1205.371691,-1148.837332,-3293.333686,11105.427547
1205.371988,3293.333686,459.534933,9573.644437
1205.372284,3906.046930,5284.651729,8884.342038
1205.372581,-76.589155,3216.744531,10262.946837
1205.372895,-2067.907198,1225.426488,11182.016703
1205.373198,-2757.209598,1072.248177,11182.016703
1205.373501,-842.480710,-229.767466,10569.303459
1205.373804,-536.124088,-1761.550576,10492.714303
1205.374106,-4748.527641,-4825.116796,12943.567279
1205.374409,-4748.527641,-5514.419196,13096.745590
1205.374712,-0.000000,-1608.372265,11028.838392
1205.375014,2680.620442,1838.139732,8501.396260
1205.375333,6280.310751,6663.256528,8501.396260
1205.375629,4518.760174,3829.457775,8960.931193
1205.375925,919.069866,6356.899906,10262.946837
1205.376221,3752.868619,7582.326394,9880.001059
1205.376518,-1148.837332,2297.674665,7352.558928
1205.376814,-4442.171019,-2986.977064,11794.729947
1205.377110,-6510.078217,-7046.202306,14934.885322
1205.377406,-2374.263820,-6893.023995,12177.675724
1205.377723,-229.767466,-5208.062574,11028.838392
1205.378018,2986.977064,-4518.760174,8118.450483
1205.378314,765.891555,-4365.581863,10109.768526
1205.378609,3293.333686,-0.000000,9956.590215
1205.378904,5514.419196,1838.139732,6816.434839
1205.379200,1072.248177,612.713244,10722.481770
1205.379495,919.069866,612.713244,9803.411904
1205.379790,-2757.209598,-2680.620442,9956.590215
1205.380090,-382.945777,-2833.798753,10109.768526
1205.380387,-6816.434839,-9190.698660,14015.815456
1205.380685,-6203.721595,-8884.342038,12790.388968
1205.380982,-2757.209598,-2833.798753,11411.784169
1205.381280,2374.263820,-0.000000,8884.342038
1205.381577,612.713244,-1608.372265,8118.450483
1205.381874,-4135.814397,-536.124088,12713.799813
1205.382172,459.534933,153.178311,10186.357681
1205.382502,-536.124088,1225.426488,9956.590215
1205.382799,-995.659021,2604.031287,11182.016703
1205.383096,-2604.031287,-1302.015643,9267.287815
1205.383393,-995.659021,-995.659021,12560.621502
1205.383690,4059.225241,459.534933,11028.838392
1205.383987,3293.333686,-0.000000,10416.125148
1205.384284,3140.155375,919.069866,10186.357681
1205.384581,4365.581863,2910.387909,11335.195014
1205.384889,4365.581863,2604.031287,10186.357681
1205.385189,5361.240885,5131.473418,8195.039638
1205.385488,306.356622,2910.387909,8118.450483
1205.385788,-3829.457775,-995.659021,10799.070925
1205.386088,-6663.256528,-1302.015643,13326.513057
1205.386388,-5897.364973,-536.124088,11641.551636
1205.386688,-4135.814397,1531.783110,11794.729947
1205.386987,-2450.852976,-382.945777,10952.249236
1205.387271,-229.767466,-76.589155,11947.908258
1205.387574,2680.620442,3216.744531,10875.660081
1205.387876,5054.884263,2604.031287,7505.737239
1205.388179,2297.674665,1378.604799,8041.861327
1205.388482,-76.589155,-2680.620442,9497.055282
1205.388785,-2757.209598,-5667.597507,10875.660081
1205.389088,-4748.527641,-6739.845684,10875.660081
1205.389391,-2450.852976,-5973.954129,10109.768526
1205.389672,-3369.922842,-7965.272172,11028.838392
1205.389974,-1608.372265,-5054.884263,12560.621502
1205.390276,2297.674665,-2833.798753,11641.551636
1205.390578,2833.798753,-1148.837332,10339.535992
1205.390880,3752.868619,1378.604799,9573.644437
1205.391182,4212.403552,1991.318043,8041.861327
1205.391484,2297.674665,2144.496354,9343.876971
1205.391786,1991.318043,2757.209598,10033.179370
1205.392099,-382.945777,2297.674665,9114.109504
1205.392395,-3063.566220,-76.589155,10262.946837
1205.392691,-5131.473418,-3446.511997,13249.923901
1205.392987,-7122.791461,-4518.760174,13556.280523
1205.393282,-2450.852976,-1302.015643,12407.443191
1205.393578,-0.000000,-1914.728887,9956.590215
1205.393874,1072.248177,-995.659021,10722.481770
1205.394170,1225.426488,-382.945777,12407.443191
1205.394479,3446.511997,765.891555,8501.396260
1205.394777,5514.419196,2450.852976,7352.558928
1205.395075,5054.884263,4748.527641,7505.737239
1205.395373,-536.124088,306.356622,10339.535992
1205.395671,-2374.263820,1684.961421,10799.070925
1205.395969,-536.124088,1838.139732,10722.481770
1205.396267,-4135.814397,-995.659021,12254.264880
1205.396565,-4748.527641,-1148.837332,12330.854035
1205.396872,-4748.527641,-536.124088,12713.799813
1205.397172,-1302.015643,153.178311,11105.427547
1205.397472,459.534933,306.356622,11028.838392
1205.397771,3752.868619,459.534933,9420.466126
1205.398071,5208.062574,1838.139732,8195.039638
1205.398371,3752.868619,-0.000000,9037.520349
1205.398671,-1761.550576,-1761.550576,12254.264880
1205.398971,-1914.728887,-382.945777,9880.001059
1205.399267,-3369.922842,-3293.333686,10875.660081
1205.399567,-4595.349330,-2986.977064,10645.892614
1205.399866,-2757.209598,-2527.442131,12713.799813
1205.400166,-2067.907198,-1455.193954,12713.799813
1205.400465,-0.000000,1531.783110,11028.838392
1205.400765,3446.511997,2757.209598,9803.411904
1205.401064,6127.132440,1531.783110,7582.326394
1205.401364,3293.333686,2757.209598,9573.644437
1205.401659,4059.225241,1991.318043,10109.768526
1205.401959,-536.124088,2144.496354,8807.752882
1205.402259,-1455.193954,1225.426488,10416.125148
1205.402559,-5897.364973,-3140.155375,11564.962480
1205.402859,-7199.380617,-6280.310751,12713.799813
1205.403159,-2910.387909,-5054.884263,12407.443191
1205.403460,765.891555,-4901.705952,10569.303459
1205.403760,7046.202306,-3906.046930,10033.179370
1205.404071,7888.683016,-1455.193954,9037.520349
1205.404369,8654.574571,-842.480710,5591.008351
1205.404666,4059.225241,306.356622,9573.644437
1205.404964,-1608.372265,-0.000000,10875.660081
1205.405261,-6050.543284,-76.589155,9726.822748
1205.405558,-8884.342038,-1455.193954,11411.784169
1205.405856,-10952.249236,-5820.775818,12330.854035
1205.406153,-9343.876971,-7199.380617,14168.993767
1205.406486,-2067.907198,-2833.798753,12484.032346
1205.406781,3752.868619,-1608.372265,9190.698660
1205.407076,4212.403552,-1302.015643,11028.838392
1205.407372,5054.884263,3216.744531,11258.605858
1205.407667,7429.148083,5897.364973,8041.861327
1205.407962,6893.023995,8195.039638,6663.256528
1205.408258,2680.620442,4595.349330,9343.876971
1205.408553,-2374.263820,153.178311,11794.729947
1205.408860,-3676.279464,-689.302399,13709.458834
1205.409159,-1761.550576,-3752.868619,10722.481770
1205.409458,-536.124088,-1761.550576,10109.768526
1205.409757,-995.659021,-2680.620442,12254.264880
1205.410056,-3523.101153,-4212.403552,14168.993767
1205.410355,-2067.907198,1684.961421,13862.637145
1205.410654,2527.442131,7735.504705,9803.411904
1205.410952,2374.263820,9650.233593,7505.737239
1205.411269,306.356622,7888.683016,8960.931193
1205.411566,-842.480710,4978.295107,10416.125148
1205.411864,-842.480710,4135.814397,9573.644437
1205.412162,-1761.550576,765.891555,8501.396260
1205.412460,-4135.814397,-7812.093861,10799.070925
1205.412757,-6050.543284,-10645.892614,13862.637145
1205.413055,-1148.837332,-10186.357681,12790.388968
1205.413353,2527.442131,-8118.450483,9726.822748
1205.413667,3906.046930,-5820.775818,9880.001059
1205.413967,7275.969772,-3752.868619,9573.644437
1205.414266,5667.597507,-1302.015643,6510.078217
1205.414566,5514.419196,1684.961421,7582.326394
1205.414865,1378.604799,-995.659021,8271.628794
1205.415165,-4288.992708,-1608.372265,10416.125148
1205.415465,-7122.791461,-3140.155375,11794.729947
1205.415764,-7122.791461,-4212.403552,11182.016703
1205.416052,-7352.558928,-4518.760174,13326.513057
1205.416353,-3829.457775,-5667.597507,14092.404612
1205.416654,-382.945777,-4901.705952,12637.210657
1205.416955,6280.310751,1838.139732,10645.892614
1205.417255,11641.551636,4748.527641,6816.434839
1205.417556,6586.667373,3829.457775,7735.504705
1205.417857,4059.225241,4978.295107,9114.109504
1205.418158,-2067.907198,4825.116796,9726.822748
1205.418457,-7812.093861,2910.387909,10492.714303
1205.418757,-11258.605858,-76.589155,13709.458834
1205.419056,-11105.427547,-4059.225241,12943.567279
1205.419355,-4978.295107,-2680.620442,11794.729947
1205.419654,1991.318043,-2221.085509,12637.210657
1205.419954,4518.760174,-1914.728887,10416.125148
1205.420253,10262.946837,3369.922842,12407.443191
1205.420552,13096.745590,7122.791461,6356.899906
1205.420859,9650.233593,8041.861327,5514.419196
1205.421158,-382.945777,6203.721595,12101.086569
1205.421458,-6663.256528,3676.279464,10262.946837
1205.421757,-8884.342038,1684.961421,10875.660081
1205.422056,-9343.876971,-1914.728887,11488.373325
1205.422355,-10033.179370,-8118.450483,11718.140791
1205.422654,-6969.613150,-7505.737239,12866.978124
1205.422954,-1761.550576,-8731.163727,12101.086569
1205.423277,1072.248177,-8118.450483,11182.016703
1205.423577,7888.683016,-382.945777,9650.233593
1205.423878,10109.768526,1225.426488,8501.396260
1205.424178,9420.466126,3523.101153,7582.326394
1205.424479,7582.326394,5744.186662,8195.039638
1205.424779,4365.581863,6203.721595,7582.326394
1205.425079,-1148.837332,2604.031287,9420.466126
1205.425380,-5591.008351,-3140.155375,12866.978124
1205.425653,-9037.520349,-7352.558928,11947.908258
1205.425953,-10799.070925,-8118.450483,14934.885322
1205.426253,-9190.698660,-10645.892614,14245.582923
1205.426553,-6663.256528,-8118.450483,12866.978124
1205.426853,1378.604799,-2221.085509,10875.660081
1205.427153,8348.217949,2450.852976,7582.326394
1205.427453,11028.838392,5284.651729,7582.326394
1205.427753,13096.745590,7429.148083,6356.899906
1205.428070,9650.233593,4825.116796,6433.489062
1205.428366,3140.155375,3982.636086,8960.931193
1205.428662,-2067.907198,-689.302399,10875.660081
1205.428958,-11718.140791,-7352.558928,12484.032346
1205.429254,-13479.691368,-7812.093861,14781.707011
1205.429550,-11105.427547,-7505.737239,13403.102212
1205.429846,-9573.644437,-6893.023995,12484.032346
1205.430142,-1148.837332,-2986.977064,12024.497413
1205.430465,5514.419196,612.713244,9420.466126
1205.430763,11641.551636,5897.364973,7122.791461
1205.431060,11028.838392,6050.543284,6280.310751
1205.431358,3906.046930,3063.566220,8424.807105
1205.431655,153.178311,1991.318043,10645.892614
1205.431953,-1302.015643,-0.000000,9650.233593
1205.432250,-7122.791461,-2680.620442,10109.768526
1205.432547,-9037.520349,-5514.419196,14475.350389
1205.432854,-8271.628794,-7658.915550,13786.047990
1205.433155,-3063.566220,-2374.263820,12484.032346
1205.433456,6739.845684,1531.783110,10722.481770
1205.433757,9497.055282,3369.922842,8118.450483
1205.434058,8960.931193,7275.969772,8195.039638
1205.434359,7735.504705,7122.791461,9573.644437
1205.434660,-229.767466,5131.473418,9573.644437
1205.434961,-3216.744531,6356.899906,11028.838392
1205.435241,-6510.078217,1991.318043,10262.946837
1205.435540,-8118.450483,-1455.193954,10875.660081
1205.435839,-6203.721595,-3446.511997,13096.745590
1205.436138,-3829.457775,-5054.884263,13326.513057
1205.436437,-842.480710,-3599.690308,10952.249236
1205.436736,5514.419196,-689.302399,11028.838392
1205.437035,5667.597507,-536.124088,9114.109504
1205.437333,3599.690308,3216.744531,10109.768526
1205.437650,4059.225241,2757.209598,9114.109504
1205.437949,-76.589155,3063.566220,7122.791461
1205.438249,-842.480710,1072.248177,10186.357681
1205.438548,-3369.922842,-382.945777,9956.590215
1205.438847,-6356.899906,-5054.884263,10875.660081
1205.439146,-5591.008351,-7658.915550,13326.513057
1205.439445,-3216.744531,-9650.233593,11182.016703
1205.439744,-382.945777,-8118.450483,11335.195014
1205.440062,3140.155375,-5667.597507,10109.768526
1205.440359,2527.442131,-6127.132440,9650.233593
1205.440657,3752.868619,-1302.015643,10262.946837
1205.440955,7046.202306,3676.279464,7199.380617
1205.441253,2527.442131,2604.031287,6969.613150
1205.441551,1684.961421,3523.101153,9420.466126
1205.441849,-3982.636086,-1148.837332,10569.303459
1205.442146,-3216.744531,2144.496354,12101.086569
1205.442469,-3369.922842,-3906.046930,12943.567279
1205.442766,-4978.295107,-6127.132440,11411.784169
1205.443063,-2374.263820,-5054.884263,12407.443191
1205.443360,-689.302399,-3293.333686,12101.086569
1205.443656,4059.225241,-995.659021,8195.039638
1205.443953,4212.403552,4442.171019,9880.001059
1205.444250,6586.667373,8195.039638,9114.109504
1205.444546,3599.690308,9573.644437,8195.039638
1205.444837,3140.155375,10875.660081,10875.660081
1205.445136,-2604.031287,5744.186662,10262.946837
1205.445434,-8271.628794,2297.674665,12560.621502
1205.445733,-7352.558928,-1302.015643,14245.582923
1205.446032,-8271.628794,-5667.597507,13096.745590
1205.446330,-4825.116796,-5514.419196,12254.264880
1205.446629,1225.426488,-3906.046930,11028.838392
1205.446928,2374.263820,-1914.728887,9956.590215
1205.447235,7122.791461,3216.744531,9956.590215
1205.447539,8501.396260,6050.543284,6969.613150
1205.447844,6893.023995,7429.148083,6586.667373
1205.448149,3293.333686,4825.116796,9114.109504
1205.448453,-4288.992708,-382.945777,9803.411904
1205.448758,-8424.807105,-3293.333686,13020.156435
1205.449063,-6969.613150,-7046.202306,13096.745590
1205.449367,-6356.899906,-10033.179370,11794.729947
1205.449650,-2221.085509,-7352.558928,12101.086569
1205.449953,2144.496354,-6586.667373,10875.660081
1205.450255,4671.938485,-2374.263820,7965.272172
1205.450557,8501.396260,1378.604799,8424.807105
1205.450859,7046.202306,2450.852976,8348.217949
1205.451161,3140.155375,3523.101153,8577.985416
1205.451464,-0.000000,2144.496354,9190.698660
1205.451766,-1608.372265,153.178311,9114.109504
1205.452013,-3829.457775,-4365.581863,11488.373325
1205.452317,-3829.457775,-7658.915550,11794.729947
1205.452622,-4748.527641,-8884.342038,11258.605858
1205.452926,-2067.907198,-4901.705952,12254.264880
1205.453231,1838.139732,-3293.333686,9267.287815
1205.453535,1531.783110,919.069866,10109.768526
1205.453840,-76.589155,3982.636086,11794.729947
1205.454144,-2450.852976,6203.721595,9956.590215
1205.454479,-2374.263820,8041.861327,11488.373325
1205.454773,-2450.852976,4442.171019,10569.303459
1205.455067,-3982.636086,459.534933,10569.303459
1205.455361,-5744.186662,-1761.550576,12637.210657
1205.455655,-1761.550576,-4059.225241,11947.908258
1205.455949,-689.302399,-3906.046930,11488.373325
1205.456244,2833.798753,-1455.193954,11794.729947
1205.456538,4212.403552,-689.302399,10722.481770
1205.456824,5973.954129,3829.457775,8041.861327
1205.457125,9114.109504,7429.148083,9497.055282
1205.457427,8807.752882,7122.791461,6663.256528
1205.457729,2297.674665,5131.473418,8195.039638
1205.458031,-2067.907198,765.891555,11335.195014
1205.458333,-6663.256528,-2374.263820,12254.264880
1205.458635,-10033.179370,-3140.155375,14168.993767
1205.458937,-8884.342038,-6433.489062,10875.660081
1205.459244,-8424.807105,-6433.489062,12637.210657
1205.459543,-1148.837332,-4059.225241,13403.102212
1205.459843,4212.403552,-2374.263820,8807.752882
1205.460143,6280.310751,2144.496354,6893.023995
1205.460442,9267.287815,2450.852976,7582.326394
1205.460742,6893.023995,612.713244,7735.504705
1205.461042,1684.961421,-229.767466,8960.931193
1205.461341,-0.000000,-1761.550576,10569.303459
1205.461638,-4825.116796,-5054.884263,10262.946837
1205.461937,-6203.721595,-4901.705952,13096.745590
1205.462235,-5437.830040,-6893.023995,12101.086569
1205.462534,-6050.543284,-4518.760174,11794.729947
1205.462833,-1302.015643,-3140.155375,11105.427547
1205.463132,459.534933,-1455.193954,9803.411904
1205.463431,5054.884263,2910.387909,8654.574571
1205.463729,6739.845684,1684.961421,8501.396260
1205.464024,1531.783110,-536.124088,9956.590215
1205.464324,1225.426488,1684.961421,10875.660081
1205.464623,-536.124088,-0.000000,10569.303459
1205.464922,-4595.349330,-995.659021,10875.660081
1205.465221,-4595.349330,306.356622,13862.637145
1205.465521,-4748.527641,-2374.263820,12790.388968
1205.465820,1991.318043,306.356622,10109.768526
1205.466119,5820.775818,1378.604799,9497.055282
1205.466431,4212.403552,-1455.193954,7735.504705
1205.466731,1378.604799,-1148.837332,11182.016703
1205.467031,-229.767466,-536.124088,11641.551636
1205.467331,-689.302399,-0.000000,10262.946837
1205.467631,-1302.015643,2450.852976,10186.357681
1205.467931,-2221.085509,306.356622,10875.660081
1205.468231,-1302.015643,612.713244,11335.195014
1205.468531,1684.961421,612.713244,12254.264880
1205.468830,3293.333686,153.178311,10645.892614
1205.469129,5973.954129,919.069866,8424.807105
1205.469429,4748.527641,765.891555,8654.574571
1205.469728,306.356622,-2680.620442,9650.233593
1205.470027,-7122.791461,-1914.728887,12560.621502
1205.470326,-6356.899906,-2374.263820,11105.427547
1205.470626,-6969.613150,-1761.550576,9650.233593
1205.470925,-4595.349330,-1608.372265,12254.264880
1205.471232,-2604.031287,-2374.263820,12024.497413
1205.471533,-536.124088,-1302.015643,10952.249236
1205.471835,2986.977064,-76.589155,11488.373325
1205.472136,3446.511997,-2527.442131,9343.876971
1205.472438,2986.977064,-1914.728887,10416.125148
1205.472739,3293.333686,-2221.085509,10569.303459
1205.473040,1684.961421,-689.302399,7658.915550
1205.473342,1684.961421,612.713244,9420.466126
1205.473612,919.069866,-1148.837332,9420.466126
1205.473912,-1608.372265,-229.767466,10109.768526
1205.474212,2144.496354,765.891555,10722.481770
1205.474513,-2604.031287,-1761.550576,10416.125148
1205.474813,153.178311,-995.659021,10722.481770
1205.475113,-229.767466,-2221.085509,11641.551636
1205.475414,-2757.209598,-5054.884263,11028.838392
1205.475714,306.356622,-4365.581863,11411.784169
1205.476033,-0.000000,-4671.938485,10416.125148
1205.476331,3446.511997,-1148.837332,8348.217949
1205.476629,5054.884263,3216.744531,9420.466126
1205.476927,3599.690308,2757.209598,7735.504705
1205.477225,-2067.907198,1378.604799,11718.140791
1205.477524,-3216.744531,1072.248177,12330.854035
1205.477822,-5131.473418,-1914.728887,9803.411904
1205.478120,-7505.737239,-2680.620442,12713.799813
1205.478433,-6663.256528,-4825.116796,12943.567279
1205.478731,-3216.744531,-4212.403552,11794.729947
1205.479030,2297.674665,-1761.550576,11411.784169
1205.479328,6893.023995,-842.480710,10492.714303
1205.479627,8654.574571,2910.387909,7888.683016
1205.479925,6433.489062,4825.116796,8807.752882
1205.480224,2297.674665,2910.387909,9803.411904
1205.480522,-2221.085509,3216.744531,10033.179370
1205.480822,-2374.263820,2144.496354,9420.466126
1205.481122,-6356.899906,-2374.263820,10492.714303
1205.481422,-10186.357681,-3752.868619,15700.776877
1205.481722,-4825.116796,-2986.977064,14168.993767
1205.482022,153.178311,459.534933,9114.109504
1205.482322,5820.775818,1991.318043,9573.644437
1205.482622,5667.597507,1378.604799,9803.411904
1205.482922,4212.403552,2604.031287,9114.109504
1205.483229,2833.798753,4595.349330,9267.287815
1205.483526,2527.442131,2757.209598,5820.775818
1205.483823,-4288.992708,-3140.155375,9650.233593
1205.484120,-6356.899906,-8424.807105,12713.799813
1205.484417,-3982.636086,-8577.985416,11028.838392
1205.484714,612.713244,-4671.938485,10875.660081
1205.485010,5054.884263,-4825.116796,9573.644437
1205.485307,2297.674665,-2221.085509,11335.195014
1205.485621,5208.062574,2450.852976,11028.838392
1205.485924,-0.000000,2604.031287,8654.574571
1205.486227,-6203.721595,2450.852976,8041.861327
1205.486530,-17002.792521,-382.945777,10416.125148
1205.486832,-29640.003178,-5667.597507,13479.691368
1205.487135,-35843.724774,-5054.884263,15930.544344
1205.487438,-39596.593393,-7965.272172,16390.079277
1205.487741,-38677.523527,-9497.055282,15853.955188
1205.488059,-33775.817575,-8118.450483,18381.397320
1205.488355,-22670.390028,-3906.046930,15088.063633
1205.488651,-9343.876971,612.713244,11028.838392
1205.488948,2680.620442,4595.349330,9420.466126
1205.489244,14398.761234,9267.287815,1838.139732
1205.489540,19913.180430,8654.574571,382.945777
1205.489836,15164.652789,7735.504705,1302.015643
1205.490132,-2450.852976,-229.767466,4442.171019
1205.490397,-25197.832159,-9650.233593,13249.923901
1205.490700,-42736.748769,-12637.210657,15853.955188
1205.491003,-50242.486008,-9880.001059,14705.117856
1205.491305,-46566.206544,-5208.062574,12866.978124
1205.491608,-38064.810283,-76.589155,11105.427547
1205.491910,-17002.792521,7275.969772,9956.590215
1205.492213,-0.000000,10569.303459,6280.310751
1205.492515,9956.590215,10262.946837,4748.527641
1205.492815,9114.109504,6663.256528,4442.171019
1205.493113,-5744.186662,2757.209598,6510.078217
1205.493410,-19223.878030,765.891555,6816.434839
1205.493707,-35996.903085,306.356622,8654.574571
1205.494005,-49246.826986,-2221.085509,11641.551636
1205.494302,-52233.804051,-3140.155375,13939.226301
1205.494600,-43885.586101,-1608.372265,13786.047990
1205.494897,-30865.429666,-1148.837332,14322.172078
1205.495227,-16466.668432,-2527.442131,13249.923901
1205.495524,-1455.193954,-2680.620442,9880.001059
1205.495820,7888.683016,-3140.155375,6969.613150
1205.496116,6433.489062,-3752.868619,5514.419196
1205.496413,-2604.031287,-2067.907198,6433.489062
1205.496709,-14934.885322,-0.000000,9190.698660
1205.497006,-30559.073044,1531.783110,14934.885322
1205.497302,-43732.407790,4135.814397,19530.234652
1205.497610,-45800.314989,10875.660081,20449.304518
1205.497910,-38064.810283,16466.668432,19147.288875
1205.498210,-21062.017762,22210.855095,15777.366033
1205.498510,-1148.837332,25044.653848,12101.086569
1205.498809,19147.288875,25351.010470,8195.039638
1205.499109,33699.228420,24738.297226,4288.992708
1205.499409,37145.740417,24891.475537,1684.961421
1205.499709,23053.335805,23589.459894,4442.171019
1205.500026,-689.302399,20372.715363,10875.660081
1205.500325,-24585.118915,22057.676784,15241.241944
1205.500624,-42430.392147,23129.924961,16849.614210
1205.500923,-51774.269118,25044.653848,15700.776877
1205.501223,-49093.648675,27801.863446,14398.761234
1205.501522,-32473.801932,29563.414023,12024.497413
1205.501821,-8884.342038,29257.057401,9650.233593
1205.502120,18917.521408,27495.506824,6510.078217
1205.502392,41281.554814,22670.390028,3369.922842
1205.502696,52693.338984,19070.699719,1761.550576
1205.502999,49782.951075,15241.241944,2527.442131
1205.503302,33239.693487,12101.086569,4978.295107
1205.503605,8041.861327,9420.466126,10339.535992
1205.503908,-18381.397320,10262.946837,14398.761234
1205.504212,-39443.415082,11947.908258,16619.846743
1205.504515,-53842.176316,13939.226301,19377.056341
1205.504805,-56675.975070,16926.203365,21827.909317
1205.505104,-47715.043876,22057.676784,22364.033406
1205.505403,-25504.188781,28950.700779,19147.288875
1205.505702,6739.845684,36839.383795,12254.264880
1205.506001,40285.895793,42430.392147,3599.690308
1205.506301,63109.464132,41817.678903,-2374.263820
1205.506600,67398.456840,34388.530819,-1838.139732
1205.506899,52004.036584,22517.211717,1761.550576
1205.507213,21138.606918,7275.969772,9420.466126
1205.507512,-10645.892614,-4901.705952,15547.598566
1205.507810,-32626.980243,-9497.055282,17768.684076
1205.508109,-42813.337924,-7965.272172,18687.753942
1205.508408,-39596.593393,-1608.372265,18228.219009
1205.508706,-29946.359800,6050.543284,16083.722655
1205.509005,-13786.047990,18917.521408,13249.923901
1205.509304,-2067.907198,27801.863446,10645.892614
1205.509611,11182.016703,35307.600685,4288.992708
1205.509911,18917.521408,38524.345216,-1225.426488
1205.510210,14705.117856,30022.948956,919.069866
1205.510510,5667.597507,10569.303459,8654.574571
1205.510810,-1148.837332,-5514.419196,14934.885322
1205.511110,-2067.907198,-18228.219009,14092.404612
1205.511409,-4978.295107,-26499.847803,13709.458834
1205.511709,-10645.892614,-31018.607977,12713.799813
1205.512006,-10339.535992,-28491.165846,12330.854035
1205.512305,-5897.364973,-22134.265939,10109.768526
1205.512605,-1608.372265,-11105.427547,6969.613150
1205.512904,2297.674665,-1761.550576,8041.861327
1205.513204,-1148.837332,306.356622,9190.698660
1205.513504,-76.589155,1225.426488,10492.714303
1205.513803,3599.690308,459.534933,11028.838392
1205.514103,10262.946837,-3906.046930,8041.861327
1205.514398,10416.125148,-13709.458834,11564.962480
1205.514699,11488.373325,-18075.040698,12790.388968
1205.514999,6893.023995,-15777.366033,10492.714303
1205.515300,3140.155375,-4671.938485,10109.768526
1205.515601,-7505.737239,-1455.193954,12713.799813
1205.515902,-20602.482829,5131.473418,14781.707011
1205.516203,-20449.304518,18151.629853,12560.621502
1205.516504,-21215.196073,24048.994827,7888.683016
1205.516792,-17615.505765,19760.002119,6433.489062
1205.517093,-11105.427547,7735.504705,10569.303459
1205.517394,-1761.550576,-6739.845684,11794.729947
1205.517694,12943.567279,-17462.327454,12484.032346
1205.517995,25274.421315,-30712.251355,10645.892614
1205.518296,30788.840511,-34924.654908,9420.466126
1205.518597,31478.142910,-26959.382736,8195.039638
1205.518898,23666.049049,-10339.535992,9114.109504
1205.519207,10109.768526,4135.814397,9573.644437
1205.519505,-4595.349330,20985.428607,10569.303459
1205.519804,-17615.505765,34848.065752,11105.427547
1205.520103,-26499.847803,44498.299345,8577.985416
1205.520401,-29027.289934,43579.229479,11028.838392
1205.520700,-29793.181489,31095.197133,14322.172078
1205.520999,-21215.196073,18304.808164,17462.327454
1205.521297,-7199.380617,3982.636086,15853.955188
1205.521604,9114.109504,-11564.962480,10492.714303
1205.521904,27035.971891,-20755.661140,9267.287815
1205.522204,35384.189841,-26499.847803,7505.737239
1205.522503,31631.321221,-19836.591274,7199.380617
1205.522803,23895.816516,-9726.822748,5361.240885
1205.523103,6586.667373,-842.480710,6510.078217
1205.523402,-8271.628794,8501.396260,9267.287815
1205.523702,-19530.234652,12254.264880,10799.070925
1205.523999,-31248.375444,9267.287815,14475.350389
1205.524297,-31095.197133,8654.574571,16083.722655
1205.524595,-24738.297226,3982.636086,15317.831100
1205.524893,-11718.140791,-1608.372265,12254.264880
1205.525191,6739.845684,-10952.249236,11411.784169
1205.525489,21521.552695,-14705.117856,9956.590215
1205.525787,28950.700779,-12177.675724,8118.450483
1205.526086,27648.685135,-7505.737239,7122.791461
1205.526400,12484.032346,-6893.023995,7812.093861
1205.526699,2680.620442,-229.767466,9803.411904
1205.526997,-4442.171019,1991.318043,10262.946837
1205.527296,-13632.869679,-0.000000,9114.109504
1205.527595,-15700.776877,-3293.333686,14781.707011
1205.527893,-16313.490121,-7046.202306,14322.172078
1205.528192,-11258.605858,-6127.132440,11564.962480
1205.528491,-1455.193954,-4671.938485,10875.660081
1205.528779,4748.527641,-7965.272172,9573.644437
1205.529079,9650.233593,-7352.558928,12713.799813
1205.529379,14398.761234,-382.945777,11411.784169
1205.529679,10875.660081,6663.256528,7275.969772
1205.529979,9420.466126,11488.373325,9267.287815
1205.530279,4365.581863,10875.660081,9267.287815
1205.530579,-4135.814397,7275.969772,10109.768526
1205.530879,-9343.876971,4748.527641,10416.125148
1205.531178,-16160.311810,-842.480710,9880.001059
1205.531477,-21215.196073,-5667.597507,12790.388968
1205.531777,-16619.846743,-10339.535992,13862.637145
1205.532076,-10799.070925,-11411.784169,13479.691368
1205.532375,3293.333686,-5667.597507,11641.551636
1205.532674,16236.900966,765.891555,7735.504705
1205.532973,20525.893674,5744.186662,4978.295107
1205.533273,25427.599626,11794.729947,5514.419196
1205.533580,20066.358741,9573.644437,4978.295107
1205.533880,7429.148083,4288.992708,8195.039638
1205.534180,-5437.830040,-2527.442131,12790.388968
1205.534480,-19530.234652,-7965.272172,14322.172078
1205.534780,-23742.638205,-7812.093861,15700.776877
1205.535080,-20142.947896,-5820.775818,13249.923901
1205.535380,-15088.063633,-6739.845684,12866.978124
1205.535680,-2604.031287,-2221.085509,12713.799813
1205.536000,8348.217949,1684.961421,9726.822748
1205.536297,15471.009411,5284.651729,6356.899906
1205.536595,21827.909317,9420.466126,5284.651729
